InstrStartPage.started,InstrStartPage.stopped,participant,designid,prolificid,Gender,Age,date,expName,psychopyVersion,OS,frameRate,ratio_monitor2CRT,VirtualChinrest.started,VirtualChinrest.stopped,xRes,yRes,viewingdistance_cm,pixeldensity_px2mm,BallPos,squarePos,mm2degree,px2degree,CRT_px2degree,PassVirtualChinrest,foveaRadius_inPixel,InstrRedo.started,InstrRedo.stopped,VirtualChinrest_Redo.started,VirtualChinrest_Redo.stopped,Instruction1.started,Instruction1.stopped,keyPractice.started,keyPractice.stopped,key_keyprac.keys,key_keyprac.corr,key_keyprac.rt,key_keyprac.duration,keyPracFeedback.started,keyPracFeedback.stopped,keyPracLoop.thisRepN,keyPracLoop.thisTrialN,keyPracLoop.thisN,keyPracLoop.thisIndex,keyPracLoop.ran,phase,block,trial,targOrientdeg,targOrient,corrAnswer,Instruction2.started,Instruction2.stopped,Instruction3.started,Instruction3.stopped,fixation.started,fixation.stopped,fixationSize,mouseintial.x,mouseintial.y,mouseintial.leftButton,mouseintial.midButton,mouseintial.rightButton,mouseintial.time,mouseintial.clicked_name,greenFixation.started,greenFixation.stopped,trial.started,trial.stopped,letterSize,apertureSize,searchsize,key_respMain.keys,key_respMain.corr,key_respMain.rt,key_respMain.duration,trialFeedback.started,trialFeedback.stopped,trialsPractice.thisRepN,trialsPractice.thisTrialN,trialsPractice.thisN,trialsPractice.thisIndex,trialsPractice.ran,targetQuad,Tcondition,targcell,tlocx,tlocy,d1x,d1y,d2x,d2y,d3x,d3y,d4x,d4y,d5x,d5y,d6x,d6y,d7x,d7y,d8x,d8y,d9x,d9y,d10x,d10y,d11x,d11y,d1Orient,d2Orient,d3Orient,d4Orient,d5Orient,d6Orient,d7Orient,d8Orient,d9Orient,d10Orient,d11Orient,CheckInstr.started,CheckInstr.stopped,key_checkInstr.keys,key_checkInstr.corr,key_checkInstr.rt,key_checkInstr.duration,CheckInstr_FB.started,CheckInstr_FB.stopped,Instruction_MainExp.started,Instruction_MainExp.stopped,TakeABreak.started,TakeABreak.stopped,key_respBreak.keys,trials.thisRepN,trials.thisTrialN,trials.thisN,trials.thisIndex,trials.ran,configurationNumber,CCCondition,key_respBreak.rt,key_respBreak.duration,displayTestingPhase.started,displayTestingPhase.stopped,key_respTesting.keys,key_respTesting.corr,key_respTesting.rt,key_respTesting.duration,TakeABreak2.started,TakeABreak2.stopped,key_RespBreak.keys,Testingtrials.thisRepN,Testingtrials.thisTrialN,Testingtrials.thisN,Testingtrials.thisIndex,Testingtrials.ran,key_RespBreak.rt,key_RespBreak.duration,RecogQuestion.started,RecogQuestion.stopped,key_AnswerQues.keys,key_AnswerQues.rt,key_AnswerQues.duration,Disclose.started,Disclose.stopped,InstrRT.started,InstrRT.stopped,fixation_RT.started,fixation_RT.stopped,mouseInitial.x,mouseInitial.y,mouseInitial.leftButton,mouseInitial.midButton,mouseInitial.rightButton,mouseInitial.time,mouseInitial.clicked_name,displayRT.started,displayRT.stopped,key_respRT.keys,key_respRT.corr,key_respRT.rt,key_respRT.duration,RTtrials.thisRepN,RTtrials.thisTrialN,RTtrials.thisN,RTtrials.thisIndex,RTtrials.ran,EndOfExperiment.started,EndOfExperiment.stopped
0.0002,8.0228,0128,12,xxx,F,22,2024-02-29_19h48.15.165,MouseEye_CC,2023.2.2,MacIntel,60.24096386,1,,,,,,,,,,,,,,,,,,,,,,,,,,,,,,,,,,,,,,,,,,,,,,,,,,,,,,,,,,,,,,,,,,,,,,,,,,,,,,,,,,,,,,,,,,,,,,,,,,,,,,,,,,,,,,,,,,,,,,,,,,,,,,,,,,,,,,,,,,,,,,,,,,,,,,,,,,,,,,,,,,,,,,,,,,,,,,,,,
,,0128,12,xxx,F,22,2024-02-29_19h48.15.165,MouseEye_CC,2023.2.2,MacIntel,60.24096386,0.567956528,8.023,30.3733,1920,1080,28.754,3.15,"326.41, 323.49, 315.41, 317.84, 317.26, 302.56, 300.91",532.76,5.019029369,15.80994251,27.83653633,Passed,52.96330742,,,,,,,,,,,,,,,,,,,,,,,,,,,,,,,,,,,,,,,,,,,,,,,,,,,,,,,,,,,,,,,,,,,,,,,,,,,,,,,,,,,,,,,,,,,,,,,,,,,,,,,,,,,,,,,,,,,,,,,,,,,,,,,,,,,,,,,,,,,,,,,,,,,,,,,,,,,,,,,,,,,,
,,0128,12,xxx,F,22,2024-02-29_19h48.15.165,MouseEye_CC,2023.2.2,MacIntel,60.24096386,0.567956528,,,1920,1080,28.754,3.15,"326.41, 323.49, 315.41, 317.84, 317.26, 302.56, 300.91",532.76,5.019029369,15.80994251,27.83653633,Passed,52.96330742,30.3735,30.3744,,,,,,,,,,,,,,,,,,,,,,,,,,,,,,,,,,,,,,,,,,,,,,,,,,,,,,,,,,,,,,,,,,,,,,,,,,,,,,,,,,,,,,,,,,,,,,,,,,,,,,,,,,,,,,,,,,,,,,,,,,,,,,,,,,,,,,,,,,,,,,,,,,,,,,,,,,,,,,,,,,
,,0128,12,xxx,F,22,2024-02-29_19h48.15.165,MouseEye_CC,2023.2.2,MacIntel,60.24096386,0.594856474,,,1920,1080,32.267,2.94,"326.41, 323.49, 315.41, 317.84, 317.26, 302.56, 300.91",532.76,5.6322258,16.55874385,27.83653633,Passed,55.47179191,,,30.3745,52.2964,,,,,,,,,,,,,,,,,,,,,,,,,,,,,,,,,,,,,,,,,,,,,,,,,,,,,,,,,,,,,,,,,,,,,,,,,,,,,,,,,,,,,,,,,,,,,,,,,,,,,,,,,,,,,,,,,,,,,,,,,,,,,,,,,,,,,,,,,,,,,,,,,,,,,,,,,,,,,,,,
,,0128,12,xxx,F,22,2024-02-29_19h48.15.165,MouseEye_CC,2023.2.2,MacIntel,60.24096386,0.594856474,,,1920,1080,32.267,2.94,"326.41, 323.49, 315.41, 317.84, 317.26, 302.56, 300.91",532.76,5.6322258,16.55874385,27.83653633,Passed,55.47179191,,,,,52.2966,57.1656,,,,,,,,,,,,,,,,,,,,,,,,,,,,,,,,,,,,,,,,,,,,,,,,,,,,,,,,,,,,,,,,,,,,,,,,,,,,,,,,,,,,,,,,,,,,,,,,,,,,,,,,,,,,,,,,,,,,,,,,,,,,,,,,,,,,,,,,,,,,,,,,,,,,,,,,,,,,,,
,,0128,12,xxx,F,22,2024-02-29_19h48.15.165,MouseEye_CC,2023.2.2,MacIntel,60.24096386,0.594856474,,,1920,1080,32.267,2.94,"326.41, 323.49, 315.41, 317.84, 317.26, 302.56, 300.91",532.76,5.6322258,16.55874385,27.83653633,Passed,55.47179191,,,,,,,57.1798,58.0639,a,1,0.3648,,58.0641,58.5644,0,0,0,0,1,practice,1,1,0,left,a,,,,,,,,,,,,,,,,,,,,,,,,,,,,,,,,,,,,,,,,,,,,,,,,,,,,,,,,,,,,,,,,,,,,,,,,,,,,,,,,,,,,,,,,,,,,,,,,,,,,,,,,,,,,,,,,,,,,,,,,,,,,,,,,,,,,,,,,,,,
,,0128,12,xxx,F,22,2024-02-29_19h48.15.165,MouseEye_CC,2023.2.2,MacIntel,60.24096386,0.594856474,,,1920,1080,32.267,2.94,"326.41, 323.49, 315.41, 317.84, 317.26, 302.56, 300.91",532.76,5.6322258,16.55874385,27.83653633,Passed,55.47179191,,,,,,,58.5651,59.5286,a,1,0.4328,,59.5288,60.0284,0,1,1,1,1,practice,1,2,0,left,a,,,,,,,,,,,,,,,,,,,,,,,,,,,,,,,,,,,,,,,,,,,,,,,,,,,,,,,,,,,,,,,,,,,,,,,,,,,,,,,,,,,,,,,,,,,,,,,,,,,,,,,,,,,,,,,,,,,,,,,,,,,,,,,,,,,,,,,,,,,
,,0128,12,xxx,F,22,2024-02-29_19h48.15.165,MouseEye_CC,2023.2.2,MacIntel,60.24096386,0.594856474,,,1920,1080,32.267,2.94,"326.41, 323.49, 315.41, 317.84, 317.26, 302.56, 300.91",532.76,5.6322258,16.55874385,27.83653633,Passed,55.47179191,,,,,,,60.029,60.9298,a,1,0.3842,,60.9299,61.4286,0,2,2,2,1,practice,1,3,0,left,a,,,,,,,,,,,,,,,,,,,,,,,,,,,,,,,,,,,,,,,,,,,,,,,,,,,,,,,,,,,,,,,,,,,,,,,,,,,,,,,,,,,,,,,,,,,,,,,,,,,,,,,,,,,,,,,,,,,,,,,,,,,,,,,,,,,,,,,,,,,
,,0128,12,xxx,F,22,2024-02-29_19h48.15.165,MouseEye_CC,2023.2.2,MacIntel,60.24096386,0.594856474,,,1920,1080,32.267,2.94,"326.41, 323.49, 315.41, 317.84, 317.26, 302.56, 300.91",532.76,5.6322258,16.55874385,27.83653633,Passed,55.47179191,,,,,,,61.429,62.4159,s,1,0.4707,,62.4159,62.9135,0,3,3,3,1,practice,1,4,180,right,s,,,,,,,,,,,,,,,,,,,,,,,,,,,,,,,,,,,,,,,,,,,,,,,,,,,,,,,,,,,,,,,,,,,,,,,,,,,,,,,,,,,,,,,,,,,,,,,,,,,,,,,,,,,,,,,,,,,,,,,,,,,,,,,,,,,,,,,,,,,
,,0128,12,xxx,F,22,2024-02-29_19h48.15.165,MouseEye_CC,2023.2.2,MacIntel,60.24096386,0.594856474,,,1920,1080,32.267,2.94,"326.41, 323.49, 315.41, 317.84, 317.26, 302.56, 300.91",532.76,5.6322258,16.55874385,27.83653633,Passed,55.47179191,,,,,,,62.9141,63.8324,s,1,0.3941,,63.8324,64.3297,0,4,4,4,1,practice,1,5,180,right,s,,,,,,,,,,,,,,,,,,,,,,,,,,,,,,,,,,,,,,,,,,,,,,,,,,,,,,,,,,,,,,,,,,,,,,,,,,,,,,,,,,,,,,,,,,,,,,,,,,,,,,,,,,,,,,,,,,,,,,,,,,,,,,,,,,,,,,,,,,,
,,0128,12,xxx,F,22,2024-02-29_19h48.15.165,MouseEye_CC,2023.2.2,MacIntel,60.24096386,0.594856474,,,1920,1080,32.267,2.94,"326.41, 323.49, 315.41, 317.84, 317.26, 302.56, 300.91",532.76,5.6322258,16.55874385,27.83653633,Passed,55.47179191,,,,,,,64.3304,65.2637,a,1,0.4049,,65.2638,65.7649,0,5,5,5,1,practice,1,6,0,left,a,,,,,,,,,,,,,,,,,,,,,,,,,,,,,,,,,,,,,,,,,,,,,,,,,,,,,,,,,,,,,,,,,,,,,,,,,,,,,,,,,,,,,,,,,,,,,,,,,,,,,,,,,,,,,,,,,,,,,,,,,,,,,,,,,,,,,,,,,,,
,,0128,12,xxx,F,22,2024-02-29_19h48.15.165,MouseEye_CC,2023.2.2,MacIntel,60.24096386,0.594856474,,,1920,1080,32.267,2.94,"326.41, 323.49, 315.41, 317.84, 317.26, 302.56, 300.91",532.76,5.6322258,16.55874385,27.83653633,Passed,55.47179191,,,,,,,,,,,,,,,,,,,,,,,,,,65.766,67.2645,,,,,,,,,,,,,,,,,,,,,,,,,,,,,,,,,,,,,,,,,,,,,,,,,,,,,,,,,,,,,,,,,,,,,,,,,,,,,,,,,,,,,,,,,,,,,,,,,,,,,,,,,,,,,,,,,,,,,,,,,,,,,,,,,,,,,,,,,
,,0128,12,xxx,F,22,2024-02-29_19h48.15.165,MouseEye_CC,2023.2.2,MacIntel,60.24096386,0.594856474,,,1920,1080,32.267,2.94,"326.41, 323.49, 315.41, 317.84, 317.26, 302.56, 300.91",532.76,5.6322258,16.55874385,27.83653633,Passed,55.47179191,,,,,,,,,,,,,,,,,,,,,,,,,,,,67.2647,69.8636,,,,,,,,,,,,,,,,,,,,,,,,,,,,,,,,,,,,,,,,,,,,,,,,,,,,,,,,,,,,,,,,,,,,,,,,,,,,,,,,,,,,,,,,,,,,,,,,,,,,,,,,,,,,,,,,,,,,,,,,,,,,,,,,,,,,,,,
,,0128,12,xxx,F,22,2024-02-29_19h48.15.165,MouseEye_CC,2023.2.2,MacIntel,60.24096386,0.594856474,,,1920,1080,32.267,2.94,"326.41, 323.49, 315.41, 317.84, 317.26, 302.56, 300.91",532.76,5.6322258,16.55874385,27.83653633,Passed,55.47179191,,,,,,,,,,,,,,,,,,,,practice,0,1,0,left,a,,,,,69.8812,70.7337,16.65598127,-0.890625,-2.15625,1,0,0,0.8524,fixationPoint,70.7339,70.8354,70.8358,72.5347,16.65598127,4758.851793,286.7208205,a,1,1.677,,72.5349,72.7332,0,0,0,0,1,4,sparse,90,217,-164,68,123,222,26,214,216,-218,159,-120,223,-110,82,-115,-130,-224,-120,-68,-219,79,-175,19,-128,90,270,360,90,270,270,180,90,90,90,270,,,,,,,,,,,,,,,,,,,,,,,,,,,,,,,,,,,,,,,,,,,,,,,,,,,,,,,,,,,,,,,,,,,,,
,,0128,12,xxx,F,22,2024-02-29_19h48.15.165,MouseEye_CC,2023.2.2,MacIntel,60.24096386,0.594856474,,,1920,1080,32.267,2.94,"326.41, 323.49, 315.41, 317.84, 317.26, 302.56, 300.91",532.76,5.6322258,16.55874385,27.83653633,Passed,55.47179191,,,,,,,,,,,,,,,,,,,,practice,0,2,0,left,a,,,,,72.7339,73.5997,16.65598127,-0.69140625,-2.6171875,1,0,0,0.8658,fixationPoint,73.5998,73.7005,73.7005,74.601,16.65598127,4758.851793,286.7208205,a,1,0.8835,,74.601,74.7993,0,1,1,1,1,1,rich,39,169,66,-126,125,-169,169,-130,19,-169,-116,-125,-167,-224,-216,218,-129,171,-218,18,-208,166,26,17,170,180,90,360,270,90,90,90,270,180,180,270,,,,,,,,,,,,,,,,,,,,,,,,,,,,,,,,,,,,,,,,,,,,,,,,,,,,,,,,,,,,,,,,,,,,,
,,0128,12,xxx,F,22,2024-02-29_19h48.15.165,MouseEye_CC,2023.2.2,MacIntel,60.24096386,0.594856474,,,1920,1080,32.267,2.94,"326.41, 323.49, 315.41, 317.84, 317.26, 302.56, 300.91",532.76,5.6322258,16.55874385,27.83653633,Passed,55.47179191,,,,,,,,,,,,,,,,,,,,practice,0,3,0,left,a,,,,,74.8,75.2824,16.65598127,-0.69140625,-2.6171875,1,0,0,0.4822,fixationPoint,75.2824,75.3853,75.3854,76.55,16.65598127,4758.851793,286.7208205,a,1,1.15,,76.5502,76.7501,0,2,2,2,1,2,sparse,22,-162,126,222,26,17,170,126,172,-25,-117,-175,-206,-224,-216,116,-19,130,-174,217,-164,-218,159,-21,162,90,90,180,360,360,270,360,360,360,360,180,,,,,,,,,,,,,,,,,,,,,,,,,,,,,,,,,,,,,,,,,,,,,,,,,,,,,,,,,,,,,,,,,,,,,
,,0128,12,xxx,F,22,2024-02-29_19h48.15.165,MouseEye_CC,2023.2.2,MacIntel,60.24096386,0.594856474,,,1920,1080,32.267,2.94,"326.41, 323.49, 315.41, 317.84, 317.26, 302.56, 300.91",532.76,5.6322258,16.55874385,27.83653633,Passed,55.47179191,,,,,,,,,,,,,,,,,,,,practice,0,4,180,right,s,,,,,76.7507,77.116,16.65598127,-0.89453125,-2.83203125,1,0,0,0.365,fixationPoint,77.116,77.2174,77.2175,78.5333,16.65598127,4758.851793,286.7208205,s,1,1.3013,,78.5334,78.7333,0,3,3,3,1,4,sparse,76,19,-128,159,121,214,216,219,165,-218,159,-162,126,-219,119,-169,-116,-111,-31,-175,-206,18,-208,81,-114,90,270,180,180,270,180,360,360,360,270,360,,,,,,,,,,,,,,,,,,,,,,,,,,,,,,,,,,,,,,,,,,,,,,,,,,,,,,,,,,,,,,,,,,,,,
,,0128,12,xxx,F,22,2024-02-29_19h48.15.165,MouseEye_CC,2023.2.2,MacIntel,60.24096386,0.594856474,,,1920,1080,32.267,2.94,"326.41, 323.49, 315.41, 317.84, 317.26, 302.56, 300.91",532.76,5.6322258,16.55874385,27.83653633,Passed,55.47179191,,,,,,,,,,,,,,,,,,,,practice,0,5,180,right,s,,,,,78.734,79.1161,16.65598127,-0.89453125,-2.83203125,1,0,0,0.382,fixationPoint,79.1161,79.2163,79.2163,80.0502,16.65598127,4758.851793,286.7208205,s,1,0.8176,,80.0503,80.2496,0,4,4,4,1,3,sparse,85,-19,-173,219,165,68,123,214,216,-160,68,-64,120,-226,34,162,-21,224,-216,167,-163,-167,-74,-224,-216,360,360,360,90,180,270,90,360,270,270,360,,,,,,,,,,,,,,,,,,,,,,,,,,,,,,,,,,,,,,,,,,,,,,,,,,,,,,,,,,,,,,,,,,,,,
,,0128,12,xxx,F,22,2024-02-29_19h48.15.165,MouseEye_CC,2023.2.2,MacIntel,60.24096386,0.594856474,,,1920,1080,32.267,2.94,"326.41, 323.49, 315.41, 317.84, 317.26, 302.56, 300.91",532.76,5.6322258,16.55874385,27.83653633,Passed,55.47179191,,,,,,,,,,,,,,,,,,,,practice,0,6,180,right,s,,,,,80.2503,80.4499,16.65598127,-1.09765625,-3.14453125,1,0,0,0.1996,fixationPoint,80.4499,80.5505,80.5505,83.0345,16.65598127,4758.851793,286.7208205,s,1,2.467,,83.0345,83.2336,0,5,5,5,1,3,sparse,95,-21,-224,126,172,219,165,166,26,-166,207,-223,206,-219,119,169,-75,18,-208,224,-216,-72,-121,-115,-130,180,180,360,180,360,180,270,180,90,180,360,,,,,,,,,,,,,,,,,,,,,,,,,,,,,,,,,,,,,,,,,,,,,,,,,,,,,,,,,,,,,,,,,,,,,
,,0128,12,xxx,F,22,2024-02-29_19h48.15.165,MouseEye_CC,2023.2.2,MacIntel,60.24096386,0.594856474,,,1920,1080,32.267,2.94,"326.41, 323.49, 315.41, 317.84, 317.26, 302.56, 300.91",532.76,5.6322258,16.55874385,27.83653633,Passed,55.47179191,,,,,,,,,,,,,,,,,,,,practice,0,7,0,left,a,,,,,83.2343,83.6005,16.65598127,-1.4140625,-3.921875,1,0,0,0.366,fixationPoint,83.6006,83.7026,83.7026,85.7674,16.65598127,4758.851793,286.7208205,a,1,2.0515,,85.7674,85.9678,0,6,6,6,1,1,rich,7,62,223,-166,207,-226,34,-162,126,-169,-116,-168,-160,-161,-27,15,-162,162,-21,79,-175,219,165,219,129,180,180,360,180,270,360,180,360,270,180,360,,,,,,,,,,,,,,,,,,,,,,,,,,,,,,,,,,,,,,,,,,,,,,,,,,,,,,,,,,,,,,,,,,,,,
,,0128,12,xxx,F,22,2024-02-29_19h48.15.165,MouseEye_CC,2023.2.2,MacIntel,60.24096386,0.594856474,,,1920,1080,32.267,2.94,"326.41, 323.49, 315.41, 317.84, 317.26, 302.56, 300.91",532.76,5.6322258,16.55874385,27.83653633,Passed,55.47179191,,,,,,,,,,,,,,,,,,,,practice,0,8,180,right,s,,,,,85.9683,86.3003,16.65598127,-3.4765625,-2.91015625,1,0,0,0.3318,fixationPoint,86.3004,86.3999,86.3999,87.5679,16.65598127,4758.851793,286.7208205,s,1,1.1461,,87.568,87.7667,0,7,7,7,1,2,sparse,24,-64,120,18,215,126,172,33,121,-206,-170,-64,-162,-218,-78,130,-174,211,-74,168,-130,-164,32,-21,162,90,180,270,360,180,90,180,180,180,360,270,,,,,,,,,,,,,,,,,,,,,,,,,,,,,,,,,,,,,,,,,,,,,,,,,,,,,,,,,,,,,,,,,,,,,
,,0128,12,xxx,F,22,2024-02-29_19h48.15.165,MouseEye_CC,2023.2.2,MacIntel,60.24096386,0.594856474,,,1920,1080,32.267,2.94,"326.41, 323.49, 315.41, 317.84, 317.26, 302.56, 300.91",532.76,5.6322258,16.55874385,27.83653633,Passed,55.47179191,,,,,,,,,,,,,,,,,,,,practice,0,9,180,right,s,,,,,87.7673,88.0672,16.65598127,2.76171875,-3.984375,1,0,0,0.2999,fixationPoint,88.0673,88.167,88.1671,89.9678,16.65598127,4758.851793,286.7208205,s,1,1.783,,89.9679,90.1701,0,8,8,8,1,3,sparse,85,-19,-173,127,30,62,223,217,67,-110,82,-21,162,-80,218,167,-163,126,-79,130,-174,-125,-167,-68,-219,360,360,360,180,360,360,180,270,90,360,180,,,,,,,,,,,,,,,,,,,,,,,,,,,,,,,,,,,,,,,,,,,,,,,,,,,,,,,,,,,,,,,,,,,,,
,,0128,12,xxx,F,22,2024-02-29_19h48.15.165,MouseEye_CC,2023.2.2,MacIntel,60.24096386,0.594856474,,,1920,1080,32.267,2.94,"326.41, 323.49, 315.41, 317.84, 317.26, 302.56, 300.91",532.76,5.6322258,16.55874385,27.83653633,Passed,55.47179191,,,,,,,,,,,,,,,,,,,,practice,0,10,180,right,s,,,,,90.1708,90.3671,16.65598127,1.69921875,-4.73046875,1,0,0,0.1962,fixationPoint,90.3672,90.4701,90.4701,92.3534,16.65598127,4758.851793,286.7208205,s,1,1.8679,,92.3535,92.552,0,9,9,9,1,1,rich,9,160,209,-166,207,-226,34,-120,223,-224,-120,-118,-217,-218,-78,112,-209,126,-113,169,-75,178,160,110,129,180,90,90,270,360,270,360,180,360,180,360,,,,,,,,,,,,,,,,,,,,,,,,,,,,,,,,,,,,,,,,,,,,,,,,,,,,,,,,,,,,,,,,,,,,,
,,0128,12,xxx,F,22,2024-02-29_19h48.15.165,MouseEye_CC,2023.2.2,MacIntel,60.24096386,0.594856474,,,1920,1080,32.267,2.94,"326.41, 323.49, 315.41, 317.84, 317.26, 302.56, 300.91",532.76,5.6322258,16.55874385,27.83653633,Passed,55.47179191,,,,,,,,,,,,,,,,,,,,practice,0,11,180,right,s,,,,,92.5527,92.7029,16.65598127,-0.515625,-5.921875,1,0,0,0.15,fixationPoint,92.7029,92.8022,92.8022,94.2521,16.65598127,4758.851793,286.7208205,s,1,1.4348,,94.2523,94.4529,0,10,10,10,1,4,sparse,80,218,-129,62,223,159,121,110,129,-218,159,-223,206,-75,173,-169,-116,-118,-217,-125,-167,217,-164,169,-75,360,270,360,180,360,180,180,270,360,180,90,,,,,,,,,,,,,,,,,,,,,,,,,,,,,,,,,,,,,,,,,,,,,,,,,,,,,,,,,,,,,,,,,,,,,
,,0128,12,xxx,F,22,2024-02-29_19h48.15.165,MouseEye_CC,2023.2.2,MacIntel,60.24096386,0.594856474,,,1920,1080,32.267,2.94,"326.41, 323.49, 315.41, 317.84, 317.26, 302.56, 300.91",532.76,5.6322258,16.55874385,27.83653633,Passed,55.47179191,,,,,,,,,,,,,,,,,,,,practice,0,12,0,left,a,,,,,94.4537,95.0527,16.65598127,4.58203125,1.5625,1,0,0,0.5989,fixationPoint,95.0528,95.1512,95.1512,96.7363,16.65598127,4758.851793,286.7208205,a,1,1.569,,96.7363,96.9361,0,11,11,11,1,3,sparse,75,-25,-117,110,129,125,63,214,216,-164,32,-27,117,-126,125,171,-218,126,-113,167,-163,-21,-224,-212,-21,270,180,180,360,180,270,360,270,360,180,270,,,,,,,,,,,,,,,,,,,,,,,,,,,,,,,,,,,,,,,,,,,,,,,,,,,,,,,,,,,,,,,,,,,,,
,,0128,12,xxx,F,22,2024-02-29_19h48.15.165,MouseEye_CC,2023.2.2,MacIntel,60.24096386,0.594856474,,,1920,1080,32.267,2.94,"326.41, 323.49, 315.41, 317.84, 317.26, 302.56, 300.91",532.76,5.6322258,16.55874385,27.83653633,Passed,55.47179191,,,,,,,,,,,,,,,,,,,,,,,,,,,,,,,,,,,,,,,,,,,,,,,,,,,,,,,,,,,,,,,,,,,,,,,,,,,,,,,,,,,,,,,,,,,,,,,,96.9374,97.8044,a,1,0.8384,,,,,,,,,,,,,,,,,,,,,,,,,,,,,,,,,,,,,,,,,,,,,,,,,,,,,,,,,,,,,,,,
,,0128,12,xxx,F,22,2024-02-29_19h48.15.165,MouseEye_CC,2023.2.2,MacIntel,60.24096386,0.594856474,,,1920,1080,32.267,2.94,"326.41, 323.49, 315.41, 317.84, 317.26, 302.56, 300.91",532.76,5.6322258,16.55874385,27.83653633,Passed,55.47179191,,,,,,,,,,,,,,,,,,,,,,,,,,,,,,,,,,,,,,,,,,,,,,,,,,,,,,,,,,,,,,,,,,,,,,,,,,,,,,,,,,,,,,,,,,,,,,,,,,,,,,97.8046,100.7735,,,,,,,,,,,,,,,,,,,,,,,,,,,,,,,,,,,,,,,,,,,,,,,,,,,,,,,,,,,,,
,,0128,12,xxx,F,22,2024-02-29_19h48.15.165,MouseEye_CC,2023.2.2,MacIntel,60.24096386,0.594856474,,,1920,1080,32.267,2.94,"326.41, 323.49, 315.41, 317.84, 317.26, 302.56, 300.91",532.76,5.6322258,16.55874385,27.83653633,Passed,55.47179191,,,,,,,,,,,,,,,,,,,,,,,,,,,,,,,,,,,,,,,,,,,,,,,,,,,,,,,,,,,,,,,,,,,,,,,,,,,,,,,,,,,,,,,,,,,,,,,,,,,,,,,,100.7736,107.4908,,,,,,,,,,,,,,,,,,,,,,,,,,,,,,,,,,,,,,,,,,,,,,,,,,,,,,,,,,,
,,0128,12,xxx,F,22,2024-02-29_19h48.15.165,MouseEye_CC,2023.2.2,MacIntel,60.24096386,0.594856474,,,1920,1080,32.267,2.94,"326.41, 323.49, 315.41, 317.84, 317.26, 302.56, 300.91",532.76,5.6322258,16.55874385,27.83653633,Passed,55.47179191,,,,,,,,,,,,,,,,,,,,training,1,1,0,left,a,,,,,107.5509,108.7571,16.65598127,5.0078125,-2.43359375,1,0,0,1.206,fixationPoint,108.7571,108.8569,108.8569,110.3414,16.65598127,4758.851793,286.7208205,a,1,1.4766,,110.3416,110.5421,,,,,,,,18,113,168,-73,160,-116,66,-124,163,-120,-32,-114,-214,-32,-121,24,-166,169,-117,211,-128,164,29,17,212,270,360,270,270,180,360,90,270,270,180,90,,,,,,,,,,,110.5429,110.5458,,0,0,0,0,1,1,repeated,,,,,,,,,,,,,,,,,,,,,,,,,,,,,,,,,,,,,,,,,,,,,,,,,
,,0128,12,xxx,F,22,2024-02-29_19h48.15.165,MouseEye_CC,2023.2.2,MacIntel,60.24096386,0.594856474,,,1920,1080,32.267,2.94,"326.41, 323.49, 315.41, 317.84, 317.26, 302.56, 300.91",532.76,5.6322258,16.55874385,27.83653633,Passed,55.47179191,,,,,,,,,,,,,,,,,,,,training,1,2,180,right,s,,,,,110.5463,110.8116,16.65598127,5.0078125,-2.43359375,1,0,0,0.2652,fixationPoint,110.8117,110.9114,110.9115,113.31,16.65598127,4758.851793,286.7208205,s,1,2.3852,,113.31,113.5118,,,,,,,,83,-123,-161,220,121,79,165,164,29,-124,118,-160,124,-171,68,69,-213,214,-28,128,-25,-161,-171,-64,-164,360,360,90,90,270,360,90,180,360,270,180,,,,,,,,,,,113.5119,113.5122,,0,1,1,1,1,9,novel,,,,,,,,,,,,,,,,,,,,,,,,,,,,,,,,,,,,,,,,,,,,,,,,,
,,0128,12,xxx,F,22,2024-02-29_19h48.15.165,MouseEye_CC,2023.2.2,MacIntel,60.24096386,0.594856474,,,1920,1080,32.267,2.94,"326.41, 323.49, 315.41, 317.84, 317.26, 302.56, 300.91",532.76,5.6322258,16.55874385,27.83653633,Passed,55.47179191,,,,,,,,,,,,,,,,,,,,training,1,3,180,right,s,,,,,113.5128,113.7127,16.65598127,3.4765625,-2.43359375,1,0,0,0.1998,fixationPoint,113.7127,113.8112,113.8113,114.5286,16.65598127,4758.851793,286.7208205,s,1,0.7115,,114.5286,114.7272,,,,,,,,33,-116,66,164,29,172,166,172,76,-123,-161,-163,-69,-21,-172,120,-120,162,-65,210,-74,-166,163,-75,222,270,360,180,180,90,360,180,180,360,270,270,,,,,,,,,,,114.7273,114.7276,,0,2,2,2,1,3,repeated,,,,,,,,,,,,,,,,,,,,,,,,,,,,,,,,,,,,,,,,,,,,,,,,,
,,0128,12,xxx,F,22,2024-02-29_19h48.15.165,MouseEye_CC,2023.2.2,MacIntel,60.24096386,0.594856474,,,1920,1080,32.267,2.94,"326.41, 323.49, 315.41, 317.84, 317.26, 302.56, 300.91",532.76,5.6322258,16.55874385,27.83653633,Passed,55.47179191,,,,,,,,,,,,,,,,,,,,training,1,4,0,left,a,,,,,114.728,115.0113,16.65598127,1.8203125,-2.43359375,1,0,0,0.2831,fixationPoint,115.0113,115.1122,115.1122,116.0299,16.65598127,4758.851793,286.7208205,a,1,0.9054,,116.0299,116.2261,,,,,,,,69,162,-65,218,74,172,76,121,68,-160,124,-124,118,-209,25,-28,-70,-120,-32,-123,-161,114,-68,67,-164,180,180,270,270,90,90,90,180,90,360,360,,,,,,,,,,,116.2261,116.2264,,0,3,3,3,1,8,repeated,,,,,,,,,,,,,,,,,,,,,,,,,,,,,,,,,,,,,,,,,,,,,,,,,
,,0128,12,xxx,F,22,2024-02-29_19h48.15.165,MouseEye_CC,2023.2.2,MacIntel,60.24096386,0.594856474,,,1920,1080,32.267,2.94,"326.41, 323.49, 315.41, 317.84, 317.26, 302.56, 300.91",532.76,5.6322258,16.55874385,27.83653633,Passed,55.47179191,,,,,,,,,,,,,,,,,,,,training,1,5,180,right,s,,,,,116.2269,116.4108,16.65598127,1.8203125,-2.85546875,1,0,0,0.1839,fixationPoint,116.4109,116.5116,116.5116,119.0608,16.65598127,4758.851793,286.7208205,s,1,2.5358,,119.0609,119.2612,,,,,,,,63,-124,-64,118,16,113,168,121,68,-160,124,-209,25,-32,76,64,-80,116,-167,174,-216,-224,-25,-79,-222,180,360,180,90,180,90,360,270,360,90,90,,,,,,,,,,,119.2613,119.2614,,0,4,4,4,1,10,novel,,,,,,,,,,,,,,,,,,,,,,,,,,,,,,,,,,,,,,,,,,,,,,,,,
,,0128,12,xxx,F,22,2024-02-29_19h48.15.165,MouseEye_CC,2023.2.2,MacIntel,60.24096386,0.594856474,,,1920,1080,32.267,2.94,"326.41, 323.49, 315.41, 317.84, 317.26, 302.56, 300.91",532.76,5.6322258,16.55874385,27.83653633,Passed,55.47179191,,,,,,,,,,,,,,,,,,,,training,1,6,0,left,a,,,,,119.2618,119.5601,16.65598127,0.34375,-4.83984375,1,0,0,0.2983,fixationPoint,119.5601,119.6619,119.6619,121.8129,16.65598127,4758.851793,286.7208205,a,1,2.1445,,121.8131,122.0125,,,,,,,,38,121,68,-75,222,-28,32,-171,68,-215,-162,-215,-64,-216,-128,21,-72,24,-166,210,-74,79,165,172,166,90,90,180,360,270,90,270,270,270,360,360,,,,,,,,,,,122.0126,122.0132,,0,5,5,5,1,2,repeated,,,,,,,,,,,,,,,,,,,,,,,,,,,,,,,,,,,,,,,,,,,,,,,,,
,,0128,12,xxx,F,22,2024-02-29_19h48.15.165,MouseEye_CC,2023.2.2,MacIntel,60.24096386,0.594856474,,,1920,1080,32.267,2.94,"326.41, 323.49, 315.41, 317.84, 317.26, 302.56, 300.91",532.76,5.6322258,16.55874385,27.83653633,Passed,55.47179191,,,,,,,,,,,,,,,,,,,,training,1,7,0,left,a,,,,,122.0137,122.3132,16.65598127,-3.1484375,-4.83984375,1,0,0,0.2994,fixationPoint,122.3134,122.4136,122.4136,123.5967,16.65598127,4758.851793,286.7208205,a,1,1.1659,,123.5968,123.7967,,,,,,,,30,220,121,-18,114,-169,16,-20,165,-123,-161,-114,-214,-215,-64,162,-65,210,-74,26,-209,172,76,172,166,90,270,270,270,90,180,90,360,360,180,360,,,,,,,,,,,123.7968,123.7971,,0,6,6,6,1,14,novel,,,,,,,,,,,,,,,,,,,,,,,,,,,,,,,,,,,,,,,,,,,,,,,,,
,,0128,12,xxx,F,22,2024-02-29_19h48.15.165,MouseEye_CC,2023.2.2,MacIntel,60.24096386,0.594856474,,,1920,1080,32.267,2.94,"326.41, 323.49, 315.41, 317.84, 317.26, 302.56, 300.91",532.76,5.6322258,16.55874385,27.83653633,Passed,55.47179191,,,,,,,,,,,,,,,,,,,,training,1,8,180,right,s,,,,,123.7977,123.9773,16.65598127,-3.75390625,-4.83984375,1,0,0,0.1795,fixationPoint,123.9773,124.0807,124.0807,125.2301,16.65598127,4758.851793,286.7208205,s,1,1.1295,,125.2301,125.4297,,,,,,,,32,-171,68,27,67,79,165,220,121,-69,-24,-114,-214,-64,-164,162,-65,174,-216,21,-72,-170,218,-216,126,180,180,90,270,180,270,90,360,360,90,180,,,,,,,,,,,125.4297,125.4301,,0,7,7,7,1,16,novel,,,,,,,,,,,,,,,,,,,,,,,,,,,,,,,,,,,,,,,,,,,,,,,,,
,,0128,12,xxx,F,22,2024-02-29_19h48.15.165,MouseEye_CC,2023.2.2,MacIntel,60.24096386,0.594856474,,,1920,1080,32.267,2.94,"326.41, 323.49, 315.41, 317.84, 317.26, 302.56, 300.91",532.76,5.6322258,16.55874385,27.83653633,Passed,55.47179191,,,,,,,,,,,,,,,,,,,,training,1,9,180,right,s,,,,,125.4306,125.7632,16.65598127,-3.75390625,-5.2578125,1,0,0,0.3325,fixationPoint,125.7632,125.8636,125.8637,127.0131,16.65598127,4758.851793,286.7208205,s,1,1.1268,,127.0132,127.2115,,,,,,,,68,114,-68,22,114,118,16,127,120,-28,32,-170,218,-209,25,-215,-162,-123,-161,-163,-69,210,-74,171,-24,270,360,180,180,270,180,90,90,90,270,360,,,,,,,,,,,127.2116,127.2117,,0,8,8,8,1,11,novel,,,,,,,,,,,,,,,,,,,,,,,,,,,,,,,,,,,,,,,,,,,,,,,,,
,,0128,12,xxx,F,22,2024-02-29_19h48.15.165,MouseEye_CC,2023.2.2,MacIntel,60.24096386,0.594856474,,,1920,1080,32.267,2.94,"326.41, 323.49, 315.41, 317.84, 317.26, 302.56, 300.91",532.76,5.6322258,16.55874385,27.83653633,Passed,55.47179191,,,,,,,,,,,,,,,,,,,,training,1,10,0,left,a,,,,,127.2122,127.5952,16.65598127,-3.1015625,-4.94921875,1,0,0,0.3828,fixationPoint,127.5952,127.6961,127.6962,128.6131,16.65598127,4758.851793,286.7208205,a,1,0.8947,,128.6133,128.8133,,,,,,,,49,164,29,-18,114,-166,163,-32,76,-32,-121,-64,-164,-70,-73,224,-223,26,-20,78,-16,114,208,220,121,180,90,270,90,270,360,90,270,180,270,270,,,,,,,,,,,128.8134,128.8136,,0,9,9,9,1,13,novel,,,,,,,,,,,,,,,,,,,,,,,,,,,,,,,,,,,,,,,,,,,,,,,,,
,,0128,12,xxx,F,22,2024-02-29_19h48.15.165,MouseEye_CC,2023.2.2,MacIntel,60.24096386,0.594856474,,,1920,1080,32.267,2.94,"326.41, 323.49, 315.41, 317.84, 317.26, 302.56, 300.91",532.76,5.6322258,16.55874385,27.83653633,Passed,55.47179191,,,,,,,,,,,,,,,,,,,,training,1,11,0,left,a,,,,,128.8141,129.246,16.65598127,-2.1171875,-4.94921875,1,0,0,0.4317,fixationPoint,129.246,129.3457,129.3458,130.0794,16.65598127,4758.851793,286.7208205,a,1,0.7203,,130.0796,130.2796,,,,,,,,42,-169,16,72,114,113,168,27,67,-215,-64,-216,-220,-215,-162,214,-28,114,-68,116,-167,-116,66,-124,118,270,270,180,360,360,90,270,360,360,180,180,,,,,,,,,,,130.2796,130.2798,,0,10,10,10,1,4,repeated,,,,,,,,,,,,,,,,,,,,,,,,,,,,,,,,,,,,,,,,,,,,,,,,,
,,0128,12,xxx,F,22,2024-02-29_19h48.15.165,MouseEye_CC,2023.2.2,MacIntel,60.24096386,0.594856474,,,1920,1080,32.267,2.94,"326.41, 323.49, 315.41, 317.84, 317.26, 302.56, 300.91",532.76,5.6322258,16.55874385,27.83653633,Passed,55.47179191,,,,,,,,,,,,,,,,,,,,training,1,12,180,right,s,,,,,130.2803,130.5794,16.65598127,-0.28515625,-3.8984375,1,0,0,0.299,fixationPoint,130.5794,130.6792,130.6792,131.583,16.65598127,4758.851793,286.7208205,s,1,0.8903,,131.583,131.7843,,,,,,,,71,-216,-128,164,29,22,28,16,173,-73,160,-169,16,-160,124,214,-28,174,-216,219,-168,-161,-171,-69,-24,270,180,180,360,90,180,90,270,270,270,270,,,,,,,,,,,131.7843,131.7847,,0,11,11,11,1,6,repeated,,,,,,,,,,,,,,,,,,,,,,,,,,,,,,,,,,,,,,,,,,,,,,,,,
,,0128,12,xxx,F,22,2024-02-29_19h48.15.165,MouseEye_CC,2023.2.2,MacIntel,60.24096386,0.594856474,,,1920,1080,32.267,2.94,"326.41, 323.49, 315.41, 317.84, 317.26, 302.56, 300.91",532.76,5.6322258,16.55874385,27.83653633,Passed,55.47179191,,,,,,,,,,,,,,,,,,,,training,1,13,0,left,a,,,,,131.7852,132.1643,16.65598127,-0.28515625,-3.8984375,1,0,0,0.379,fixationPoint,132.1643,132.2672,132.2672,134.6007,16.65598127,4758.851793,286.7208205,a,1,2.3178,,134.6008,134.7996,,,,,,,,52,-163,-20,27,67,215,164,164,29,-160,124,-212,70,-171,68,169,-117,80,-115,116,-167,-163,-69,-216,-128,180,270,90,360,180,270,360,360,90,270,360,,,,,,,,,,,134.7998,134.8,,0,12,12,12,1,5,repeated,,,,,,,,,,,,,,,,,,,,,,,,,,,,,,,,,,,,,,,,,,,,,,,,,
,,0128,12,xxx,F,22,2024-02-29_19h48.15.165,MouseEye_CC,2023.2.2,MacIntel,60.24096386,0.594856474,,,1920,1080,32.267,2.94,"326.41, 323.49, 315.41, 317.84, 317.26, 302.56, 300.91",532.76,5.6322258,16.55874385,27.83653633,Passed,55.47179191,,,,,,,,,,,,,,,,,,,,training,1,14,180,right,s,,,,,134.8007,135.9008,16.65598127,-0.28515625,-3.8984375,1,0,0,1.1,fixationPoint,135.9008,136.0001,136.0001,137.3826,16.65598127,4758.851793,286.7208205,s,1,1.368,,137.3828,137.5832,,,,,,,,78,120,-120,72,114,79,165,172,76,-68,21,-212,70,-116,214,-69,-24,-168,-124,-163,-69,174,-216,69,-213,270,360,270,360,180,360,180,180,360,360,270,,,,,,,,,,,137.5833,137.5835,,0,13,13,13,1,7,repeated,,,,,,,,,,,,,,,,,,,,,,,,,,,,,,,,,,,,,,,,,,,,,,,,,
,,0128,12,xxx,F,22,2024-02-29_19h48.15.165,MouseEye_CC,2023.2.2,MacIntel,60.24096386,0.594856474,,,1920,1080,32.267,2.94,"326.41, 323.49, 315.41, 317.84, 317.26, 302.56, 300.91",532.76,5.6322258,16.55874385,27.83653633,Passed,55.47179191,,,,,,,,,,,,,,,,,,,,training,1,15,180,right,s,,,,,137.5841,137.8973,16.65598127,-2.55078125,-3.8984375,1,0,0,0.3131,fixationPoint,137.8973,138.0003,138.0003,139.1171,16.65598127,4758.851793,286.7208205,s,1,1.1008,,139.1172,139.3166,,,,,,,,23,-124,118,22,28,17,212,118,16,-163,-20,-163,-69,-29,-210,69,-213,26,-209,67,-164,-80,79,-32,76,180,270,180,90,90,360,90,90,270,270,90,,,,,,,,,,,139.3166,139.3169,,0,14,14,14,1,15,novel,,,,,,,,,,,,,,,,,,,,,,,,,,,,,,,,,,,,,,,,,,,,,,,,,
,,0128,12,xxx,F,22,2024-02-29_19h48.15.165,MouseEye_CC,2023.2.2,MacIntel,60.24096386,0.594856474,,,1920,1080,32.267,2.94,"326.41, 323.49, 315.41, 317.84, 317.26, 302.56, 300.91",532.76,5.6322258,16.55874385,27.83653633,Passed,55.47179191,,,,,,,,,,,,,,,,,,,,training,1,16,0,left,a,,,,,139.3176,139.6006,16.65598127,-4.08984375,-3.69921875,1,0,0,0.2828,fixationPoint,139.6006,139.7007,139.7008,140.9673,16.65598127,4758.851793,286.7208205,a,1,1.2509,,140.9674,141.1698,,,,,,,,59,171,-24,121,68,216,16,172,76,-18,114,-169,16,-73,160,-69,-24,-175,-223,-161,-171,210,-74,116,-167,360,270,360,180,270,180,90,90,180,180,360,,,,,,,,,,,141.1699,143.5847,space,0,15,15,15,1,12,novel,2.3848,,,,,,,,,,,,,,,,,,,,,,,,,,,,,,,,,,,,,,,,,,,,,,,,
,,0128,12,xxx,F,22,2024-02-29_19h48.15.165,MouseEye_CC,2023.2.2,MacIntel,60.24096386,0.594856474,,,1920,1080,32.267,2.94,"326.41, 323.49, 315.41, 317.84, 317.26, 302.56, 300.91",532.76,5.6322258,16.55874385,27.83653633,Passed,55.47179191,,,,,,,,,,,,,,,,,,,,training,2,1,0,left,a,,,,,143.5851,144.3675,16.65598127,1.69921875,5.94921875,1,0,0,0.7823,fixationPoint,144.3676,144.4688,144.4688,145.3846,16.65598127,4758.851793,286.7208205,a,1,0.9007,,145.3848,145.5852,,,,,,,,83,-123,-161,72,114,22,114,22,28,-116,66,-171,68,-68,21,219,-168,224,-223,171,-24,-163,-69,-23,-24,180,270,270,270,270,270,360,270,90,180,360,,,,,,,,,,,145.5853,145.5866,,0,16,16,16,1,9,novel,,,,,,,,,,,,,,,,,,,,,,,,,,,,,,,,,,,,,,,,,,,,,,,,,
,,0128,12,xxx,F,22,2024-02-29_19h48.15.165,MouseEye_CC,2023.2.2,MacIntel,60.24096386,0.594856474,,,1920,1080,32.267,2.94,"326.41, 323.49, 315.41, 317.84, 317.26, 302.56, 300.91",532.76,5.6322258,16.55874385,27.83653633,Passed,55.47179191,,,,,,,,,,,,,,,,,,,,training,2,2,0,left,a,,,,,145.587,145.9853,16.65598127,-0.12109375,4.29296875,1,0,0,0.3982,fixationPoint,145.9854,146.0851,146.0852,147.4364,16.65598127,4758.851793,286.7208205,a,1,1.3343,,147.4365,147.6377,,,,,,,,42,-169,16,72,114,113,168,27,67,-215,-64,-216,-220,-215,-162,214,-28,114,-68,116,-167,-116,66,-124,118,270,360,360,90,180,270,360,90,180,360,90,,,,,,,,,,,147.6377,147.6378,,0,17,17,17,1,4,repeated,,,,,,,,,,,,,,,,,,,,,,,,,,,,,,,,,,,,,,,,,,,,,,,,,
,,0128,12,xxx,F,22,2024-02-29_19h48.15.165,MouseEye_CC,2023.2.2,MacIntel,60.24096386,0.594856474,,,1920,1080,32.267,2.94,"326.41, 323.49, 315.41, 317.84, 317.26, 302.56, 300.91",532.76,5.6322258,16.55874385,27.83653633,Passed,55.47179191,,,,,,,,,,,,,,,,,,,,training,2,3,0,left,a,,,,,147.6383,148.0195,16.65598127,-0.26953125,1.015625,1,0,0,0.3811,fixationPoint,148.0195,148.1199,148.12,149.5865,16.65598127,4758.851793,286.7208205,a,1,1.4505,,149.5865,149.7845,,,,,,,,71,-216,-128,164,29,22,28,16,173,-73,160,-169,16,-160,124,214,-28,174,-216,219,-168,-161,-171,-69,-24,270,360,90,360,180,90,360,360,180,360,180,,,,,,,,,,,149.7845,149.7847,,0,18,18,18,1,6,repeated,,,,,,,,,,,,,,,,,,,,,,,,,,,,,,,,,,,,,,,,,,,,,,,,,
,,0128,12,xxx,F,22,2024-02-29_19h48.15.165,MouseEye_CC,2023.2.2,MacIntel,60.24096386,0.594856474,,,1920,1080,32.267,2.94,"326.41, 323.49, 315.41, 317.84, 317.26, 302.56, 300.91",532.76,5.6322258,16.55874385,27.83653633,Passed,55.47179191,,,,,,,,,,,,,,,,,,,,training,2,4,0,left,a,,,,,149.7853,150.0367,16.65598127,-2.046875,-0.546875,1,0,0,0.2512,fixationPoint,150.0367,150.1361,150.1361,151.5385,16.65598127,4758.851793,286.7208205,a,1,1.3948,,151.5386,151.738,,,,,,,,23,-124,118,68,212,216,16,215,164,-121,-128,-70,-73,-163,-69,78,-16,26,-20,210,-74,-216,217,-28,32,180,90,270,360,270,360,180,90,270,360,360,,,,,,,,,,,151.738,151.7382,,0,19,19,19,1,15,novel,,,,,,,,,,,,,,,,,,,,,,,,,,,,,,,,,,,,,,,,,,,,,,,,,
,,0128,12,xxx,F,22,2024-02-29_19h48.15.165,MouseEye_CC,2023.2.2,MacIntel,60.24096386,0.594856474,,,1920,1080,32.267,2.94,"326.41, 323.49, 315.41, 317.84, 317.26, 302.56, 300.91",532.76,5.6322258,16.55874385,27.83653633,Passed,55.47179191,,,,,,,,,,,,,,,,,,,,training,2,5,180,right,s,,,,,151.7389,152.0056,16.65598127,-2.671875,-0.9609375,1,0,0,0.2666,fixationPoint,152.0056,152.1061,152.1061,153.1546,16.65598127,4758.851793,286.7208205,s,1,1.0346,,153.1547,153.3528,,,,,,,,63,-124,-64,210,221,65,80,218,74,-80,79,-212,70,-216,126,163,-175,26,-20,64,-80,-28,-70,-64,-164,360,180,360,360,360,180,90,90,270,180,270,,,,,,,,,,,153.3528,153.353,,0,20,20,20,1,10,novel,,,,,,,,,,,,,,,,,,,,,,,,,,,,,,,,,,,,,,,,,,,,,,,,,
,,0128,12,xxx,F,22,2024-02-29_19h48.15.165,MouseEye_CC,2023.2.2,MacIntel,60.24096386,0.594856474,,,1920,1080,32.267,2.94,"326.41, 323.49, 315.41, 317.84, 317.26, 302.56, 300.91",532.76,5.6322258,16.55874385,27.83653633,Passed,55.47179191,,,,,,,,,,,,,,,,,,,,training,2,6,0,left,a,,,,,153.3535,153.6718,16.65598127,-5.18359375,-1.609375,1,0,0,0.3182,fixationPoint,153.6719,153.7722,153.7723,155.5387,16.65598127,4758.851793,286.7208205,a,1,1.7574,,155.5387,155.7384,,,,,,,,68,114,-68,113,168,218,74,167,215,-116,66,-65,115,-124,118,-114,-214,-29,-210,-124,-64,171,-24,125,-215,270,360,90,360,90,90,180,270,180,270,360,,,,,,,,,,,155.7385,155.7388,,0,21,21,21,1,11,novel,,,,,,,,,,,,,,,,,,,,,,,,,,,,,,,,,,,,,,,,,,,,,,,,,
,,0128,12,xxx,F,22,2024-02-29_19h48.15.165,MouseEye_CC,2023.2.2,MacIntel,60.24096386,0.594856474,,,1920,1080,32.267,2.94,"326.41, 323.49, 315.41, 317.84, 317.26, 302.56, 300.91",532.76,5.6322258,16.55874385,27.83653633,Passed,55.47179191,,,,,,,,,,,,,,,,,,,,training,2,7,180,right,s,,,,,155.7391,156.0055,16.65598127,-5.58984375,-2.6875,1,0,0,0.2662,fixationPoint,156.0055,156.1054,156.1054,157.0555,16.65598127,4758.851793,286.7208205,s,1,0.9352,,157.0556,157.2545,,,,,,,,78,120,-120,72,114,79,165,172,76,-68,21,-212,70,-116,214,-69,-24,-168,-124,-163,-69,174,-216,69,-213,180,360,90,90,90,360,270,360,360,360,90,,,,,,,,,,,157.2545,157.2547,,0,22,22,22,1,7,repeated,,,,,,,,,,,,,,,,,,,,,,,,,,,,,,,,,,,,,,,,,,,,,,,,,
,,0128,12,xxx,F,22,2024-02-29_19h48.15.165,MouseEye_CC,2023.2.2,MacIntel,60.24096386,0.594856474,,,1920,1080,32.267,2.94,"326.41, 323.49, 315.41, 317.84, 317.26, 302.56, 300.91",532.76,5.6322258,16.55874385,27.83653633,Passed,55.47179191,,,,,,,,,,,,,,,,,,,,training,2,8,0,left,a,,,,,157.2555,157.5361,16.65598127,-5.58984375,-2.6875,1,0,0,0.2806,fixationPoint,157.5362,157.6382,157.6382,159.256,16.65598127,4758.851793,286.7208205,a,1,1.6005,,159.2561,159.4545,,,,,,,,38,121,68,-75,222,-28,32,-171,68,-215,-162,-215,-64,-216,-128,21,-72,24,-166,210,-74,79,165,172,166,360,90,90,360,180,180,270,360,360,270,360,,,,,,,,,,,159.4546,159.4547,,0,23,23,23,1,2,repeated,,,,,,,,,,,,,,,,,,,,,,,,,,,,,,,,,,,,,,,,,,,,,,,,,
,,0128,12,xxx,F,22,2024-02-29_19h48.15.165,MouseEye_CC,2023.2.2,MacIntel,60.24096386,0.594856474,,,1920,1080,32.267,2.94,"326.41, 323.49, 315.41, 317.84, 317.26, 302.56, 300.91",532.76,5.6322258,16.55874385,27.83653633,Passed,55.47179191,,,,,,,,,,,,,,,,,,,,training,2,9,0,left,a,,,,,159.455,159.6384,16.65598127,-3.0703125,-2.47265625,1,0,0,0.1833,fixationPoint,159.6385,159.739,159.739,160.4054,16.65598127,4758.851793,286.7208205,a,1,0.6607,,160.4055,160.606,,,,,,,,33,-116,66,164,29,172,166,172,76,-123,-161,-163,-69,-21,-172,120,-120,162,-65,210,-74,-166,163,-75,222,360,360,360,360,90,90,270,270,180,360,90,,,,,,,,,,,160.606,160.6062,,0,24,24,24,1,3,repeated,,,,,,,,,,,,,,,,,,,,,,,,,,,,,,,,,,,,,,,,,,,,,,,,,
,,0128,12,xxx,F,22,2024-02-29_19h48.15.165,MouseEye_CC,2023.2.2,MacIntel,60.24096386,0.594856474,,,1920,1080,32.267,2.94,"326.41, 323.49, 315.41, 317.84, 317.26, 302.56, 300.91",532.76,5.6322258,16.55874385,27.83653633,Passed,55.47179191,,,,,,,,,,,,,,,,,,,,training,2,10,180,right,s,,,,,160.6068,160.8254,16.65598127,-0.57421875,-2.47265625,1,0,0,0.2186,fixationPoint,160.8255,160.9256,160.9256,162.7246,16.65598127,4758.851793,286.7208205,s,1,1.7811,,162.7248,162.9217,,,,,,,,30,220,121,-211,161,-116,214,-209,25,-69,-24,-124,-64,-163,-69,171,-24,210,-74,125,-215,22,28,172,166,360,360,90,270,270,270,90,180,360,90,90,,,,,,,,,,,162.9217,162.922,,0,25,25,25,1,14,novel,,,,,,,,,,,,,,,,,,,,,,,,,,,,,,,,,,,,,,,,,,,,,,,,,
,,0128,12,xxx,F,22,2024-02-29_19h48.15.165,MouseEye_CC,2023.2.2,MacIntel,60.24096386,0.594856474,,,1920,1080,32.267,2.94,"326.41, 323.49, 315.41, 317.84, 317.26, 302.56, 300.91",532.76,5.6322258,16.55874385,27.83653633,Passed,55.47179191,,,,,,,,,,,,,,,,,,,,training,2,11,180,right,s,,,,,162.9225,163.173,16.65598127,-5.9453125,-3.16015625,1,0,0,0.2504,fixationPoint,163.173,163.275,163.275,165.7414,16.65598127,4758.851793,286.7208205,s,1,2.4606,,165.7415,165.9396,,,,,,,,52,-163,-20,27,67,215,164,164,29,-160,124,-212,70,-171,68,169,-117,80,-115,116,-167,-163,-69,-216,-128,180,90,90,180,90,270,270,180,360,360,360,,,,,,,,,,,165.9396,165.94,,0,26,26,26,1,5,repeated,,,,,,,,,,,,,,,,,,,,,,,,,,,,,,,,,,,,,,,,,,,,,,,,,
,,0128,12,xxx,F,22,2024-02-29_19h48.15.165,MouseEye_CC,2023.2.2,MacIntel,60.24096386,0.594856474,,,1920,1080,32.267,2.94,"326.41, 323.49, 315.41, 317.84, 317.26, 302.56, 300.91",532.76,5.6322258,16.55874385,27.83653633,Passed,55.47179191,,,,,,,,,,,,,,,,,,,,training,2,12,180,right,s,,,,,165.9407,166.1722,16.65598127,1.60546875,-3.16015625,1,0,0,0.2314,fixationPoint,166.1723,166.2737,166.2737,170.4904,16.65598127,4758.851793,286.7208205,s,1,4.2118,,170.4906,170.6893,,,,,,,,59,171,-24,164,29,218,74,113,168,-212,70,-65,115,-124,163,-28,-70,-224,-25,-23,-24,67,-164,69,-213,180,270,360,270,90,180,360,360,270,180,90,,,,,,,,,,,170.6894,170.6896,,0,27,27,27,1,12,novel,,,,,,,,,,,,,,,,,,,,,,,,,,,,,,,,,,,,,,,,,,,,,,,,,
,,0128,12,xxx,F,22,2024-02-29_19h48.15.165,MouseEye_CC,2023.2.2,MacIntel,60.24096386,0.594856474,,,1920,1080,32.267,2.94,"326.41, 323.49, 315.41, 317.84, 317.26, 302.56, 300.91",532.76,5.6322258,16.55874385,27.83653633,Passed,55.47179191,,,,,,,,,,,,,,,,,,,,training,2,13,180,right,s,,,,,170.69,171.0609,16.65598127,-3.2578125,-3.16015625,1,0,0,0.3708,fixationPoint,171.0609,171.1628,171.1628,175.0108,16.65598127,4758.851793,286.7208205,s,1,3.8367,,175.011,175.2117,,,,,,,,18,113,168,-73,160,-116,66,-124,163,-120,-32,-114,-214,-32,-121,24,-166,169,-117,211,-128,164,29,17,212,360,360,360,360,270,270,180,270,180,180,180,,,,,,,,,,,175.2119,175.2121,,0,28,28,28,1,1,repeated,,,,,,,,,,,,,,,,,,,,,,,,,,,,,,,,,,,,,,,,,,,,,,,,,
,,0128,12,xxx,F,22,2024-02-29_19h48.15.165,MouseEye_CC,2023.2.2,MacIntel,60.24096386,0.594856474,,,1920,1080,32.267,2.94,"326.41, 323.49, 315.41, 317.84, 317.26, 302.56, 300.91",532.76,5.6322258,16.55874385,27.83653633,Passed,55.47179191,,,,,,,,,,,,,,,,,,,,training,2,14,180,right,s,,,,,175.2127,175.8095,16.65598127,-10.01171875,-3.12890625,1,0,0,0.182,fixationPoint,175.8096,175.9126,175.9127,177.6787,16.65598127,4758.851793,286.7208205,s,1,1.7577,,177.6787,177.8789,,,,,,,,69,162,-65,218,74,172,76,121,68,-160,124,-124,118,-209,25,-28,-70,-120,-32,-123,-161,114,-68,67,-164,180,360,90,90,270,180,90,270,360,90,270,,,,,,,,,,,177.8789,177.8793,,0,29,29,29,1,8,repeated,,,,,,,,,,,,,,,,,,,,,,,,,,,,,,,,,,,,,,,,,,,,,,,,,
,,0128,12,xxx,F,22,2024-02-29_19h48.15.165,MouseEye_CC,2023.2.2,MacIntel,60.24096386,0.594856474,,,1920,1080,32.267,2.94,"326.41, 323.49, 315.41, 317.84, 317.26, 302.56, 300.91",532.76,5.6322258,16.55874385,27.83653633,Passed,55.47179191,,,,,,,,,,,,,,,,,,,,training,2,15,180,right,s,,,,,177.88,178.0593,16.65598127,5.671875,-3.12890625,1,0,0,0.1792,fixationPoint,178.0593,178.1592,178.1592,178.9929,16.65598127,4758.851793,286.7208205,s,1,0.8272,,178.9929,179.1956,,,,,,,,32,-171,68,215,164,79,165,172,166,-70,-73,-32,-121,-29,-210,169,-117,125,-215,78,-16,-166,163,-75,222,360,270,360,270,90,270,180,180,270,90,180,,,,,,,,,,,179.1957,179.1958,,0,30,30,30,1,16,novel,,,,,,,,,,,,,,,,,,,,,,,,,,,,,,,,,,,,,,,,,,,,,,,,,
,,0128,12,xxx,F,22,2024-02-29_19h48.15.165,MouseEye_CC,2023.2.2,MacIntel,60.24096386,0.594856474,,,1920,1080,32.267,2.94,"326.41, 323.49, 315.41, 317.84, 317.26, 302.56, 300.91",532.76,5.6322258,16.55874385,27.83653633,Passed,55.47179191,,,,,,,,,,,,,,,,,,,,training,2,16,0,left,a,,,,,179.1963,179.5952,16.65598127,2.625,-3.12890625,1,0,0,0.3987,fixationPoint,179.5953,179.6952,179.6952,180.8457,16.65598127,4758.851793,286.7208205,a,1,1.1382,,180.8459,181.0505,,,,,,,,49,164,29,-171,68,-75,222,-124,118,-224,-25,-28,-70,-76,-116,78,-16,174,-216,163,-175,68,212,16,173,270,90,180,270,180,360,90,180,90,180,360,,,,,,,,,,,181.0505,182.1498,space,0,31,31,31,1,13,novel,1.0823,,,,,,,,,,,,,,,,,,,,,,,,,,,,,,,,,,,,,,,,,,,,,,,,
,,0128,12,xxx,F,22,2024-02-29_19h48.15.165,MouseEye_CC,2023.2.2,MacIntel,60.24096386,0.594856474,,,1920,1080,32.267,2.94,"326.41, 323.49, 315.41, 317.84, 317.26, 302.56, 300.91",532.76,5.6322258,16.55874385,27.83653633,Passed,55.47179191,,,,,,,,,,,,,,,,,,,,training,3,1,180,right,s,,,,,182.1505,182.6828,16.65598127,0.50390625,-2.16796875,1,0,0,0.5322,fixationPoint,182.6829,182.7839,182.784,184.4665,16.65598127,4758.851793,286.7208205,s,1,1.6685,,184.4666,184.6667,,,,,,,,38,121,68,-75,222,-28,32,-171,68,-215,-162,-215,-64,-216,-128,21,-72,24,-166,210,-74,79,165,172,166,90,360,360,180,360,90,90,90,90,180,90,,,,,,,,,,,184.6668,184.6691,,0,32,32,32,1,2,repeated,,,,,,,,,,,,,,,,,,,,,,,,,,,,,,,,,,,,,,,,,,,,,,,,,
,,0128,12,xxx,F,22,2024-02-29_19h48.15.165,MouseEye_CC,2023.2.2,MacIntel,60.24096386,0.594856474,,,1920,1080,32.267,2.94,"326.41, 323.49, 315.41, 317.84, 317.26, 302.56, 300.91",532.76,5.6322258,16.55874385,27.83653633,Passed,55.47179191,,,,,,,,,,,,,,,,,,,,training,3,2,180,right,s,,,,,184.6695,184.9651,16.65598127,0.50390625,-2.16796875,1,0,0,0.2955,fixationPoint,184.9652,185.0636,185.0636,186.2145,16.65598127,4758.851793,286.7208205,a,0,1.1374,,186.2148,190.2156,,,,,,,,49,164,29,-18,114,-116,66,-80,79,-64,-164,-69,-24,-114,-214,211,-128,64,-80,171,-24,114,208,113,168,90,180,90,90,270,180,90,90,270,360,360,,,,,,,,,,,190.2157,190.2257,,0,33,33,33,1,13,novel,,,,,,,,,,,,,,,,,,,,,,,,,,,,,,,,,,,,,,,,,,,,,,,,,
,,0128,12,xxx,F,22,2024-02-29_19h48.15.165,MouseEye_CC,2023.2.2,MacIntel,60.24096386,0.594856474,,,1920,1080,32.267,2.94,"326.41, 323.49, 315.41, 317.84, 317.26, 302.56, 300.91",532.76,5.6322258,16.55874385,27.83653633,Passed,55.47179191,,,,,,,,,,,,,,,,,,,,training,3,3,0,left,a,,,,,190.226,190.6497,16.65598127,2.984375,0.5390625,1,0,0,0.4237,fixationPoint,190.6498,190.7504,190.7505,192.4043,16.65598127,4758.851793,286.7208205,a,1,1.6365,,192.4044,192.6034,,,,,,,,30,220,121,-28,32,-212,70,-116,214,-168,-124,-70,-73,-163,-20,26,-209,211,-128,116,-167,65,80,215,164,270,270,90,180,360,270,360,180,270,90,360,,,,,,,,,,,192.6034,192.6036,,0,34,34,34,1,14,novel,,,,,,,,,,,,,,,,,,,,,,,,,,,,,,,,,,,,,,,,,,,,,,,,,
,,0128,12,xxx,F,22,2024-02-29_19h48.15.165,MouseEye_CC,2023.2.2,MacIntel,60.24096386,0.594856474,,,1920,1080,32.267,2.94,"326.41, 323.49, 315.41, 317.84, 317.26, 302.56, 300.91",532.76,5.6322258,16.55874385,27.83653633,Passed,55.47179191,,,,,,,,,,,,,,,,,,,,training,3,4,0,left,a,,,,,192.604,192.9377,16.65598127,-2.8203125,0.5390625,1,0,0,0.3335,fixationPoint,192.9378,193.037,193.0371,193.7874,16.65598127,4758.851793,286.7208205,a,1,0.7342,,193.7875,193.9886,,,,,,,,42,-169,16,72,114,113,168,27,67,-215,-64,-216,-220,-215,-162,214,-28,114,-68,116,-167,-116,66,-124,118,360,270,270,270,180,360,360,360,90,360,270,,,,,,,,,,,193.9888,193.9893,,0,35,35,35,1,4,repeated,,,,,,,,,,,,,,,,,,,,,,,,,,,,,,,,,,,,,,,,,,,,,,,,,
,,0128,12,xxx,F,22,2024-02-29_19h48.15.165,MouseEye_CC,2023.2.2,MacIntel,60.24096386,0.594856474,,,1920,1080,32.267,2.94,"326.41, 323.49, 315.41, 317.84, 317.26, 302.56, 300.91",532.76,5.6322258,16.55874385,27.83653633,Passed,55.47179191,,,,,,,,,,,,,,,,,,,,training,3,5,180,right,s,,,,,193.9898,194.3534,16.65598127,-3.234375,0.5390625,1,0,0,0.3635,fixationPoint,194.3534,194.4542,194.4542,196.5044,16.65598127,4758.851793,286.7208205,s,1,2.0364,,196.5045,196.7056,,,,,,,,69,162,-65,218,74,172,76,121,68,-160,124,-124,118,-209,25,-28,-70,-120,-32,-123,-161,114,-68,67,-164,360,270,360,270,270,270,270,180,180,180,270,,,,,,,,,,,196.7056,196.7059,,0,36,36,36,1,8,repeated,,,,,,,,,,,,,,,,,,,,,,,,,,,,,,,,,,,,,,,,,,,,,,,,,
,,0128,12,xxx,F,22,2024-02-29_19h48.15.165,MouseEye_CC,2023.2.2,MacIntel,60.24096386,0.594856474,,,1920,1080,32.267,2.94,"326.41, 323.49, 315.41, 317.84, 317.26, 302.56, 300.91",532.76,5.6322258,16.55874385,27.83653633,Passed,55.47179191,,,,,,,,,,,,,,,,,,,,training,3,6,180,right,s,,,,,196.7065,197.0555,16.65598127,-5.140625,0.5390625,1,0,0,0.349,fixationPoint,197.0556,197.1551,197.1551,200.138,16.65598127,4758.851793,286.7208205,s,1,2.9778,,200.1381,200.3374,,,,,,,,63,-124,-64,218,74,215,164,172,76,-216,217,-171,68,-216,126,162,-65,69,-213,174,-216,-215,-162,-69,-24,270,180,90,270,360,90,90,180,270,90,270,,,,,,,,,,,200.3374,200.3377,,0,37,37,37,1,10,novel,,,,,,,,,,,,,,,,,,,,,,,,,,,,,,,,,,,,,,,,,,,,,,,,,
,,0128,12,xxx,F,22,2024-02-29_19h48.15.165,MouseEye_CC,2023.2.2,MacIntel,60.24096386,0.594856474,,,1920,1080,32.267,2.94,"326.41, 323.49, 315.41, 317.84, 317.26, 302.56, 300.91",532.76,5.6322258,16.55874385,27.83653633,Passed,55.47179191,,,,,,,,,,,,,,,,,,,,training,3,7,180,right,s,,,,,200.3383,200.6715,16.65598127,-5.41015625,0.53515625,1,0,0,0.3332,fixationPoint,200.6716,200.7707,200.7708,206.1896,16.65598127,4758.851793,286.7208205,s,1,5.403,,206.1897,206.3912,,,,,,,,23,-124,118,68,212,220,121,16,173,-216,-128,-69,-24,-70,-73,21,-72,67,-164,80,-115,-116,27,-211,161,270,180,90,360,360,180,180,90,360,270,180,,,,,,,,,,,206.3913,206.3915,,0,38,38,38,1,15,novel,,,,,,,,,,,,,,,,,,,,,,,,,,,,,,,,,,,,,,,,,,,,,,,,,
,,0128,12,xxx,F,22,2024-02-29_19h48.15.165,MouseEye_CC,2023.2.2,MacIntel,60.24096386,0.594856474,,,1920,1080,32.267,2.94,"326.41, 323.49, 315.41, 317.84, 317.26, 302.56, 300.91",532.76,5.6322258,16.55874385,27.83653633,Passed,55.47179191,,,,,,,,,,,,,,,,,,,,training,3,8,0,left,a,,,,,206.3925,207.207,16.65598127,-8.50390625,-2.22265625,1,0,0,0.1832,fixationPoint,207.207,207.3049,207.3049,208.4916,16.65598127,4758.851793,286.7208205,a,1,1.1678,,208.4916,208.6905,,,,,,,,59,171,-24,164,29,218,74,65,80,-116,66,-216,217,-124,118,-114,-214,-28,-70,-64,-164,174,-216,214,-28,360,270,270,360,90,360,270,90,270,360,270,,,,,,,,,,,208.6905,208.6908,,0,39,39,39,1,12,novel,,,,,,,,,,,,,,,,,,,,,,,,,,,,,,,,,,,,,,,,,,,,,,,,,
,,0128,12,xxx,F,22,2024-02-29_19h48.15.165,MouseEye_CC,2023.2.2,MacIntel,60.24096386,0.594856474,,,1920,1080,32.267,2.94,"326.41, 323.49, 315.41, 317.84, 317.26, 302.56, 300.91",532.76,5.6322258,16.55874385,27.83653633,Passed,55.47179191,,,,,,,,,,,,,,,,,,,,training,3,9,180,right,s,,,,,208.6915,209.4738,16.65598127,0.34375,-2.22265625,1,0,0,0.7822,fixationPoint,209.4739,209.5741,209.5741,211.7789,16.65598127,4758.851793,286.7208205,s,1,2.1882,,211.779,211.9763,,,,,,,,18,113,168,-73,160,-116,66,-124,163,-120,-32,-114,-214,-32,-121,24,-166,169,-117,211,-128,164,29,17,212,180,270,360,360,270,90,180,360,180,270,180,,,,,,,,,,,211.9764,211.9767,,0,40,40,40,1,1,repeated,,,,,,,,,,,,,,,,,,,,,,,,,,,,,,,,,,,,,,,,,,,,,,,,,
,,0128,12,xxx,F,22,2024-02-29_19h48.15.165,MouseEye_CC,2023.2.2,MacIntel,60.24096386,0.594856474,,,1920,1080,32.267,2.94,"326.41, 323.49, 315.41, 317.84, 317.26, 302.56, 300.91",532.76,5.6322258,16.55874385,27.83653633,Passed,55.47179191,,,,,,,,,,,,,,,,,,,,training,3,10,0,left,a,,,,,211.9772,212.2615,16.65598127,0.140625,-2.22265625,1,0,0,0.2842,fixationPoint,212.2615,212.3604,212.3604,213.1786,16.65598127,4758.851793,286.7208205,a,1,0.8039,,213.1786,213.377,,,,,,,,33,-116,66,164,29,172,166,172,76,-123,-161,-163,-69,-21,-172,120,-120,162,-65,210,-74,-166,163,-75,222,180,90,270,90,270,360,360,180,90,90,90,,,,,,,,,,,213.377,213.3773,,0,41,41,41,1,3,repeated,,,,,,,,,,,,,,,,,,,,,,,,,,,,,,,,,,,,,,,,,,,,,,,,,
,,0128,12,xxx,F,22,2024-02-29_19h48.15.165,MouseEye_CC,2023.2.2,MacIntel,60.24096386,0.594856474,,,1920,1080,32.267,2.94,"326.41, 323.49, 315.41, 317.84, 317.26, 302.56, 300.91",532.76,5.6322258,16.55874385,27.83653633,Passed,55.47179191,,,,,,,,,,,,,,,,,,,,training,3,11,0,left,a,,,,,213.378,213.6613,16.65598127,0.140625,-2.22265625,1,0,0,0.2833,fixationPoint,213.6614,213.7614,213.7614,214.5251,16.65598127,4758.851793,286.7208205,a,1,0.7579,,214.5255,214.7288,,,,,,,,68,114,-68,172,76,22,114,164,29,-32,76,-32,222,-80,79,-23,-24,-76,-116,-121,-128,125,-215,163,-175,270,90,270,90,360,90,180,270,180,180,270,,,,,,,,,,,214.7289,214.7292,,0,42,42,42,1,11,novel,,,,,,,,,,,,,,,,,,,,,,,,,,,,,,,,,,,,,,,,,,,,,,,,,
,,0128,12,xxx,F,22,2024-02-29_19h48.15.165,MouseEye_CC,2023.2.2,MacIntel,60.24096386,0.594856474,,,1920,1080,32.267,2.94,"326.41, 323.49, 315.41, 317.84, 317.26, 302.56, 300.91",532.76,5.6322258,16.55874385,27.83653633,Passed,55.47179191,,,,,,,,,,,,,,,,,,,,training,3,12,0,left,a,,,,,214.73,214.9953,16.65598127,-0.26171875,-2.22265625,1,0,0,0.2653,fixationPoint,214.9954,215.0944,215.0944,215.8455,16.65598127,4758.851793,286.7208205,a,1,0.7454,,215.8456,216.0449,,,,,,,,52,-163,-20,27,67,215,164,164,29,-160,124,-212,70,-171,68,169,-117,80,-115,116,-167,-163,-69,-216,-128,360,270,270,270,270,180,90,180,180,360,180,,,,,,,,,,,216.045,216.0451,,0,43,43,43,1,5,repeated,,,,,,,,,,,,,,,,,,,,,,,,,,,,,,,,,,,,,,,,,,,,,,,,,
,,0128,12,xxx,F,22,2024-02-29_19h48.15.165,MouseEye_CC,2023.2.2,MacIntel,60.24096386,0.594856474,,,1920,1080,32.267,2.94,"326.41, 323.49, 315.41, 317.84, 317.26, 302.56, 300.91",532.76,5.6322258,16.55874385,27.83653633,Passed,55.47179191,,,,,,,,,,,,,,,,,,,,training,3,13,0,left,a,,,,,216.0458,216.3275,16.65598127,-0.26171875,-2.22265625,1,0,0,0.2815,fixationPoint,216.3275,216.4282,216.4282,217.6271,16.65598127,4758.851793,286.7208205,a,1,1.1849,,217.6272,217.8262,,,,,,,,71,-216,-128,164,29,22,28,16,173,-73,160,-169,16,-160,124,214,-28,174,-216,219,-168,-161,-171,-69,-24,180,90,360,360,270,90,90,360,180,360,270,,,,,,,,,,,217.8263,217.8264,,0,44,44,44,1,6,repeated,,,,,,,,,,,,,,,,,,,,,,,,,,,,,,,,,,,,,,,,,,,,,,,,,
,,0128,12,xxx,F,22,2024-02-29_19h48.15.165,MouseEye_CC,2023.2.2,MacIntel,60.24096386,0.594856474,,,1920,1080,32.267,2.94,"326.41, 323.49, 315.41, 317.84, 317.26, 302.56, 300.91",532.76,5.6322258,16.55874385,27.83653633,Passed,55.47179191,,,,,,,,,,,,,,,,,,,,training,3,14,180,right,s,,,,,217.827,218.0097,16.65598127,-0.26171875,-2.22265625,1,0,0,0.1827,fixationPoint,218.0098,218.112,218.1121,219.4283,16.65598127,4758.851793,286.7208205,s,1,1.3106,,219.4283,219.6292,,,,,,,,78,120,-120,72,114,79,165,172,76,-68,21,-212,70,-116,214,-69,-24,-168,-124,-163,-69,174,-216,69,-213,90,270,360,180,270,360,180,180,360,270,180,,,,,,,,,,,219.6292,219.6296,,0,45,45,45,1,7,repeated,,,,,,,,,,,,,,,,,,,,,,,,,,,,,,,,,,,,,,,,,,,,,,,,,
,,0128,12,xxx,F,22,2024-02-29_19h48.15.165,MouseEye_CC,2023.2.2,MacIntel,60.24096386,0.594856474,,,1920,1080,32.267,2.94,"326.41, 323.49, 315.41, 317.84, 317.26, 302.56, 300.91",532.76,5.6322258,16.55874385,27.83653633,Passed,55.47179191,,,,,,,,,,,,,,,,,,,,training,3,15,0,left,a,,,,,219.6302,219.7613,16.65598127,-0.26171875,-2.22265625,1,0,0,0.131,fixationPoint,219.7613,219.8622,219.8622,221.4655,16.65598127,4758.851793,286.7208205,a,1,1.5902,,221.4656,221.6678,,,,,,,,83,-123,-161,127,120,76,31,17,212,-166,163,-32,222,-212,70,169,-117,210,-74,80,-115,-215,-64,-120,-32,270,360,180,360,360,180,360,360,270,180,180,,,,,,,,,,,221.6679,221.6682,,0,46,46,46,1,9,novel,,,,,,,,,,,,,,,,,,,,,,,,,,,,,,,,,,,,,,,,,,,,,,,,,
,,0128,12,xxx,F,22,2024-02-29_19h48.15.165,MouseEye_CC,2023.2.2,MacIntel,60.24096386,0.594856474,,,1920,1080,32.267,2.94,"326.41, 323.49, 315.41, 317.84, 317.26, 302.56, 300.91",532.76,5.6322258,16.55874385,27.83653633,Passed,55.47179191,,,,,,,,,,,,,,,,,,,,training,3,16,180,right,s,,,,,221.6688,221.813,16.65598127,-0.6640625,-2.22265625,1,0,0,0.1441,fixationPoint,221.8131,221.9154,221.9154,222.8144,16.65598127,4758.851793,286.7208205,s,1,0.8797,,222.8145,223.0165,,,,,,,,32,-171,68,218,74,172,76,215,164,-163,-20,-21,-172,-120,-32,169,-117,128,-25,67,-164,-209,25,-160,124,180,90,180,270,90,270,360,90,180,360,180,,,,,,,,,,,223.0165,224.1327,space,0,47,47,47,1,16,novel,1.0901,,,,,,,,,,,,,,,,,,,,,,,,,,,,,,,,,,,,,,,,,,,,,,,,
,,0128,12,xxx,F,22,2024-02-29_19h48.15.165,MouseEye_CC,2023.2.2,MacIntel,60.24096386,0.594856474,,,1920,1080,32.267,2.94,"326.41, 323.49, 315.41, 317.84, 317.26, 302.56, 300.91",532.76,5.6322258,16.55874385,27.83653633,Passed,55.47179191,,,,,,,,,,,,,,,,,,,,training,4,1,0,left,a,,,,,224.1336,224.6134,16.65598127,-0.6640625,-2.22265625,1,0,0,0.4798,fixationPoint,224.6134,224.712,224.7121,225.8802,16.65598127,4758.851793,286.7208205,a,1,1.151,,225.8802,226.0809,,,,,,,,18,113,168,-73,160,-116,66,-124,163,-120,-32,-114,-214,-32,-121,24,-166,169,-117,211,-128,164,29,17,212,180,180,360,360,180,90,270,180,360,360,360,,,,,,,,,,,226.0811,226.0827,,0,48,48,48,1,1,repeated,,,,,,,,,,,,,,,,,,,,,,,,,,,,,,,,,,,,,,,,,,,,,,,,,
,,0128,12,xxx,F,22,2024-02-29_19h48.15.165,MouseEye_CC,2023.2.2,MacIntel,60.24096386,0.594856474,,,1920,1080,32.267,2.94,"326.41, 323.49, 315.41, 317.84, 317.26, 302.56, 300.91",532.76,5.6322258,16.55874385,27.83653633,Passed,55.47179191,,,,,,,,,,,,,,,,,,,,training,4,2,0,left,a,,,,,226.0834,226.2828,16.65598127,-1.109375,-3.3984375,1,0,0,0.1992,fixationPoint,226.2829,226.3816,226.3816,227.4318,16.65598127,4758.851793,286.7208205,a,1,1.0346,,227.4319,227.6298,,,,,,,,38,121,68,-75,222,-28,32,-171,68,-215,-162,-215,-64,-216,-128,21,-72,24,-166,210,-74,79,165,172,166,270,180,180,180,90,270,90,180,180,270,270,,,,,,,,,,,227.6299,227.6301,,0,49,49,49,1,2,repeated,,,,,,,,,,,,,,,,,,,,,,,,,,,,,,,,,,,,,,,,,,,,,,,,,
,,0128,12,xxx,F,22,2024-02-29_19h48.15.165,MouseEye_CC,2023.2.2,MacIntel,60.24096386,0.594856474,,,1920,1080,32.267,2.94,"326.41, 323.49, 315.41, 317.84, 317.26, 302.56, 300.91",532.76,5.6322258,16.55874385,27.83653633,Passed,55.47179191,,,,,,,,,,,,,,,,,,,,training,4,3,0,left,a,,,,,227.6307,227.763,16.65598127,-2.88671875,-3.3984375,1,0,0,0.1321,fixationPoint,227.763,227.867,227.867,228.582,16.65598127,4758.851793,286.7208205,a,1,0.6978,,228.5821,228.7797,,,,,,,,33,-116,66,164,29,172,166,172,76,-123,-161,-163,-69,-21,-172,120,-120,162,-65,210,-74,-166,163,-75,222,270,180,90,90,90,360,360,90,270,360,180,,,,,,,,,,,228.7797,228.7804,,0,50,50,50,1,3,repeated,,,,,,,,,,,,,,,,,,,,,,,,,,,,,,,,,,,,,,,,,,,,,,,,,
,,0128,12,xxx,F,22,2024-02-29_19h48.15.165,MouseEye_CC,2023.2.2,MacIntel,60.24096386,0.594856474,,,1920,1080,32.267,2.94,"326.41, 323.49, 315.41, 317.84, 317.26, 302.56, 300.91",532.76,5.6322258,16.55874385,27.83653633,Passed,55.47179191,,,,,,,,,,,,,,,,,,,,training,4,4,0,left,a,,,,,228.7812,229.0483,16.65598127,-3.2890625,-3.3984375,1,0,0,0.2671,fixationPoint,229.0483,229.1483,229.1484,232.1354,16.65598127,4758.851793,286.7208205,a,1,2.9666,,232.1355,232.3346,,,,,,,,69,162,-65,218,74,172,76,121,68,-160,124,-124,118,-209,25,-28,-70,-120,-32,-123,-161,114,-68,67,-164,90,360,180,90,360,180,180,180,270,360,90,,,,,,,,,,,232.3346,232.3349,,0,51,51,51,1,8,repeated,,,,,,,,,,,,,,,,,,,,,,,,,,,,,,,,,,,,,,,,,,,,,,,,,
,,0128,12,xxx,F,22,2024-02-29_19h48.15.165,MouseEye_CC,2023.2.2,MacIntel,60.24096386,0.594856474,,,1920,1080,32.267,2.94,"326.41, 323.49, 315.41, 317.84, 317.26, 302.56, 300.91",532.76,5.6322258,16.55874385,27.83653633,Passed,55.47179191,,,,,,,,,,,,,,,,,,,,training,4,5,180,right,s,,,,,232.3357,232.4844,16.65598127,-4.95703125,-3.3984375,1,0,0,0.1486,fixationPoint,232.4844,232.5848,232.5848,233.2856,16.65598127,4758.851793,286.7208205,s,1,0.6849,,233.2857,233.4858,,,,,,,,52,-163,-20,27,67,215,164,164,29,-160,124,-212,70,-171,68,169,-117,80,-115,116,-167,-163,-69,-216,-128,180,360,180,360,180,270,90,180,90,360,360,,,,,,,,,,,233.486,233.4861,,0,52,52,52,1,5,repeated,,,,,,,,,,,,,,,,,,,,,,,,,,,,,,,,,,,,,,,,,,,,,,,,,
,,0128,12,xxx,F,22,2024-02-29_19h48.15.165,MouseEye_CC,2023.2.2,MacIntel,60.24096386,0.594856474,,,1920,1080,32.267,2.94,"326.41, 323.49, 315.41, 317.84, 317.26, 302.56, 300.91",532.76,5.6322258,16.55874385,27.83653633,Passed,55.47179191,,,,,,,,,,,,,,,,,,,,training,4,6,180,right,s,,,,,233.4865,233.8196,16.65598127,-3.1484375,-3.3984375,1,0,0,0.3331,fixationPoint,233.8196,233.9204,233.9204,234.8869,16.65598127,4758.851793,286.7208205,s,1,0.9517,,234.8869,235.0867,,,,,,,,78,120,-120,72,114,79,165,172,76,-68,21,-212,70,-116,214,-69,-24,-168,-124,-163,-69,174,-216,69,-213,180,90,360,180,360,90,90,360,90,180,90,,,,,,,,,,,235.0868,235.0871,,0,53,53,53,1,7,repeated,,,,,,,,,,,,,,,,,,,,,,,,,,,,,,,,,,,,,,,,,,,,,,,,,
,,0128,12,xxx,F,22,2024-02-29_19h48.15.165,MouseEye_CC,2023.2.2,MacIntel,60.24096386,0.594856474,,,1920,1080,32.267,2.94,"326.41, 323.49, 315.41, 317.84, 317.26, 302.56, 300.91",532.76,5.6322258,16.55874385,27.83653633,Passed,55.47179191,,,,,,,,,,,,,,,,,,,,training,4,7,180,right,s,,,,,235.088,235.3022,16.65598127,-3.1484375,-3.3984375,1,0,0,0.2142,fixationPoint,235.3023,235.4029,235.4029,237.0358,16.65598127,4758.851793,286.7208205,s,1,1.6186,,237.0358,237.2366,,,,,,,,49,164,29,-216,126,-124,118,-170,218,-124,-64,-79,-222,-161,-171,125,-215,162,-65,120,-120,172,166,114,208,180,90,180,90,180,180,270,270,270,360,360,,,,,,,,,,,237.2366,237.2369,,0,54,54,54,1,13,novel,,,,,,,,,,,,,,,,,,,,,,,,,,,,,,,,,,,,,,,,,,,,,,,,,
,,0128,12,xxx,F,22,2024-02-29_19h48.15.165,MouseEye_CC,2023.2.2,MacIntel,60.24096386,0.594856474,,,1920,1080,32.267,2.94,"326.41, 323.49, 315.41, 317.84, 317.26, 302.56, 300.91",532.76,5.6322258,16.55874385,27.83653633,Passed,55.47179191,,,,,,,,,,,,,,,,,,,,training,4,8,180,right,s,,,,,237.2375,237.453,16.65598127,-0.8984375,-3.6171875,1,0,0,0.2155,fixationPoint,237.453,237.5523,237.5523,241.568,16.65598127,4758.851793,286.7208205,s,1,4.0034,,241.5681,241.7674,,,,,,,,83,-123,-161,79,165,164,29,220,121,-116,27,-68,21,-169,16,120,-120,214,-28,67,-164,-121,-128,-21,-172,270,360,270,360,270,270,90,360,180,90,360,,,,,,,,,,,241.7675,241.7677,,0,55,55,55,1,9,novel,,,,,,,,,,,,,,,,,,,,,,,,,,,,,,,,,,,,,,,,,,,,,,,,,
,,0128,12,xxx,F,22,2024-02-29_19h48.15.165,MouseEye_CC,2023.2.2,MacIntel,60.24096386,0.594856474,,,1920,1080,32.267,2.94,"326.41, 323.49, 315.41, 317.84, 317.26, 302.56, 300.91",532.76,5.6322258,16.55874385,27.83653633,Passed,55.47179191,,,,,,,,,,,,,,,,,,,,training,4,9,0,left,a,,,,,241.7682,241.9528,16.65598127,-1.421875,-3.8203125,1,0,0,0.1846,fixationPoint,241.9528,242.0537,242.0537,244.6872,16.65598127,4758.851793,286.7208205,a,1,2.6179,,244.6872,244.8872,,,,,,,,71,-216,-128,164,29,22,28,16,173,-73,160,-169,16,-160,124,214,-28,174,-216,219,-168,-161,-171,-69,-24,360,90,270,270,360,90,360,270,180,90,360,,,,,,,,,,,244.8873,244.8874,,0,56,56,56,1,6,repeated,,,,,,,,,,,,,,,,,,,,,,,,,,,,,,,,,,,,,,,,,,,,,,,,,
,,0128,12,xxx,F,22,2024-02-29_19h48.15.165,MouseEye_CC,2023.2.2,MacIntel,60.24096386,0.594856474,,,1920,1080,32.267,2.94,"326.41, 323.49, 315.41, 317.84, 317.26, 302.56, 300.91",532.76,5.6322258,16.55874385,27.83653633,Passed,55.47179191,,,,,,,,,,,,,,,,,,,,training,4,10,180,right,s,,,,,244.8881,245.1048,16.65598127,-2.25390625,-4.2421875,1,0,0,0.2167,fixationPoint,245.105,245.204,245.204,245.905,16.65598127,4758.851793,286.7208205,s,1,0.6841,,245.905,246.1045,,,,,,,,63,-124,-64,172,166,76,31,72,114,-68,21,-169,16,-28,32,125,-215,210,-74,219,-168,-224,-25,-29,-210,180,270,180,270,270,360,90,270,270,360,180,,,,,,,,,,,246.1045,246.1047,,0,57,57,57,1,10,novel,,,,,,,,,,,,,,,,,,,,,,,,,,,,,,,,,,,,,,,,,,,,,,,,,
,,0128,12,xxx,F,22,2024-02-29_19h48.15.165,MouseEye_CC,2023.2.2,MacIntel,60.24096386,0.594856474,,,1920,1080,32.267,2.94,"326.41, 323.49, 315.41, 317.84, 317.26, 302.56, 300.91",532.76,5.6322258,16.55874385,27.83653633,Passed,55.47179191,,,,,,,,,,,,,,,,,,,,training,4,11,0,left,a,,,,,246.1054,246.3702,16.65598127,5.703125,-4.2421875,1,0,0,0.2646,fixationPoint,246.3703,246.47,246.4701,247.7846,16.65598127,4758.851793,286.7208205,a,1,1.3014,,247.7847,247.9843,,,,,,,,32,-171,68,160,125,16,173,72,114,-120,-32,-64,-164,-123,-161,210,-74,211,-128,214,-28,-124,118,-20,165,360,360,180,180,270,90,270,180,180,90,360,,,,,,,,,,,247.9845,247.9847,,0,58,58,58,1,16,novel,,,,,,,,,,,,,,,,,,,,,,,,,,,,,,,,,,,,,,,,,,,,,,,,,
,,0128,12,xxx,F,22,2024-02-29_19h48.15.165,MouseEye_CC,2023.2.2,MacIntel,60.24096386,0.594856474,,,1920,1080,32.267,2.94,"326.41, 323.49, 315.41, 317.84, 317.26, 302.56, 300.91",532.76,5.6322258,16.55874385,27.83653633,Passed,55.47179191,,,,,,,,,,,,,,,,,,,,training,4,12,0,left,a,,,,,247.9854,248.2039,16.65598127,-3.515625,-3.515625,1,0,0,0.2184,fixationPoint,248.2039,248.3039,248.3039,249.835,16.65598127,4758.851793,286.7208205,a,1,1.5165,,249.8351,250.0378,,,,,,,,30,220,121,-32,222,-169,16,-216,126,-175,-223,-163,-20,-216,-128,174,-216,211,-128,80,-115,79,165,218,74,180,360,90,90,180,270,180,90,360,270,90,,,,,,,,,,,250.0379,250.0381,,0,59,59,59,1,14,novel,,,,,,,,,,,,,,,,,,,,,,,,,,,,,,,,,,,,,,,,,,,,,,,,,
,,0128,12,xxx,F,22,2024-02-29_19h48.15.165,MouseEye_CC,2023.2.2,MacIntel,60.24096386,0.594856474,,,1920,1080,32.267,2.94,"326.41, 323.49, 315.41, 317.84, 317.26, 302.56, 300.91",532.76,5.6322258,16.55874385,27.83653633,Passed,55.47179191,,,,,,,,,,,,,,,,,,,,training,4,13,180,right,s,,,,,250.0388,250.287,16.65598127,-2.33984375,-3.515625,1,0,0,0.2482,fixationPoint,250.287,250.3856,250.3857,251.7191,16.65598127,4758.851793,286.7208205,s,1,1.3182,,251.7191,251.9193,,,,,,,,59,171,-24,160,125,113,168,216,16,-170,218,-32,222,-160,124,-114,-214,-215,-64,-29,-210,21,-72,219,-168,270,270,270,90,270,270,90,270,360,270,180,,,,,,,,,,,251.9194,251.92,,0,60,60,60,1,12,novel,,,,,,,,,,,,,,,,,,,,,,,,,,,,,,,,,,,,,,,,,,,,,,,,,
,,0128,12,xxx,F,22,2024-02-29_19h48.15.165,MouseEye_CC,2023.2.2,MacIntel,60.24096386,0.594856474,,,1920,1080,32.267,2.94,"326.41, 323.49, 315.41, 317.84, 317.26, 302.56, 300.91",532.76,5.6322258,16.55874385,27.83653633,Passed,55.47179191,,,,,,,,,,,,,,,,,,,,training,4,14,180,right,s,,,,,251.9207,252.1713,16.65598127,-2.54296875,-3.515625,1,0,0,0.2505,fixationPoint,252.1714,252.2708,252.2708,253.4361,16.65598127,4758.851793,286.7208205,s,1,1.1502,,253.4362,253.6377,,,,,,,,23,-124,118,113,168,215,164,216,16,-69,-24,-70,-73,-114,-214,114,-68,80,-115,69,-213,-209,25,-160,124,180,90,90,270,180,180,360,360,360,360,90,,,,,,,,,,,253.6378,253.638,,0,61,61,61,1,15,novel,,,,,,,,,,,,,,,,,,,,,,,,,,,,,,,,,,,,,,,,,,,,,,,,,
,,0128,12,xxx,F,22,2024-02-29_19h48.15.165,MouseEye_CC,2023.2.2,MacIntel,60.24096386,0.594856474,,,1920,1080,32.267,2.94,"326.41, 323.49, 315.41, 317.84, 317.26, 302.56, 300.91",532.76,5.6322258,16.55874385,27.83653633,Passed,55.47179191,,,,,,,,,,,,,,,,,,,,training,4,15,0,left,a,,,,,253.6386,253.9212,16.65598127,-2.54296875,-3.515625,1,0,0,0.2826,fixationPoint,253.9212,254.021,254.0211,254.8048,16.65598127,4758.851793,286.7208205,a,1,0.7681,,254.8049,255.003,,,,,,,,42,-169,16,72,114,113,168,27,67,-215,-64,-216,-220,-215,-162,214,-28,114,-68,116,-167,-116,66,-124,118,360,180,270,360,270,270,270,270,360,270,270,,,,,,,,,,,255.003,255.0032,,0,62,62,62,1,4,repeated,,,,,,,,,,,,,,,,,,,,,,,,,,,,,,,,,,,,,,,,,,,,,,,,,
,,0128,12,xxx,F,22,2024-02-29_19h48.15.165,MouseEye_CC,2023.2.2,MacIntel,60.24096386,0.594856474,,,1920,1080,32.267,2.94,"326.41, 323.49, 315.41, 317.84, 317.26, 302.56, 300.91",532.76,5.6322258,16.55874385,27.83653633,Passed,55.47179191,,,,,,,,,,,,,,,,,,,,training,4,16,180,right,s,,,,,255.0037,255.1713,16.65598127,-2.54296875,-3.515625,1,0,0,0.1674,fixationPoint,255.1713,255.271,255.2711,256.8872,16.65598127,4758.851793,286.7208205,s,1,1.6042,,256.8873,257.0878,,,,,,,,68,114,-68,216,16,127,120,121,68,-216,217,-116,27,-212,70,-120,-32,-21,-172,-124,-64,21,-72,219,-168,360,270,180,360,90,90,270,360,270,180,360,,,,,,,,,,,257.0879,257.9543,space,0,63,63,63,1,11,novel,0.8362,,,,,,,,,,,,,,,,,,,,,,,,,,,,,,,,,,,,,,,,,,,,,,,,
,,0128,12,xxx,F,22,2024-02-29_19h48.15.165,MouseEye_CC,2023.2.2,MacIntel,60.24096386,0.594856474,,,1920,1080,32.267,2.94,"326.41, 323.49, 315.41, 317.84, 317.26, 302.56, 300.91",532.76,5.6322258,16.55874385,27.83653633,Passed,55.47179191,,,,,,,,,,,,,,,,,,,,training,5,1,0,left,a,,,,,257.9549,258.6555,16.65598127,1.19140625,-0.75,1,0,0,0.7006,fixationPoint,258.6556,258.7523,258.7523,259.9217,16.65598127,4758.851793,286.7208205,a,1,1.154,,259.9218,260.122,,,,,,,,49,164,29,-216,126,-28,32,-169,16,-161,-171,-120,-32,-64,-164,210,-74,174,-216,224,-223,172,76,79,165,180,270,360,180,270,90,90,180,270,270,90,,,,,,,,,,,260.122,260.1238,,0,64,64,64,1,13,novel,,,,,,,,,,,,,,,,,,,,,,,,,,,,,,,,,,,,,,,,,,,,,,,,,
,,0128,12,xxx,F,22,2024-02-29_19h48.15.165,MouseEye_CC,2023.2.2,MacIntel,60.24096386,0.594856474,,,1920,1080,32.267,2.94,"326.41, 323.49, 315.41, 317.84, 317.26, 302.56, 300.91",532.76,5.6322258,16.55874385,27.83653633,Passed,55.47179191,,,,,,,,,,,,,,,,,,,,training,5,2,0,left,a,,,,,260.1243,260.3031,16.65598127,1.19140625,-0.75,1,0,0,0.1787,fixationPoint,260.3031,260.4048,260.4048,262.1251,16.65598127,4758.851793,286.7208205,a,1,1.7137,,262.1251,262.3229,,,,,,,,38,121,68,-75,222,-28,32,-171,68,-215,-162,-215,-64,-216,-128,21,-72,24,-166,210,-74,79,165,172,166,360,90,90,180,90,180,270,180,90,270,180,,,,,,,,,,,262.323,262.3231,,0,65,65,65,1,2,repeated,,,,,,,,,,,,,,,,,,,,,,,,,,,,,,,,,,,,,,,,,,,,,,,,,
,,0128,12,xxx,F,22,2024-02-29_19h48.15.165,MouseEye_CC,2023.2.2,MacIntel,60.24096386,0.594856474,,,1920,1080,32.267,2.94,"326.41, 323.49, 315.41, 317.84, 317.26, 302.56, 300.91",532.76,5.6322258,16.55874385,27.83653633,Passed,55.47179191,,,,,,,,,,,,,,,,,,,,training,5,3,180,right,s,,,,,262.3236,265.3057,16.65598127,-6.65234375,-57.12890625,1,0,0,1.7151,fixationPoint,265.3058,265.4036,265.4037,266.4702,16.65598127,4758.851793,286.7208205,s,1,1.0511,,266.4703,266.672,,,,,,,,23,-124,118,113,168,167,215,118,16,-163,-69,-79,-222,-216,-128,219,-168,114,-68,171,-24,-20,165,-73,160,180,360,270,90,90,270,360,360,90,180,360,,,,,,,,,,,266.672,266.6724,,0,66,66,66,1,15,novel,,,,,,,,,,,,,,,,,,,,,,,,,,,,,,,,,,,,,,,,,,,,,,,,,
,,0128,12,xxx,F,22,2024-02-29_19h48.15.165,MouseEye_CC,2023.2.2,MacIntel,60.24096386,0.594856474,,,1920,1080,32.267,2.94,"326.41, 323.49, 315.41, 317.84, 317.26, 302.56, 300.91",532.76,5.6322258,16.55874385,27.83653633,Passed,55.47179191,,,,,,,,,,,,,,,,,,,,training,5,4,180,right,s,,,,,266.6732,266.9191,16.65598127,-0.61328125,4.4921875,1,0,0,0.2458,fixationPoint,266.9192,267.0222,267.0223,267.5728,16.65598127,4758.851793,286.7208205,s,1,0.5338,,267.5728,267.7721,,,,,,,,33,-116,66,164,29,172,166,172,76,-123,-161,-163,-69,-21,-172,120,-120,162,-65,210,-74,-166,163,-75,222,180,90,90,180,270,90,270,360,180,270,270,,,,,,,,,,,267.7721,267.7724,,0,67,67,67,1,3,repeated,,,,,,,,,,,,,,,,,,,,,,,,,,,,,,,,,,,,,,,,,,,,,,,,,
,,0128,12,xxx,F,22,2024-02-29_19h48.15.165,MouseEye_CC,2023.2.2,MacIntel,60.24096386,0.594856474,,,1920,1080,32.267,2.94,"326.41, 323.49, 315.41, 317.84, 317.26, 302.56, 300.91",532.76,5.6322258,16.55874385,27.83653633,Passed,55.47179191,,,,,,,,,,,,,,,,,,,,training,5,5,0,left,a,,,,,267.773,267.9208,16.65598127,-0.61328125,4.4921875,1,0,0,0.1477,fixationPoint,267.921,268.0221,268.0221,268.9882,16.65598127,4758.851793,286.7208205,a,1,0.9524,,268.9883,269.1877,,,,,,,,83,-123,-161,215,164,167,215,16,173,-80,79,-211,161,-68,21,116,-167,26,-20,78,-16,-124,-64,-21,-172,90,270,360,180,270,180,180,270,270,180,270,,,,,,,,,,,269.1879,269.1881,,0,68,68,68,1,9,novel,,,,,,,,,,,,,,,,,,,,,,,,,,,,,,,,,,,,,,,,,,,,,,,,,
,,0128,12,xxx,F,22,2024-02-29_19h48.15.165,MouseEye_CC,2023.2.2,MacIntel,60.24096386,0.594856474,,,1920,1080,32.267,2.94,"326.41, 323.49, 315.41, 317.84, 317.26, 302.56, 300.91",532.76,5.6322258,16.55874385,27.83653633,Passed,55.47179191,,,,,,,,,,,,,,,,,,,,training,5,6,0,left,a,,,,,269.1889,269.3228,16.65598127,-0.61328125,3.38671875,1,0,0,0.1338,fixationPoint,269.3229,269.4209,269.421,270.0546,16.65598127,4758.851793,286.7208205,a,1,0.6175,,270.0547,270.2564,,,,,,,,63,-124,-64,68,212,172,166,114,208,-209,25,-216,126,-212,70,214,-28,128,-25,210,-74,-123,-161,-70,-73,90,180,360,180,360,270,180,180,180,360,90,,,,,,,,,,,270.2566,270.2567,,0,69,69,69,1,10,novel,,,,,,,,,,,,,,,,,,,,,,,,,,,,,,,,,,,,,,,,,,,,,,,,,
,,0128,12,xxx,F,22,2024-02-29_19h48.15.165,MouseEye_CC,2023.2.2,MacIntel,60.24096386,0.594856474,,,1920,1080,32.267,2.94,"326.41, 323.49, 315.41, 317.84, 317.26, 302.56, 300.91",532.76,5.6322258,16.55874385,27.83653633,Passed,55.47179191,,,,,,,,,,,,,,,,,,,,training,5,7,180,right,s,,,,,270.2573,270.4046,16.65598127,-0.81640625,3.38671875,1,0,0,0.1473,fixationPoint,270.4047,270.5053,270.5054,271.1197,16.65598127,4758.851793,286.7208205,s,1,0.602,,271.1198,271.3096,,,,,,,,71,-216,-128,164,29,22,28,16,173,-73,160,-169,16,-160,124,214,-28,174,-216,219,-168,-161,-171,-69,-24,90,360,270,90,360,270,270,360,90,270,180,,,,,,,,,,,271.3096,271.3098,,0,70,70,70,1,6,repeated,,,,,,,,,,,,,,,,,,,,,,,,,,,,,,,,,,,,,,,,,,,,,,,,,
,,0128,12,xxx,F,22,2024-02-29_19h48.15.165,MouseEye_CC,2023.2.2,MacIntel,60.24096386,0.594856474,,,1920,1080,32.267,2.94,"326.41, 323.49, 315.41, 317.84, 317.26, 302.56, 300.91",532.76,5.6322258,16.55874385,27.83653633,Passed,55.47179191,,,,,,,,,,,,,,,,,,,,training,5,8,180,right,s,,,,,271.31,271.5264,16.65598127,-0.81640625,2.1796875,1,0,0,0.2161,fixationPoint,271.5264,271.6258,271.6258,273.1751,16.65598127,4758.851793,286.7208205,s,1,1.5342,,273.1752,273.376,,,,,,,,30,220,121,-75,222,-216,126,-32,76,-216,-220,-161,-171,-64,-164,125,-215,26,-20,20,-120,172,76,72,114,270,180,90,180,90,180,180,270,90,180,360,,,,,,,,,,,273.3761,273.3762,,0,71,71,71,1,14,novel,,,,,,,,,,,,,,,,,,,,,,,,,,,,,,,,,,,,,,,,,,,,,,,,,
,,0128,12,xxx,F,22,2024-02-29_19h48.15.165,MouseEye_CC,2023.2.2,MacIntel,60.24096386,0.594856474,,,1920,1080,32.267,2.94,"326.41, 323.49, 315.41, 317.84, 317.26, 302.56, 300.91",532.76,5.6322258,16.55874385,27.83653633,Passed,55.47179191,,,,,,,,,,,,,,,,,,,,training,5,9,180,right,s,,,,,273.3766,273.4928,16.65598127,-5.34765625,1.515625,1,0,0,0.1161,fixationPoint,273.4928,273.5932,273.5932,274.7424,16.65598127,4758.851793,286.7208205,s,1,1.1442,,274.7425,274.9427,,,,,,,,78,120,-120,72,114,79,165,172,76,-68,21,-212,70,-116,214,-69,-24,-168,-124,-163,-69,174,-216,69,-213,270,180,360,180,180,360,360,270,360,360,360,,,,,,,,,,,274.9429,274.9431,,0,72,72,72,1,7,repeated,,,,,,,,,,,,,,,,,,,,,,,,,,,,,,,,,,,,,,,,,,,,,,,,,
,,0128,12,xxx,F,22,2024-02-29_19h48.15.165,MouseEye_CC,2023.2.2,MacIntel,60.24096386,0.594856474,,,1920,1080,32.267,2.94,"326.41, 323.49, 315.41, 317.84, 317.26, 302.56, 300.91",532.76,5.6322258,16.55874385,27.83653633,Passed,55.47179191,,,,,,,,,,,,,,,,,,,,training,5,10,0,left,a,,,,,274.9437,275.1097,16.65598127,-5.34765625,1.515625,1,0,0,0.1659,fixationPoint,275.1098,275.2098,275.2098,276.6419,16.65598127,4758.851793,286.7208205,a,1,1.4241,,276.642,276.843,,,,,,,,59,171,-24,68,212,118,16,172,76,-116,66,-216,126,-32,76,-215,-162,-23,-24,-163,-69,214,-28,20,-120,180,90,90,180,90,270,360,180,90,270,180,,,,,,,,,,,276.843,276.8433,,0,73,73,73,1,12,novel,,,,,,,,,,,,,,,,,,,,,,,,,,,,,,,,,,,,,,,,,,,,,,,,,
,,0128,12,xxx,F,22,2024-02-29_19h48.15.165,MouseEye_CC,2023.2.2,MacIntel,60.24096386,0.594856474,,,1920,1080,32.267,2.94,"326.41, 323.49, 315.41, 317.84, 317.26, 302.56, 300.91",532.76,5.6322258,16.55874385,27.83653633,Passed,55.47179191,,,,,,,,,,,,,,,,,,,,training,5,11,180,right,s,,,,,276.8439,277.1763,16.65598127,-6.8515625,1.515625,1,0,0,0.3322,fixationPoint,277.1763,277.2758,277.2758,279.4432,16.65598127,4758.851793,286.7208205,s,1,2.1606,,279.4432,279.6435,,,,,,,,68,114,-68,27,67,16,173,127,120,-75,222,-124,118,-32,222,-114,-214,-124,-64,-28,-70,64,-80,174,-216,180,270,90,360,180,180,180,270,270,270,270,,,,,,,,,,,279.6435,279.6437,,0,74,74,74,1,11,novel,,,,,,,,,,,,,,,,,,,,,,,,,,,,,,,,,,,,,,,,,,,,,,,,,
,,0128,12,xxx,F,22,2024-02-29_19h48.15.165,MouseEye_CC,2023.2.2,MacIntel,60.24096386,0.594856474,,,1920,1080,32.267,2.94,"326.41, 323.49, 315.41, 317.84, 317.26, 302.56, 300.91",532.76,5.6322258,16.55874385,27.83653633,Passed,55.47179191,,,,,,,,,,,,,,,,,,,,training,5,12,0,left,a,,,,,279.644,279.9429,16.65598127,-6.44140625,-0.03515625,1,0,0,0.2988,fixationPoint,279.943,280.0427,280.0428,281.1563,16.65598127,4758.851793,286.7208205,a,1,1.1058,,281.1564,281.3459,,,,,,,,69,162,-65,218,74,172,76,121,68,-160,124,-124,118,-209,25,-28,-70,-120,-32,-123,-161,114,-68,67,-164,360,360,360,180,90,270,90,90,180,360,90,,,,,,,,,,,281.346,281.3462,,0,75,75,75,1,8,repeated,,,,,,,,,,,,,,,,,,,,,,,,,,,,,,,,,,,,,,,,,,,,,,,,,
,,0128,12,xxx,F,22,2024-02-29_19h48.15.165,MouseEye_CC,2023.2.2,MacIntel,60.24096386,0.594856474,,,1920,1080,32.267,2.94,"326.41, 323.49, 315.41, 317.84, 317.26, 302.56, 300.91",532.76,5.6322258,16.55874385,27.83653633,Passed,55.47179191,,,,,,,,,,,,,,,,,,,,training,5,13,180,right,s,,,,,281.347,281.7941,16.65598127,-6.4296875,-0.03515625,1,0,0,0.4468,fixationPoint,281.7941,281.8967,281.8967,284.1462,16.65598127,4758.851793,286.7208205,s,1,2.2346,,284.1463,284.3449,,,,,,,,18,113,168,-73,160,-116,66,-124,163,-120,-32,-114,-214,-32,-121,24,-166,169,-117,211,-128,164,29,17,212,360,90,360,180,90,360,180,90,180,360,180,,,,,,,,,,,284.345,284.3452,,0,76,76,76,1,1,repeated,,,,,,,,,,,,,,,,,,,,,,,,,,,,,,,,,,,,,,,,,,,,,,,,,
,,0128,12,xxx,F,22,2024-02-29_19h48.15.165,MouseEye_CC,2023.2.2,MacIntel,60.24096386,0.594856474,,,1920,1080,32.267,2.94,"326.41, 323.49, 315.41, 317.84, 317.26, 302.56, 300.91",532.76,5.6322258,16.55874385,27.83653633,Passed,55.47179191,,,,,,,,,,,,,,,,,,,,training,5,14,0,left,a,,,,,284.346,284.5464,16.65598127,-6.4296875,-0.03515625,1,0,0,0.2004,fixationPoint,284.5465,284.6465,284.6465,285.9292,16.65598127,4758.851793,286.7208205,a,1,1.2656,,285.9292,286.1294,,,,,,,,32,-171,68,160,125,220,121,167,215,-224,-25,-163,-69,-79,-222,80,-115,163,-175,21,-72,-80,79,-211,161,270,180,180,90,360,360,270,180,270,180,90,,,,,,,,,,,286.1295,286.1298,,0,77,77,77,1,16,novel,,,,,,,,,,,,,,,,,,,,,,,,,,,,,,,,,,,,,,,,,,,,,,,,,
,,0128,12,xxx,F,22,2024-02-29_19h48.15.165,MouseEye_CC,2023.2.2,MacIntel,60.24096386,0.594856474,,,1920,1080,32.267,2.94,"326.41, 323.49, 315.41, 317.84, 317.26, 302.56, 300.91",532.76,5.6322258,16.55874385,27.83653633,Passed,55.47179191,,,,,,,,,,,,,,,,,,,,training,5,15,180,right,s,,,,,286.1303,286.4128,16.65598127,-2.08203125,-2.0546875,1,0,0,0.2823,fixationPoint,286.4129,286.5123,286.5123,287.2766,16.65598127,4758.851793,286.7208205,s,1,0.755,,287.2766,287.4796,,,,,,,,42,-169,16,72,114,113,168,27,67,-215,-64,-216,-220,-215,-162,214,-28,114,-68,116,-167,-116,66,-124,118,90,360,360,270,360,360,180,270,270,180,360,,,,,,,,,,,287.4797,287.4798,,0,78,78,78,1,4,repeated,,,,,,,,,,,,,,,,,,,,,,,,,,,,,,,,,,,,,,,,,,,,,,,,,
,,0128,12,xxx,F,22,2024-02-29_19h48.15.165,MouseEye_CC,2023.2.2,MacIntel,60.24096386,0.594856474,,,1920,1080,32.267,2.94,"326.41, 323.49, 315.41, 317.84, 317.26, 302.56, 300.91",532.76,5.6322258,16.55874385,27.83653633,Passed,55.47179191,,,,,,,,,,,,,,,,,,,,training,5,16,0,left,a,,,,,287.4804,287.8122,16.65598127,-2.08203125,-2.0546875,1,0,0,0.3317,fixationPoint,287.8123,287.9127,287.9127,288.9944,16.65598127,4758.851793,286.7208205,a,1,1.0768,,288.9945,289.1964,,,,,,,,52,-163,-20,27,67,215,164,164,29,-160,124,-212,70,-171,68,169,-117,80,-115,116,-167,-163,-69,-216,-128,270,360,180,90,90,90,360,90,270,360,270,,,,,,,,,,,289.1964,294.8468,space,0,79,79,79,1,5,repeated,5.6304,,,,,,,,,,,,,,,,,,,,,,,,,,,,,,,,,,,,,,,,,,,,,,,,
,,0128,12,xxx,F,22,2024-02-29_19h48.15.165,MouseEye_CC,2023.2.2,MacIntel,60.24096386,0.594856474,,,1920,1080,32.267,2.94,"326.41, 323.49, 315.41, 317.84, 317.26, 302.56, 300.91",532.76,5.6322258,16.55874385,27.83653633,Passed,55.47179191,,,,,,,,,,,,,,,,,,,,training,6,1,180,right,s,,,,,294.8555,295.3959,16.65598127,-1.95703125,-2.49609375,1,0,0,0.5403,fixationPoint,295.3959,295.4983,295.4983,296.38,16.65598127,4758.851793,286.7208205,s,1,0.8629,,296.3801,296.5814,,,,,,,,52,-163,-20,27,67,215,164,164,29,-160,124,-212,70,-171,68,169,-117,80,-115,116,-167,-163,-69,-216,-128,180,90,270,90,360,270,270,270,270,360,360,,,,,,,,,,,296.5815,296.5828,,0,80,80,80,1,5,repeated,,,,,,,,,,,,,,,,,,,,,,,,,,,,,,,,,,,,,,,,,,,,,,,,,
,,0128,12,xxx,F,22,2024-02-29_19h48.15.165,MouseEye_CC,2023.2.2,MacIntel,60.24096386,0.594856474,,,1920,1080,32.267,2.94,"326.41, 323.49, 315.41, 317.84, 317.26, 302.56, 300.91",532.76,5.6322258,16.55874385,27.83653633,Passed,55.47179191,,,,,,,,,,,,,,,,,,,,training,6,2,0,left,a,,,,,296.5832,296.7483,16.65598127,-1.95703125,-2.49609375,1,0,0,0.1648,fixationPoint,296.7483,296.8473,296.8473,299.1486,16.65598127,4758.851793,286.7208205,a,1,2.2762,,299.1487,299.3454,,,,,,,,68,114,-68,218,74,210,221,65,80,-216,217,-211,161,-209,25,-215,-64,-163,-69,-32,-121,64,-80,20,-120,90,180,180,270,270,270,360,180,180,270,360,,,,,,,,,,,299.3456,299.3458,,0,81,81,81,1,11,novel,,,,,,,,,,,,,,,,,,,,,,,,,,,,,,,,,,,,,,,,,,,,,,,,,
,,0128,12,xxx,F,22,2024-02-29_19h48.15.165,MouseEye_CC,2023.2.2,MacIntel,60.24096386,0.594856474,,,1920,1080,32.267,2.94,"326.41, 323.49, 315.41, 317.84, 317.26, 302.56, 300.91",532.76,5.6322258,16.55874385,27.83653633,Passed,55.47179191,,,,,,,,,,,,,,,,,,,,training,6,3,180,right,s,,,,,299.3464,299.6813,16.65598127,-6.65234375,-2.02734375,1,0,0,0.3348,fixationPoint,299.6813,299.7825,299.7826,302.8478,16.65598127,4758.851793,286.7208205,s,1,3.0518,,302.8479,303.0475,,,,,,,,71,-216,-128,164,29,22,28,16,173,-73,160,-169,16,-160,124,214,-28,174,-216,219,-168,-161,-171,-69,-24,180,180,270,90,180,180,180,90,90,270,90,,,,,,,,,,,303.0476,303.0478,,0,82,82,82,1,6,repeated,,,,,,,,,,,,,,,,,,,,,,,,,,,,,,,,,,,,,,,,,,,,,,,,,
,,0128,12,xxx,F,22,2024-02-29_19h48.15.165,MouseEye_CC,2023.2.2,MacIntel,60.24096386,0.594856474,,,1920,1080,32.267,2.94,"326.41, 323.49, 315.41, 317.84, 317.26, 302.56, 300.91",532.76,5.6322258,16.55874385,27.83653633,Passed,55.47179191,,,,,,,,,,,,,,,,,,,,training,6,4,180,right,s,,,,,303.0484,303.2318,16.65598127,0.71875,-2.25,1,0,0,0.1833,fixationPoint,303.2318,303.3332,303.3333,304.5823,16.65598127,4758.851793,286.7208205,s,1,1.2358,,304.5824,304.7825,,,,,,,,49,164,29,-124,118,-212,70,-209,25,-124,-64,-64,-164,-32,-121,20,-120,80,-115,120,-120,167,215,79,165,270,360,270,90,360,180,270,90,360,180,90,,,,,,,,,,,304.7825,304.7827,,0,83,83,83,1,13,novel,,,,,,,,,,,,,,,,,,,,,,,,,,,,,,,,,,,,,,,,,,,,,,,,,
,,0128,12,xxx,F,22,2024-02-29_19h48.15.165,MouseEye_CC,2023.2.2,MacIntel,60.24096386,0.594856474,,,1920,1080,32.267,2.94,"326.41, 323.49, 315.41, 317.84, 317.26, 302.56, 300.91",532.76,5.6322258,16.55874385,27.83653633,Passed,55.47179191,,,,,,,,,,,,,,,,,,,,training,6,5,0,left,a,,,,,304.7832,304.9645,16.65598127,-2.515625,-2.25,1,0,0,0.1812,fixationPoint,304.9646,305.0668,305.0669,305.8157,16.65598127,4758.851793,286.7208205,a,1,0.7316,,305.8159,306.0149,,,,,,,,42,-169,16,72,114,113,168,27,67,-215,-64,-216,-220,-215,-162,214,-28,114,-68,116,-167,-116,66,-124,118,180,180,180,360,180,90,90,180,270,90,90,,,,,,,,,,,306.0149,306.0152,,0,84,84,84,1,4,repeated,,,,,,,,,,,,,,,,,,,,,,,,,,,,,,,,,,,,,,,,,,,,,,,,,
,,0128,12,xxx,F,22,2024-02-29_19h48.15.165,MouseEye_CC,2023.2.2,MacIntel,60.24096386,0.594856474,,,1920,1080,32.267,2.94,"326.41, 323.49, 315.41, 317.84, 317.26, 302.56, 300.91",532.76,5.6322258,16.55874385,27.83653633,Passed,55.47179191,,,,,,,,,,,,,,,,,,,,training,6,6,180,right,s,,,,,306.0159,306.1987,16.65598127,-2.515625,-2.25,1,0,0,0.1826,fixationPoint,306.1987,306.298,306.2981,307.7474,16.65598127,4758.851793,286.7208205,s,1,1.4346,,307.7475,307.948,,,,,,,,78,120,-120,72,114,79,165,172,76,-68,21,-212,70,-116,214,-69,-24,-168,-124,-163,-69,174,-216,69,-213,360,90,90,270,360,270,180,180,180,180,270,,,,,,,,,,,307.9481,307.9483,,0,85,85,85,1,7,repeated,,,,,,,,,,,,,,,,,,,,,,,,,,,,,,,,,,,,,,,,,,,,,,,,,
,,0128,12,xxx,F,22,2024-02-29_19h48.15.165,MouseEye_CC,2023.2.2,MacIntel,60.24096386,0.594856474,,,1920,1080,32.267,2.94,"326.41, 323.49, 315.41, 317.84, 317.26, 302.56, 300.91",532.76,5.6322258,16.55874385,27.83653633,Passed,55.47179191,,,,,,,,,,,,,,,,,,,,training,6,7,180,right,s,,,,,307.949,308.215,16.65598127,-3.12890625,-2.25,1,0,0,0.2659,fixationPoint,308.2151,308.3143,308.3144,310.9147,16.65598127,4758.851793,286.7208205,s,1,2.5846,,310.9148,311.1149,,,,,,,,30,220,121,-20,165,-166,163,-80,79,-28,-70,-123,-161,-216,-128,20,-120,26,-209,224,-223,216,16,113,168,90,360,180,360,180,180,180,90,360,270,90,,,,,,,,,,,311.115,311.1152,,0,86,86,86,1,14,novel,,,,,,,,,,,,,,,,,,,,,,,,,,,,,,,,,,,,,,,,,,,,,,,,,
,,0128,12,xxx,F,22,2024-02-29_19h48.15.165,MouseEye_CC,2023.2.2,MacIntel,60.24096386,0.594856474,,,1920,1080,32.267,2.94,"326.41, 323.49, 315.41, 317.84, 317.26, 302.56, 300.91",532.76,5.6322258,16.55874385,27.83653633,Passed,55.47179191,,,,,,,,,,,,,,,,,,,,training,6,8,0,left,a,,,,,311.1157,311.3681,16.65598127,-4.66796875,-1.99609375,1,0,0,0.2522,fixationPoint,311.3681,311.4676,311.4677,316.7835,16.65598127,4758.851793,286.7208205,a,1,5.3046,,316.7835,316.9845,,,,,,,,38,121,68,-75,222,-28,32,-171,68,-215,-162,-215,-64,-216,-128,21,-72,24,-166,210,-74,79,165,172,166,360,360,270,180,270,270,90,90,180,180,90,,,,,,,,,,,316.9845,316.9848,,0,87,87,87,1,2,repeated,,,,,,,,,,,,,,,,,,,,,,,,,,,,,,,,,,,,,,,,,,,,,,,,,
,,0128,12,xxx,F,22,2024-02-29_19h48.15.165,MouseEye_CC,2023.2.2,MacIntel,60.24096386,0.594856474,,,1920,1080,32.267,2.94,"326.41, 323.49, 315.41, 317.84, 317.26, 302.56, 300.91",532.76,5.6322258,16.55874385,27.83653633,Passed,55.47179191,,,,,,,,,,,,,,,,,,,,training,6,9,0,left,a,,,,,316.9857,317.1339,16.65598127,1.890625,-0.81640625,1,0,0,0.148,fixationPoint,317.134,317.2329,317.2329,317.8178,16.65598127,4758.851793,286.7208205,a,1,0.5649,,317.8179,318.0164,,,,,,,,33,-116,66,164,29,172,166,172,76,-123,-161,-163,-69,-21,-172,120,-120,162,-65,210,-74,-166,163,-75,222,360,180,180,360,180,360,270,360,180,90,360,,,,,,,,,,,318.0164,318.0166,,0,88,88,88,1,3,repeated,,,,,,,,,,,,,,,,,,,,,,,,,,,,,,,,,,,,,,,,,,,,,,,,,
,,0128,12,xxx,F,22,2024-02-29_19h48.15.165,MouseEye_CC,2023.2.2,MacIntel,60.24096386,0.594856474,,,1920,1080,32.267,2.94,"326.41, 323.49, 315.41, 317.84, 317.26, 302.56, 300.91",532.76,5.6322258,16.55874385,27.83653633,Passed,55.47179191,,,,,,,,,,,,,,,,,,,,training,6,10,0,left,a,,,,,318.0173,318.267,16.65598127,1.2265625,-0.81640625,1,0,0,0.2496,fixationPoint,318.2671,318.3662,318.3663,319.1664,16.65598127,4758.851793,286.7208205,a,1,0.7837,,319.1665,319.3663,,,,,,,,83,-123,-161,218,74,210,221,68,212,-75,222,-171,68,-170,218,219,-168,26,-20,211,-128,-124,-64,-29,-210,360,270,270,360,180,270,270,360,180,270,180,,,,,,,,,,,319.3663,319.3666,,0,89,89,89,1,9,novel,,,,,,,,,,,,,,,,,,,,,,,,,,,,,,,,,,,,,,,,,,,,,,,,,
,,0128,12,xxx,F,22,2024-02-29_19h48.15.165,MouseEye_CC,2023.2.2,MacIntel,60.24096386,0.594856474,,,1920,1080,32.267,2.94,"326.41, 323.49, 315.41, 317.84, 317.26, 302.56, 300.91",532.76,5.6322258,16.55874385,27.83653633,Passed,55.47179191,,,,,,,,,,,,,,,,,,,,training,6,11,0,left,a,,,,,319.3672,319.6993,16.65598127,1.2265625,-0.81640625,1,0,0,0.3319,fixationPoint,319.6994,319.7994,319.7995,325.2353,16.65598127,4758.851793,286.7208205,a,1,5.4201,,325.2354,325.4356,,,,,,,,23,-124,118,22,114,215,164,68,212,-28,-70,-79,-222,-29,-210,64,-80,80,-115,120,-120,-166,163,-116,214,270,270,90,180,180,360,90,180,180,90,270,,,,,,,,,,,325.4356,325.4358,,0,90,90,90,1,15,novel,,,,,,,,,,,,,,,,,,,,,,,,,,,,,,,,,,,,,,,,,,,,,,,,,
,,0128,12,xxx,F,22,2024-02-29_19h48.15.165,MouseEye_CC,2023.2.2,MacIntel,60.24096386,0.594856474,,,1920,1080,32.267,2.94,"326.41, 323.49, 315.41, 317.84, 317.26, 302.56, 300.91",532.76,5.6322258,16.55874385,27.83653633,Passed,55.47179191,,,,,,,,,,,,,,,,,,,,training,6,12,180,right,s,,,,,325.4364,325.6186,16.65598127,-0.234375,-3.640625,1,0,0,0.1822,fixationPoint,325.6187,325.7183,325.7183,326.8191,16.65598127,4758.851793,286.7208205,s,1,1.0804,,326.8192,327.0185,,,,,,,,59,171,-24,160,125,22,28,16,173,-124,163,-80,79,-216,217,-124,-64,-123,-161,-216,-128,69,-213,116,-167,360,90,180,90,180,180,360,270,360,270,270,,,,,,,,,,,327.0185,327.0189,,0,91,91,91,1,12,novel,,,,,,,,,,,,,,,,,,,,,,,,,,,,,,,,,,,,,,,,,,,,,,,,,
,,0128,12,xxx,F,22,2024-02-29_19h48.15.165,MouseEye_CC,2023.2.2,MacIntel,60.24096386,0.594856474,,,1920,1080,32.267,2.94,"326.41, 323.49, 315.41, 317.84, 317.26, 302.56, 300.91",532.76,5.6322258,16.55874385,27.83653633,Passed,55.47179191,,,,,,,,,,,,,,,,,,,,training,6,13,180,right,s,,,,,327.0194,327.1687,16.65598127,-0.4375,-3.640625,1,0,0,0.1492,fixationPoint,327.1687,327.2688,327.2688,328.0683,16.65598127,4758.851793,286.7208205,s,1,0.7864,,328.0684,328.2689,,,,,,,,32,-171,68,16,173,172,76,22,28,-114,-214,-21,-172,-64,-164,26,-20,174,-216,26,-209,-124,118,-124,163,90,90,360,360,360,180,270,270,180,180,180,,,,,,,,,,,328.2691,328.2692,,0,92,92,92,1,16,novel,,,,,,,,,,,,,,,,,,,,,,,,,,,,,,,,,,,,,,,,,,,,,,,,,
,,0128,12,xxx,F,22,2024-02-29_19h48.15.165,MouseEye_CC,2023.2.2,MacIntel,60.24096386,0.594856474,,,1920,1080,32.267,2.94,"326.41, 323.49, 315.41, 317.84, 317.26, 302.56, 300.91",532.76,5.6322258,16.55874385,27.83653633,Passed,55.47179191,,,,,,,,,,,,,,,,,,,,training,6,14,0,left,a,,,,,328.2697,328.4031,16.65598127,-0.4375,-4.07421875,1,0,0,0.1333,fixationPoint,328.4032,328.5017,328.5017,330.7687,16.65598127,4758.851793,286.7208205,a,1,2.2515,,330.7688,330.9702,,,,,,,,18,113,168,-73,160,-116,66,-124,163,-120,-32,-114,-214,-32,-121,24,-166,169,-117,211,-128,164,29,17,212,180,270,360,360,360,360,180,90,360,270,90,,,,,,,,,,,330.9703,330.9705,,0,93,93,93,1,1,repeated,,,,,,,,,,,,,,,,,,,,,,,,,,,,,,,,,,,,,,,,,,,,,,,,,
,,0128,12,xxx,F,22,2024-02-29_19h48.15.165,MouseEye_CC,2023.2.2,MacIntel,60.24096386,0.594856474,,,1920,1080,32.267,2.94,"326.41, 323.49, 315.41, 317.84, 317.26, 302.56, 300.91",532.76,5.6322258,16.55874385,27.83653633,Passed,55.47179191,,,,,,,,,,,,,,,,,,,,training,6,15,0,left,a,,,,,330.9711,331.1682,16.65598127,-0.87109375,-4.2890625,1,0,0,0.197,fixationPoint,331.1682,331.2679,331.2679,332.8552,16.65598127,4758.851793,286.7208205,a,1,1.5689,,332.8553,333.0543,,,,,,,,69,162,-65,218,74,172,76,121,68,-160,124,-124,118,-209,25,-28,-70,-120,-32,-123,-161,114,-68,67,-164,180,270,270,270,270,360,270,270,180,90,180,,,,,,,,,,,333.0543,333.0546,,0,94,94,94,1,8,repeated,,,,,,,,,,,,,,,,,,,,,,,,,,,,,,,,,,,,,,,,,,,,,,,,,
,,0128,12,xxx,F,22,2024-02-29_19h48.15.165,MouseEye_CC,2023.2.2,MacIntel,60.24096386,0.594856474,,,1920,1080,32.267,2.94,"326.41, 323.49, 315.41, 317.84, 317.26, 302.56, 300.91",532.76,5.6322258,16.55874385,27.83653633,Passed,55.47179191,,,,,,,,,,,,,,,,,,,,training,6,16,180,right,s,,,,,333.0551,333.3022,16.65598127,-1.48828125,-4.2890625,1,0,0,0.247,fixationPoint,333.3023,333.4049,333.4049,335.1383,16.65598127,4758.851793,286.7208205,s,1,1.7174,,335.1384,335.3376,,,,,,,,63,-124,-64,210,221,68,212,160,125,-216,126,-20,165,-116,27,163,-175,67,-164,80,-115,-163,-20,-216,-128,180,180,270,360,180,360,270,90,180,360,90,,,,,,,,,,,335.3376,336.138,space,0,95,95,95,1,10,novel,0.7723,,,,,,,,,,,,,,,,,,,,,,,,,,,,,,,,,,,,,,,,,,,,,,,,
,,0128,12,xxx,F,22,2024-02-29_19h48.15.165,MouseEye_CC,2023.2.2,MacIntel,60.24096386,0.594856474,,,1920,1080,32.267,2.94,"326.41, 323.49, 315.41, 317.84, 317.26, 302.56, 300.91",532.76,5.6322258,16.55874385,27.83653633,Passed,55.47179191,,,,,,,,,,,,,,,,,,,,training,7,1,180,right,s,,,,,336.1387,336.6547,16.65598127,-2.53515625,-5.3359375,1,0,0,0.516,fixationPoint,336.6548,336.7536,336.7536,338.4714,16.65598127,4758.851793,286.7208205,s,1,1.7026,,338.4716,338.6715,,,,,,,,18,113,168,-73,160,-116,66,-124,163,-120,-32,-114,-214,-32,-121,24,-166,169,-117,211,-128,164,29,17,212,360,360,180,360,90,180,270,270,270,90,90,,,,,,,,,,,338.6715,338.6733,,0,96,96,96,1,1,repeated,,,,,,,,,,,,,,,,,,,,,,,,,,,,,,,,,,,,,,,,,,,,,,,,,
,,0128,12,xxx,F,22,2024-02-29_19h48.15.165,MouseEye_CC,2023.2.2,MacIntel,60.24096386,0.594856474,,,1920,1080,32.267,2.94,"326.41, 323.49, 315.41, 317.84, 317.26, 302.56, 300.91",532.76,5.6322258,16.55874385,27.83653633,Passed,55.47179191,,,,,,,,,,,,,,,,,,,,training,7,2,180,right,s,,,,,338.6738,338.8707,16.65598127,-2.3359375,-5.3359375,1,0,0,0.1969,fixationPoint,338.8707,338.973,338.9731,341.2558,16.65598127,4758.851793,286.7208205,s,1,2.2784,,341.2559,341.4535,,,,,,,,32,-171,68,17,212,220,121,27,67,-161,-171,-224,-25,-123,-161,120,-120,210,-74,169,-117,-80,79,-169,16,90,270,270,180,360,360,180,180,90,90,270,,,,,,,,,,,341.4536,341.4538,,0,97,97,97,1,16,novel,,,,,,,,,,,,,,,,,,,,,,,,,,,,,,,,,,,,,,,,,,,,,,,,,
,,0128,12,xxx,F,22,2024-02-29_19h48.15.165,MouseEye_CC,2023.2.2,MacIntel,60.24096386,0.594856474,,,1920,1080,32.267,2.94,"326.41, 323.49, 315.41, 317.84, 317.26, 302.56, 300.91",532.76,5.6322258,16.55874385,27.83653633,Passed,55.47179191,,,,,,,,,,,,,,,,,,,,training,7,3,0,left,a,,,,,341.4543,341.6088,16.65598127,-3.84765625,-5.3359375,1,0,0,0.1545,fixationPoint,341.6089,341.7075,341.7075,342.973,16.65598127,4758.851793,286.7208205,a,1,1.2527,,342.973,343.175,,,,,,,,38,121,68,-75,222,-28,32,-171,68,-215,-162,-215,-64,-216,-128,21,-72,24,-166,210,-74,79,165,172,166,270,180,90,90,180,90,270,90,360,90,360,,,,,,,,,,,343.1751,343.1754,,0,98,98,98,1,2,repeated,,,,,,,,,,,,,,,,,,,,,,,,,,,,,,,,,,,,,,,,,,,,,,,,,
,,0128,12,xxx,F,22,2024-02-29_19h48.15.165,MouseEye_CC,2023.2.2,MacIntel,60.24096386,0.594856474,,,1920,1080,32.267,2.94,"326.41, 323.49, 315.41, 317.84, 317.26, 302.56, 300.91",532.76,5.6322258,16.55874385,27.83653633,Passed,55.47179191,,,,,,,,,,,,,,,,,,,,training,7,4,180,right,s,,,,,343.176,343.3392,16.65598127,-5.38671875,-5.3359375,1,0,0,0.163,fixationPoint,343.3392,343.4413,343.4413,344.6235,16.65598127,4758.851793,286.7208205,s,1,1.178,,344.6236,344.8249,,,,,,,,71,-216,-128,164,29,22,28,16,173,-73,160,-169,16,-160,124,214,-28,174,-216,219,-168,-161,-171,-69,-24,90,90,360,360,90,90,90,270,270,360,270,,,,,,,,,,,344.8249,344.8252,,0,99,99,99,1,6,repeated,,,,,,,,,,,,,,,,,,,,,,,,,,,,,,,,,,,,,,,,,,,,,,,,,
,,0128,12,xxx,F,22,2024-02-29_19h48.15.165,MouseEye_CC,2023.2.2,MacIntel,60.24096386,0.594856474,,,1920,1080,32.267,2.94,"326.41, 323.49, 315.41, 317.84, 317.26, 302.56, 300.91",532.76,5.6322258,16.55874385,27.83653633,Passed,55.47179191,,,,,,,,,,,,,,,,,,,,training,7,5,0,left,a,,,,,344.8257,345.1236,16.65598127,-6.67578125,-5.5546875,1,0,0,0.2979,fixationPoint,345.1236,345.223,345.223,346.391,16.65598127,4758.851793,286.7208205,a,1,1.162,,346.391,346.5915,,,,,,,,49,164,29,-80,79,-169,16,-116,214,-161,-171,-32,-121,-124,-64,128,-25,24,-166,125,-215,76,31,113,168,180,360,270,180,90,180,270,90,270,180,270,,,,,,,,,,,346.5915,346.5917,,0,100,100,100,1,13,novel,,,,,,,,,,,,,,,,,,,,,,,,,,,,,,,,,,,,,,,,,,,,,,,,,
,,0128,12,xxx,F,22,2024-02-29_19h48.15.165,MouseEye_CC,2023.2.2,MacIntel,60.24096386,0.594856474,,,1920,1080,32.267,2.94,"326.41, 323.49, 315.41, 317.84, 317.26, 302.56, 300.91",532.76,5.6322258,16.55874385,27.83653633,Passed,55.47179191,,,,,,,,,,,,,,,,,,,,training,7,6,180,right,s,,,,,346.5921,346.9907,16.65598127,-3.8671875,-5.35546875,1,0,0,0.3986,fixationPoint,346.9908,347.0923,347.0923,347.809,16.65598127,4758.851793,286.7208205,s,1,0.7086,,347.809,348.0078,,,,,,,,59,171,-24,76,31,72,114,113,168,-211,161,-209,25,-116,27,-161,-171,-64,-164,-215,-64,67,-164,64,-80,360,180,90,360,270,270,180,90,180,270,90,,,,,,,,,,,348.0079,348.0083,,0,101,101,101,1,12,novel,,,,,,,,,,,,,,,,,,,,,,,,,,,,,,,,,,,,,,,,,,,,,,,,,
,,0128,12,xxx,F,22,2024-02-29_19h48.15.165,MouseEye_CC,2023.2.2,MacIntel,60.24096386,0.594856474,,,1920,1080,32.267,2.94,"326.41, 323.49, 315.41, 317.84, 317.26, 302.56, 300.91",532.76,5.6322258,16.55874385,27.83653633,Passed,55.47179191,,,,,,,,,,,,,,,,,,,,training,7,7,0,left,a,,,,,348.0088,348.3082,16.65598127,-1.84375,-3.8984375,1,0,0,0.2993,fixationPoint,348.3082,348.4091,348.4093,349.673,16.65598127,4758.851793,286.7208205,s,0,1.2475,,349.6731,353.6767,,,,,,,,83,-123,-161,218,74,216,16,118,16,-75,222,-32,76,-124,163,171,-24,64,-80,163,-175,-64,-164,-216,-220,180,360,270,90,180,180,90,180,270,90,90,,,,,,,,,,,353.6768,353.6856,,0,102,102,102,1,9,novel,,,,,,,,,,,,,,,,,,,,,,,,,,,,,,,,,,,,,,,,,,,,,,,,,
,,0128,12,xxx,F,22,2024-02-29_19h48.15.165,MouseEye_CC,2023.2.2,MacIntel,60.24096386,0.594856474,,,1920,1080,32.267,2.94,"326.41, 323.49, 315.41, 317.84, 317.26, 302.56, 300.91",532.76,5.6322258,16.55874385,27.83653633,Passed,55.47179191,,,,,,,,,,,,,,,,,,,,training,7,8,180,right,s,,,,,353.6859,354.5948,16.65598127,-3.49609375,-2.66796875,1,0,0,0.9086,fixationPoint,354.5949,354.6952,354.6952,356.5921,16.65598127,4758.851793,286.7208205,s,1,1.8852,,356.5922,356.7937,,,,,,,,63,-124,-64,76,31,127,120,160,125,-216,126,-160,124,-68,21,128,-25,163,-175,64,-80,-120,-32,-29,-210,180,180,90,90,180,360,270,90,180,90,90,,,,,,,,,,,356.7937,356.7941,,0,103,103,103,1,10,novel,,,,,,,,,,,,,,,,,,,,,,,,,,,,,,,,,,,,,,,,,,,,,,,,,
,,0128,12,xxx,F,22,2024-02-29_19h48.15.165,MouseEye_CC,2023.2.2,MacIntel,60.24096386,0.594856474,,,1920,1080,32.267,2.94,"326.41, 323.49, 315.41, 317.84, 317.26, 302.56, 300.91",532.76,5.6322258,16.55874385,27.83653633,Passed,55.47179191,,,,,,,,,,,,,,,,,,,,training,7,9,180,right,s,,,,,356.7947,357.0095,16.65598127,-2.99609375,-2.66796875,1,0,0,0.2148,fixationPoint,357.0096,357.1104,357.1104,357.7089,16.65598127,4758.851793,286.7208205,s,1,0.5851,,357.7089,357.9101,,,,,,,,52,-163,-20,27,67,215,164,164,29,-160,124,-212,70,-171,68,169,-117,80,-115,116,-167,-163,-69,-216,-128,360,90,90,180,360,90,270,180,90,90,360,,,,,,,,,,,357.9102,357.9105,,0,104,104,104,1,5,repeated,,,,,,,,,,,,,,,,,,,,,,,,,,,,,,,,,,,,,,,,,,,,,,,,,
,,0128,12,xxx,F,22,2024-02-29_19h48.15.165,MouseEye_CC,2023.2.2,MacIntel,60.24096386,0.594856474,,,1920,1080,32.267,2.94,"326.41, 323.49, 315.41, 317.84, 317.26, 302.56, 300.91",532.76,5.6322258,16.55874385,27.83653633,Passed,55.47179191,,,,,,,,,,,,,,,,,,,,training,7,10,180,right,s,,,,,357.9111,358.2106,16.65598127,-4.6328125,-2.66796875,1,0,0,0.2993,fixationPoint,358.2107,358.3097,358.3098,359.91,16.65598127,4758.851793,286.7208205,s,1,1.5926,,359.9101,360.1111,,,,,,,,69,162,-65,218,74,172,76,121,68,-160,124,-124,118,-209,25,-28,-70,-120,-32,-123,-161,114,-68,67,-164,360,270,270,270,180,180,270,360,90,270,360,,,,,,,,,,,360.1111,360.1113,,0,105,105,105,1,8,repeated,,,,,,,,,,,,,,,,,,,,,,,,,,,,,,,,,,,,,,,,,,,,,,,,,
,,0128,12,xxx,F,22,2024-02-29_19h48.15.165,MouseEye_CC,2023.2.2,MacIntel,60.24096386,0.594856474,,,1920,1080,32.267,2.94,"326.41, 323.49, 315.41, 317.84, 317.26, 302.56, 300.91",532.76,5.6322258,16.55874385,27.83653633,Passed,55.47179191,,,,,,,,,,,,,,,,,,,,training,7,11,0,left,a,,,,,360.1116,360.4436,16.65598127,-5.6484375,-3.33203125,1,0,0,0.332,fixationPoint,360.4438,360.543,360.543,362.1127,16.65598127,4758.851793,286.7208205,a,1,1.5589,,362.1128,362.3143,,,,,,,,33,-116,66,164,29,172,166,172,76,-123,-161,-163,-69,-21,-172,120,-120,162,-65,210,-74,-166,163,-75,222,360,270,90,180,360,180,180,270,180,180,180,,,,,,,,,,,362.3144,362.3147,,0,106,106,106,1,3,repeated,,,,,,,,,,,,,,,,,,,,,,,,,,,,,,,,,,,,,,,,,,,,,,,,,
,,0128,12,xxx,F,22,2024-02-29_19h48.15.165,MouseEye_CC,2023.2.2,MacIntel,60.24096386,0.594856474,,,1920,1080,32.267,2.94,"326.41, 323.49, 315.41, 317.84, 317.26, 302.56, 300.91",532.76,5.6322258,16.55874385,27.83653633,Passed,55.47179191,,,,,,,,,,,,,,,,,,,,training,7,12,0,left,a,,,,,362.3153,362.6466,16.65598127,-5.6484375,-3.33203125,1,0,0,0.3312,fixationPoint,362.6467,362.7464,362.7465,364.1805,16.65598127,4758.851793,286.7208205,a,1,1.4199,,364.1805,364.38,,,,,,,,68,114,-68,216,16,76,31,172,166,-73,160,-116,66,-209,25,-123,-161,-114,-214,-64,-164,24,-166,21,-72,360,180,270,90,270,270,360,270,360,90,360,,,,,,,,,,,364.38,364.3802,,0,107,107,107,1,11,novel,,,,,,,,,,,,,,,,,,,,,,,,,,,,,,,,,,,,,,,,,,,,,,,,,
,,0128,12,xxx,F,22,2024-02-29_19h48.15.165,MouseEye_CC,2023.2.2,MacIntel,60.24096386,0.594856474,,,1920,1080,32.267,2.94,"326.41, 323.49, 315.41, 317.84, 317.26, 302.56, 300.91",532.76,5.6322258,16.55874385,27.83653633,Passed,55.47179191,,,,,,,,,,,,,,,,,,,,training,7,13,0,left,a,,,,,364.3808,364.8128,16.65598127,-4.17578125,-3.33203125,1,0,0,0.4319,fixationPoint,364.8129,364.9126,364.9126,365.9963,16.65598127,4758.851793,286.7208205,a,1,1.0712,,365.9964,366.1963,,,,,,,,42,-169,16,72,114,113,168,27,67,-215,-64,-216,-220,-215,-162,214,-28,114,-68,116,-167,-116,66,-124,118,270,360,90,90,180,270,90,360,180,90,360,,,,,,,,,,,366.1963,366.1965,,0,108,108,108,1,4,repeated,,,,,,,,,,,,,,,,,,,,,,,,,,,,,,,,,,,,,,,,,,,,,,,,,
,,0128,12,xxx,F,22,2024-02-29_19h48.15.165,MouseEye_CC,2023.2.2,MacIntel,60.24096386,0.594856474,,,1920,1080,32.267,2.94,"326.41, 323.49, 315.41, 317.84, 317.26, 302.56, 300.91",532.76,5.6322258,16.55874385,27.83653633,Passed,55.47179191,,,,,,,,,,,,,,,,,,,,training,7,14,0,left,a,,,,,366.1968,366.6298,16.65598127,-1.63671875,-4.1875,1,0,0,0.4329,fixationPoint,366.6298,366.7308,366.7308,367.8971,16.65598127,4758.851793,286.7208205,a,1,1.1557,,367.8973,368.0956,,,,,,,,23,-124,118,65,80,118,16,76,31,-215,-64,-216,-220,-32,-121,67,-164,114,-68,219,-168,-68,21,-116,66,270,360,270,360,360,270,180,180,360,270,180,,,,,,,,,,,368.0957,368.0958,,0,109,109,109,1,15,novel,,,,,,,,,,,,,,,,,,,,,,,,,,,,,,,,,,,,,,,,,,,,,,,,,
,,0128,12,xxx,F,22,2024-02-29_19h48.15.165,MouseEye_CC,2023.2.2,MacIntel,60.24096386,0.594856474,,,1920,1080,32.267,2.94,"326.41, 323.49, 315.41, 317.84, 317.26, 302.56, 300.91",532.76,5.6322258,16.55874385,27.83653633,Passed,55.47179191,,,,,,,,,,,,,,,,,,,,training,7,15,0,left,a,,,,,368.0964,368.3801,16.65598127,-1.13671875,-4.1875,1,0,0,0.2836,fixationPoint,368.3801,368.4797,368.4798,370.1789,16.65598127,4758.851793,286.7208205,a,1,1.6816,,370.179,370.3796,,,,,,,,78,120,-120,72,114,79,165,172,76,-68,21,-212,70,-116,214,-69,-24,-168,-124,-163,-69,174,-216,69,-213,360,270,90,180,90,360,360,90,180,90,360,,,,,,,,,,,370.3796,370.3799,,0,110,110,110,1,7,repeated,,,,,,,,,,,,,,,,,,,,,,,,,,,,,,,,,,,,,,,,,,,,,,,,,
,,0128,12,xxx,F,22,2024-02-29_19h48.15.165,MouseEye_CC,2023.2.2,MacIntel,60.24096386,0.594856474,,,1920,1080,32.267,2.94,"326.41, 323.49, 315.41, 317.84, 317.26, 302.56, 300.91",532.76,5.6322258,16.55874385,27.83653633,Passed,55.47179191,,,,,,,,,,,,,,,,,,,,training,7,16,180,right,s,,,,,370.3806,370.596,16.65598127,-1.33984375,-4.1875,1,0,0,0.2154,fixationPoint,370.5961,370.6964,370.6964,371.7972,16.65598127,4758.851793,286.7208205,s,1,1.0857,,371.7972,371.9967,,,,,,,,30,220,121,-32,222,-216,217,-116,214,-28,-70,-215,-64,-79,-222,24,-166,174,-216,125,-215,65,80,68,212,90,180,180,270,270,180,270,180,180,270,180,,,,,,,,,,,371.9968,372.6998,space,0,111,111,111,1,14,novel,0.6822,,,,,,,,,,,,,,,,,,,,,,,,,,,,,,,,,,,,,,,,,,,,,,,,
,,0128,12,xxx,F,22,2024-02-29_19h48.15.165,MouseEye_CC,2023.2.2,MacIntel,60.24096386,0.594856474,,,1920,1080,32.267,2.94,"326.41, 323.49, 315.41, 317.84, 317.26, 302.56, 300.91",532.76,5.6322258,16.55874385,27.83653633,Passed,55.47179191,,,,,,,,,,,,,,,,,,,,training,8,1,0,left,a,,,,,372.7004,373.246,16.65598127,-1.33984375,-4.61328125,1,0,0,0.5455,fixationPoint,373.2461,373.3462,373.3463,374.5464,16.65598127,4758.851793,286.7208205,a,1,1.1923,,374.5465,374.7468,,,,,,,,18,113,168,-73,160,-116,66,-124,163,-120,-32,-114,-214,-32,-121,24,-166,169,-117,211,-128,164,29,17,212,270,360,90,180,360,270,90,90,90,360,360,,,,,,,,,,,374.7469,374.7483,,0,112,112,112,1,1,repeated,,,,,,,,,,,,,,,,,,,,,,,,,,,,,,,,,,,,,,,,,,,,,,,,,
,,0128,12,xxx,F,22,2024-02-29_19h48.15.165,MouseEye_CC,2023.2.2,MacIntel,60.24096386,0.594856474,,,1920,1080,32.267,2.94,"326.41, 323.49, 315.41, 317.84, 317.26, 302.56, 300.91",532.76,5.6322258,16.55874385,27.83653633,Passed,55.47179191,,,,,,,,,,,,,,,,,,,,training,8,2,0,left,a,,,,,374.7488,374.9472,16.65598127,1.14453125,-4.61328125,1,0,0,0.1983,fixationPoint,374.9472,375.0499,375.05,377.0634,16.65598127,4758.851793,286.7208205,a,1,1.9986,,377.0635,377.2641,,,,,,,,63,-124,-64,65,80,17,212,113,168,-32,76,-171,68,-212,70,210,-74,20,-120,169,-117,-224,-25,-163,-69,270,360,270,90,360,360,90,270,90,90,270,,,,,,,,,,,377.2642,377.2644,,0,113,113,113,1,10,novel,,,,,,,,,,,,,,,,,,,,,,,,,,,,,,,,,,,,,,,,,,,,,,,,,
