InstrStartPage.started,InstrStartPage.stopped,participant,designid,prolificid,Gender,Age,date,expName,psychopyVersion,OS,frameRate,ratio_monitor2CRT,VirtualChinrest.started,VirtualChinrest.stopped,xRes,yRes,viewingdistance_cm,pixeldensity_px2mm,BallPos,squarePos,mm2degree,px2degree,CRT_px2degree,PassVirtualChinrest,foveaRadius_inPixel,InstrRedo.started,InstrRedo.stopped,VirtualChinrest_Redo.started,VirtualChinrest_Redo.stopped,Redo_virtualChinrest,Instruction1.started,Instruction1.stopped,keyPractice.started,keyPractice.stopped,key_keyprac.keys,key_keyprac.corr,key_keyprac.rt,key_keyprac.duration,keyPracFeedback.started,keyPracFeedback.stopped,keyPracLoop.thisRepN,keyPracLoop.thisTrialN,keyPracLoop.thisN,keyPracLoop.thisIndex,keyPracLoop.ran,phase,block,trial,targOrientdeg,targOrient,corrAnswer,Instruction2.started,Instruction2.stopped,Instruction3.started,Instruction3.stopped,fixation.started,fixation.stopped,fixationSize,mouseintial.x,mouseintial.y,mouseintial.leftButton,mouseintial.midButton,mouseintial.rightButton,mouseintial.time,mouseintial.clicked_name,greenFixation.started,greenFixation.stopped,trial.started,trial.stopped,letterSize,apertureSize,searchsize,key_respMain.keys,key_respMain.corr,key_respMain.rt,key_respMain.duration,trialFeedback.started,trialFeedback.stopped,trialsPractice.thisRepN,trialsPractice.thisTrialN,trialsPractice.thisN,trialsPractice.thisIndex,trialsPractice.ran,targetQuad,Tcondition,targcell,tlocx,tlocy,d1x,d1y,d2x,d2y,d3x,d3y,d4x,d4y,d5x,d5y,d6x,d6y,d7x,d7y,d8x,d8y,d9x,d9y,d10x,d10y,d11x,d11y,d1Orient,d2Orient,d3Orient,d4Orient,d5Orient,d6Orient,d7Orient,d8Orient,d9Orient,d10Orient,d11Orient,CheckInstr.started,CheckInstr.stopped,key_checkInstr.keys,key_checkInstr.corr,key_checkInstr.rt,key_checkInstr.duration,CheckInstr_FB.started,CheckInstr_FB.stopped,Instruction_MainExp.started,Instruction_MainExp.stopped,TakeABreak.started,TakeABreak.stopped,key_respBreak.keys,trials.thisRepN,trials.thisTrialN,trials.thisN,trials.thisIndex,trials.ran,configurationNumber,CCCondition,key_respBreak.rt,key_respBreak.duration,displayTestingPhase.started,displayTestingPhase.stopped,key_respTesting.keys,key_respTesting.corr,key_respTesting.rt,key_respTesting.duration,TakeABreak2.started,TakeABreak2.stopped,key_RespBreak.keys,Testingtrials.thisRepN,Testingtrials.thisTrialN,Testingtrials.thisN,Testingtrials.thisIndex,Testingtrials.ran,key_RespBreak.rt,key_RespBreak.duration,RecogQuestion.started,RecogQuestion.stopped,key_AnswerQues.keys,key_AnswerQues.rt,key_AnswerQues.duration,Disclose.started,Disclose.stopped,InstrRT.started,InstrRT.stopped,fixation_RT.started,fixation_RT.stopped,mouseInitial.x,mouseInitial.y,mouseInitial.leftButton,mouseInitial.midButton,mouseInitial.rightButton,mouseInitial.time,mouseInitial.clicked_name,displayRT.started,displayRT.stopped,key_respRT.keys,key_respRT.corr,key_respRT.rt,key_respRT.duration,RTtrials.thisRepN,RTtrials.thisTrialN,RTtrials.thisN,RTtrials.thisIndex,RTtrials.ran,EndOfExperiment.started,EndOfExperiment.stopped
0.0004,5.2773,11,4,${e://Field/PROLIFIC_PID,F,18,2023-11-03_08h15.31.934,MouseEye_CC,2023.2.2,Win32,48.03766153,1,,,,,,,,,,,,,,,,,,,,,,,,,,,,,,,,,,,,,,,,,,,,,,,,,,,,,,,,,,,,,,,,,,,,,,,,,,,,,,,,,,,,,,,,,,,,,,,,,,,,,,,,,,,,,,,,,,,,,,,,,,,,,,,,,,,,,,,,,,,,,,,,,,,,,,,,,,,,,,,,,,,,,,,,,,,,,,,,,,
,,11,4,${e://Field/PROLIFIC_PID,F,18,2023-11-03_08h15.31.934,MouseEye_CC,2023.2.2,Win32,48.03766153,1.809007171,5.2775,122.1748,1536,864,60.992,4.73,"25.88, 23.54, 520.36, 16.75, 22.88, 27.48, 525.32",816.64,10.6461932,50.35649384,27.83653633,Failed,168.6942544,,,,,,,,,,,,,,,,,,,,,,,,,,,,,,,,,,,,,,,,,,,,,,,,,,,,,,,,,,,,,,,,,,,,,,,,,,,,,,,,,,,,,,,,,,,,,,,,,,,,,,,,,,,,,,,,,,,,,,,,,,,,,,,,,,,,,,,,,,,,,,,,,,,,,,,,,,,,,,,,,,,,,
,,11,4,${e://Field/PROLIFIC_PID,F,18,2023-11-03_08h15.31.934,MouseEye_CC,2023.2.2,Win32,48.03766153,1.809007171,,,1536,864,60.992,4.73,"25.88, 23.54, 520.36, 16.75, 22.88, 27.48, 525.32",816.64,10.6461932,50.35649384,27.83653633,Failed,168.6942544,122.1751,129.111,,,,,,,,,,,,,,,,,,,,,,,,,,,,,,,,,,,,,,,,,,,,,,,,,,,,,,,,,,,,,,,,,,,,,,,,,,,,,,,,,,,,,,,,,,,,,,,,,,,,,,,,,,,,,,,,,,,,,,,,,,,,,,,,,,,,,,,,,,,,,,,,,,,,,,,,,,,,,,,,,,,
,,11,4,${e://Field/PROLIFIC_PID,F,18,2023-11-03_08h15.31.934,MouseEye_CC,2023.2.2,Win32,48.03766153,1.28,,,1536,864,49.872,4.73,"25.88, 23.54, 520.36, 16.75, 22.88, 27.48, 525.32",816.64,8.705189981,41.17554861,27.83653633,Failed,137.9380878,,,129.1111,182.7584,failed,,,,,,,,,,,,,,,,,,,,,,,,,,,,,,,,,,,,,,,,,,,,,,,,,,,,,,,,,,,,,,,,,,,,,,,,,,,,,,,,,,,,,,,,,,,,,,,,,,,,,,,,,,,,,,,,,,,,,,,,,,,,,,,,,,,,,,,,,,,,,,,,,,,,,,,,,,,,,,,,
,,11,4,${e://Field/PROLIFIC_PID,F,18,2023-11-03_08h15.31.934,MouseEye_CC,2023.2.2,Win32,48.03766153,1.28,,,1536,864,49.872,4.73,"25.88, 23.54, 520.36, 16.75, 22.88, 27.48, 525.32",816.64,8.705189981,41.17554861,27.83653633,Failed,137.9380878,,,,,,182.7588,250.2148,,,,,,,,,,,,,,,,,,,,,,,,,,,,,,,,,,,,,,,,,,,,,,,,,,,,,,,,,,,,,,,,,,,,,,,,,,,,,,,,,,,,,,,,,,,,,,,,,,,,,,,,,,,,,,,,,,,,,,,,,,,,,,,,,,,,,,,,,,,,,,,,,,,,,,,,,,,,,,
,,11,4,${e://Field/PROLIFIC_PID,F,18,2023-11-03_08h15.31.934,MouseEye_CC,2023.2.2,Win32,48.03766153,1.28,,,1536,864,49.872,4.73,"25.88, 23.54, 520.36, 16.75, 22.88, 27.48, 525.32",816.64,8.705189981,41.17554861,27.83653633,Failed,137.9380878,,,,,,,,250.2265,251.9663,s,0,1.2088,,251.9664,252.4588,0,0,0,0,1,practice,1,1,0,left,a,,,,,,,,,,,,,,,,,,,,,,,,,,,,,,,,,,,,,,,,,,,,,,,,,,,,,,,,,,,,,,,,,,,,,,,,,,,,,,,,,,,,,,,,,,,,,,,,,,,,,,,,,,,,,,,,,,,,,,,,,,,,,,,,,,,,,,,,,,,
,,11,4,${e://Field/PROLIFIC_PID,F,18,2023-11-03_08h15.31.934,MouseEye_CC,2023.2.2,Win32,48.03766153,1.28,,,1536,864,49.872,4.73,"25.88, 23.54, 520.36, 16.75, 22.88, 27.48, 525.32",816.64,8.705189981,41.17554861,27.83653633,Failed,137.9380878,,,,,,,,252.4593,260.9797,a,1,7.9638,,260.9797,261.4659,0,1,1,1,1,practice,1,2,0,left,a,,,,,,,,,,,,,,,,,,,,,,,,,,,,,,,,,,,,,,,,,,,,,,,,,,,,,,,,,,,,,,,,,,,,,,,,,,,,,,,,,,,,,,,,,,,,,,,,,,,,,,,,,,,,,,,,,,,,,,,,,,,,,,,,,,,,,,,,,,,
,,11,4,${e://Field/PROLIFIC_PID,F,18,2023-11-03_08h15.31.934,MouseEye_CC,2023.2.2,Win32,48.03766153,1.28,,,1536,864,49.872,4.73,"25.88, 23.54, 520.36, 16.75, 22.88, 27.48, 525.32",816.64,8.705189981,41.17554861,27.83653633,Failed,137.9380878,,,,,,,,261.4662,262.772,a,1,0.7508,,262.772,263.2784,0,2,2,2,1,practice,1,3,0,left,a,,,,,,,,,,,,,,,,,,,,,,,,,,,,,,,,,,,,,,,,,,,,,,,,,,,,,,,,,,,,,,,,,,,,,,,,,,,,,,,,,,,,,,,,,,,,,,,,,,,,,,,,,,,,,,,,,,,,,,,,,,,,,,,,,,,,,,,,,,,
,,11,4,${e://Field/PROLIFIC_PID,F,18,2023-11-03_08h15.31.934,MouseEye_CC,2023.2.2,Win32,48.03766153,1.28,,,1536,864,49.872,4.73,"25.88, 23.54, 520.36, 16.75, 22.88, 27.48, 525.32",816.64,8.705189981,41.17554861,27.83653633,Failed,137.9380878,,,,,,,,263.2786,264.4379,s,1,0.6248,,264.4379,264.9243,0,3,3,3,1,practice,1,4,180,right,s,,,,,,,,,,,,,,,,,,,,,,,,,,,,,,,,,,,,,,,,,,,,,,,,,,,,,,,,,,,,,,,,,,,,,,,,,,,,,,,,,,,,,,,,,,,,,,,,,,,,,,,,,,,,,,,,,,,,,,,,,,,,,,,,,,,,,,,,,,,
,,11,4,${e://Field/PROLIFIC_PID,F,18,2023-11-03_08h15.31.934,MouseEye_CC,2023.2.2,Win32,48.03766153,1.28,,,1536,864,49.872,4.73,"25.88, 23.54, 520.36, 16.75, 22.88, 27.48, 525.32",816.64,8.705189981,41.17554861,27.83653633,Failed,137.9380878,,,,,,,,264.9245,266.8339,s,1,1.3759,,266.834,267.3406,0,4,4,4,1,practice,1,5,180,right,s,,,,,,,,,,,,,,,,,,,,,,,,,,,,,,,,,,,,,,,,,,,,,,,,,,,,,,,,,,,,,,,,,,,,,,,,,,,,,,,,,,,,,,,,,,,,,,,,,,,,,,,,,,,,,,,,,,,,,,,,,,,,,,,,,,,,,,,,,,,
,,11,4,${e://Field/PROLIFIC_PID,F,18,2023-11-03_08h15.31.934,MouseEye_CC,2023.2.2,Win32,48.03766153,1.28,,,1536,864,49.872,4.73,"25.88, 23.54, 520.36, 16.75, 22.88, 27.48, 525.32",816.64,8.705189981,41.17554861,27.83653633,Failed,137.9380878,,,,,,,,267.3409,268.704,a,1,0.8214,,268.704,269.2095,0,5,5,5,1,practice,1,6,0,left,a,,,,,,,,,,,,,,,,,,,,,,,,,,,,,,,,,,,,,,,,,,,,,,,,,,,,,,,,,,,,,,,,,,,,,,,,,,,,,,,,,,,,,,,,,,,,,,,,,,,,,,,,,,,,,,,,,,,,,,,,,,,,,,,,,,,,,,,,,,,
,,11,4,${e://Field/PROLIFIC_PID,F,18,2023-11-03_08h15.31.934,MouseEye_CC,2023.2.2,Win32,48.03766153,1.28,,,1536,864,49.872,4.73,"25.88, 23.54, 520.36, 16.75, 22.88, 27.48, 525.32",816.64,8.705189981,41.17554861,27.83653633,Failed,137.9380878,,,,,,,,269.2102,270.2927,s,1,0.5692,,270.2928,270.7924,0,6,6,6,1,practice,1,7,180,right,s,,,,,,,,,,,,,,,,,,,,,,,,,,,,,,,,,,,,,,,,,,,,,,,,,,,,,,,,,,,,,,,,,,,,,,,,,,,,,,,,,,,,,,,,,,,,,,,,,,,,,,,,,,,,,,,,,,,,,,,,,,,,,,,,,,,,,,,,,,,
,,11,4,${e://Field/PROLIFIC_PID,F,18,2023-11-03_08h15.31.934,MouseEye_CC,2023.2.2,Win32,48.03766153,1.28,,,1536,864,49.872,4.73,"25.88, 23.54, 520.36, 16.75, 22.88, 27.48, 525.32",816.64,8.705189981,41.17554861,27.83653633,Failed,137.9380878,,,,,,,,,,,,,,,,,,,,,,,,,,,270.7936,281.3354,,,,,,,,,,,,,,,,,,,,,,,,,,,,,,,,,,,,,,,,,,,,,,,,,,,,,,,,,,,,,,,,,,,,,,,,,,,,,,,,,,,,,,,,,,,,,,,,,,,,,,,,,,,,,,,,,,,,,,,,,,,,,,,,,,,,,,,,,
,,11,4,${e://Field/PROLIFIC_PID,F,18,2023-11-03_08h15.31.934,MouseEye_CC,2023.2.2,Win32,48.03766153,1.28,,,1536,864,49.872,4.73,"25.88, 23.54, 520.36, 16.75, 22.88, 27.48, 525.32",816.64,8.705189981,41.17554861,27.83653633,Failed,137.9380878,,,,,,,,,,,,,,,,,,,,,,,,,,,,,281.3357,287.1475,,,,,,,,,,,,,,,,,,,,,,,,,,,,,,,,,,,,,,,,,,,,,,,,,,,,,,,,,,,,,,,,,,,,,,,,,,,,,,,,,,,,,,,,,,,,,,,,,,,,,,,,,,,,,,,,,,,,,,,,,,,,,,,,,,,,,,,
,,11,4,${e://Field/PROLIFIC_PID,F,18,2023-11-03_08h15.31.934,MouseEye_CC,2023.2.2,Win32,48.03766153,1.28,,,1536,864,49.872,4.73,"25.88, 23.54, 520.36, 16.75, 22.88, 27.48, 525.32",816.64,8.705189981,41.17554861,27.83653633,Failed,137.9380878,,,,,,,,,,,,,,,,,,,,,practice,0,1,0,left,a,,,,,287.1688,290.19,35.84,10.40002441,8.799987793,1,0,0,3.0207,fixationPoint,290.1901,290.2995,290.2997,292.9865,35.84,10240,616.96,a,1,2.6661,,292.9867,293.1745,0,0,0,0,1,4,sparse,90,217,-164,68,123,222,26,214,216,-218,159,-120,223,-110,82,-115,-130,-224,-120,-68,-219,79,-175,19,-128,90,270,360,90,270,270,180,90,90,90,270,,,,,,,,,,,,,,,,,,,,,,,,,,,,,,,,,,,,,,,,,,,,,,,,,,,,,,,,,,,,,,,,,,,,,
,,11,4,${e://Field/PROLIFIC_PID,F,18,2023-11-03_08h15.31.934,MouseEye_CC,2023.2.2,Win32,48.03766153,1.28,,,1536,864,49.872,4.73,"25.88, 23.54, 520.36, 16.75, 22.88, 27.48, 525.32",816.64,8.705189981,41.17554861,27.83653633,Failed,137.9380878,,,,,,,,,,,,,,,,,,,,,practice,0,2,0,left,a,,,,,293.1749,294.1463,35.84,12.79998779,2.399993896,1,0,0,0.9714,fixationPoint,294.1464,294.2367,294.2367,297.6948,35.84,10240,616.96,a,1,3.4379,,297.6948,297.8817,0,1,1,1,1,1,rich,39,169,66,-126,125,-169,169,-130,19,-169,-116,-125,-167,-224,-216,218,-129,171,-218,18,-208,166,26,17,170,180,90,360,270,90,90,90,270,180,180,270,,,,,,,,,,,,,,,,,,,,,,,,,,,,,,,,,,,,,,,,,,,,,,,,,,,,,,,,,,,,,,,,,,,,,
,,11,4,${e://Field/PROLIFIC_PID,F,18,2023-11-03_08h15.31.934,MouseEye_CC,2023.2.2,Win32,48.03766153,1.28,,,1536,864,49.872,4.73,"25.88, 23.54, 520.36, 16.75, 22.88, 27.48, 525.32",816.64,8.705189981,41.17554861,27.83653633,Failed,137.9380878,,,,,,,,,,,,,,,,,,,,,practice,0,3,0,left,a,,,,,297.882,298.5697,35.84,-6.399963379,8,1,0,0,0.6875,fixationPoint,298.5697,298.6673,298.6674,301.1322,35.84,10240,616.96,s,0,2.438,,301.1323,305.1261,0,2,2,2,1,2,sparse,22,-162,126,222,26,17,170,126,172,-25,-117,-175,-206,-224,-216,116,-19,130,-174,217,-164,-218,159,-21,162,90,90,180,360,360,270,360,360,360,360,180,,,,,,,,,,,,,,,,,,,,,,,,,,,,,,,,,,,,,,,,,,,,,,,,,,,,,,,,,,,,,,,,,,,,,
,,11,4,${e://Field/PROLIFIC_PID,F,18,2023-11-03_08h15.31.934,MouseEye_CC,2023.2.2,Win32,48.03766153,1.28,,,1536,864,49.872,4.73,"25.88, 23.54, 520.36, 16.75, 22.88, 27.48, 525.32",816.64,8.705189981,41.17554861,27.83653633,Failed,137.9380878,,,,,,,,,,,,,,,,,,,,,practice,0,4,180,right,s,,,,,305.1333,305.7786,35.84,-9.599975586,-4.800018311,1,0,0,0.6451,fixationPoint,305.7787,305.8863,305.8864,311.55,35.84,10240,616.96,s,1,5.6442,,311.55,311.7579,0,3,3,3,1,4,sparse,76,19,-128,159,121,214,216,219,165,-218,159,-162,126,-219,119,-169,-116,-111,-31,-175,-206,18,-208,81,-114,90,270,180,180,270,180,360,360,360,270,360,,,,,,,,,,,,,,,,,,,,,,,,,,,,,,,,,,,,,,,,,,,,,,,,,,,,,,,,,,,,,,,,,,,,,
,,11,4,${e://Field/PROLIFIC_PID,F,18,2023-11-03_08h15.31.934,MouseEye_CC,2023.2.2,Win32,48.03766153,1.28,,,1536,864,49.872,4.73,"25.88, 23.54, 520.36, 16.75, 22.88, 27.48, 525.32",816.64,8.705189981,41.17554861,27.83653633,Failed,137.9380878,,,,,,,,,,,,,,,,,,,,,practice,0,5,180,right,s,,,,,311.7581,312.459,35.84,2.400024414,-10.3999939,1,0,0,0.7007,fixationPoint,312.4591,312.5508,312.5508,313.6262,35.84,10240,616.96,s,1,1.0459,,313.6262,313.8203,0,4,4,4,1,3,sparse,85,-19,-173,219,165,68,123,214,216,-160,68,-64,120,-226,34,162,-21,224,-216,167,-163,-167,-74,-224,-216,360,360,360,90,180,270,90,360,270,270,360,,,,,,,,,,,,,,,,,,,,,,,,,,,,,,,,,,,,,,,,,,,,,,,,,,,,,,,,,,,,,,,,,,,,,
,,11,4,${e://Field/PROLIFIC_PID,F,18,2023-11-03_08h15.31.934,MouseEye_CC,2023.2.2,Win32,48.03766153,1.28,,,1536,864,49.872,4.73,"25.88, 23.54, 520.36, 16.75, 22.88, 27.48, 525.32",816.64,8.705189981,41.17554861,27.83653633,Failed,137.9380878,,,,,,,,,,,,,,,,,,,,,practice,0,6,180,right,s,,,,,313.8205,314.9385,35.84,-4,-24,1,0,0,0.5346,fixationPoint,314.9385,315.0289,315.0289,316.1471,35.84,10240,616.96,s,1,1.0953,,316.1471,316.3344,0,5,5,5,1,3,sparse,95,-21,-224,126,172,219,165,166,26,-166,207,-223,206,-219,119,169,-75,18,-208,224,-216,-72,-121,-115,-130,180,180,360,180,360,180,270,180,90,180,360,,,,,,,,,,,,,,,,,,,,,,,,,,,,,,,,,,,,,,,,,,,,,,,,,,,,,,,,,,,,,,,,,,,,,
,,11,4,${e://Field/PROLIFIC_PID,F,18,2023-11-03_08h15.31.934,MouseEye_CC,2023.2.2,Win32,48.03766153,1.28,,,1536,864,49.872,4.73,"25.88, 23.54, 520.36, 16.75, 22.88, 27.48, 525.32",816.64,8.705189981,41.17554861,27.83653633,Failed,137.9380878,,,,,,,,,,,,,,,,,,,,,practice,0,7,0,left,a,,,,,316.3347,316.8338,35.84,9.600036621,7.199981689,1,0,0,0.4988,fixationPoint,316.8339,316.9246,316.9246,319.3134,35.84,10240,616.96,a,1,2.3556,,319.3134,319.5013,0,6,6,6,1,1,rich,7,62,223,-166,207,-226,34,-162,126,-169,-116,-168,-160,-161,-27,15,-162,162,-21,79,-175,219,165,219,129,180,180,360,180,270,360,180,360,270,180,360,,,,,,,,,,,,,,,,,,,,,,,,,,,,,,,,,,,,,,,,,,,,,,,,,,,,,,,,,,,,,,,,,,,,,
,,11,4,${e://Field/PROLIFIC_PID,F,18,2023-11-03_08h15.31.934,MouseEye_CC,2023.2.2,Win32,48.03766153,1.28,,,1536,864,49.872,4.73,"25.88, 23.54, 520.36, 16.75, 22.88, 27.48, 525.32",816.64,8.705189981,41.17554861,27.83653633,Failed,137.9380878,,,,,,,,,,,,,,,,,,,,,practice,0,8,180,right,s,,,,,319.5018,320.0009,35.84,-4,8.799987793,1,0,0,0.4986,fixationPoint,320.0009,320.0909,320.0909,321.9461,35.84,10240,616.96,s,1,1.8341,,321.9461,322.1533,0,7,7,7,1,2,sparse,24,-64,120,18,215,126,172,33,121,-206,-170,-64,-162,-218,-78,130,-174,211,-74,168,-130,-164,32,-21,162,90,180,270,360,180,90,180,180,180,360,270,,,,,,,,,,,,,,,,,,,,,,,,,,,,,,,,,,,,,,,,,,,,,,,,,,,,,,,,,,,,,,,,,,,,,
,,11,4,${e://Field/PROLIFIC_PID,F,18,2023-11-03_08h15.31.934,MouseEye_CC,2023.2.2,Win32,48.03766153,1.28,,,1536,864,49.872,4.73,"25.88, 23.54, 520.36, 16.75, 22.88, 27.48, 525.32",816.64,8.705189981,41.17554861,27.83653633,Failed,137.9380878,,,,,,,,,,,,,,,,,,,,,practice,0,9,180,right,s,,,,,322.1535,322.6054,35.84,4.799987793,7.199981689,1,0,0,0.4518,fixationPoint,322.6055,322.6956,322.6957,324.7165,35.84,10240,616.96,s,1,2,,324.7165,324.9038,0,8,8,8,1,3,sparse,85,-19,-173,127,30,62,223,217,67,-110,82,-21,162,-80,218,167,-163,126,-79,130,-174,-125,-167,-68,-219,360,360,360,180,360,360,180,270,90,360,180,,,,,,,,,,,,,,,,,,,,,,,,,,,,,,,,,,,,,,,,,,,,,,,,,,,,,,,,,,,,,,,,,,,,,
,,11,4,${e://Field/PROLIFIC_PID,F,18,2023-11-03_08h15.31.934,MouseEye_CC,2023.2.2,Win32,48.03766153,1.28,,,1536,864,49.872,4.73,"25.88, 23.54, 520.36, 16.75, 22.88, 27.48, 525.32",816.64,8.705189981,41.17554861,27.83653633,Failed,137.9380878,,,,,,,,,,,,,,,,,,,,,practice,0,10,180,right,s,,,,,324.9041,325.5007,35.84,6.400024414,-14.3999939,1,0,0,0.5966,fixationPoint,325.5008,325.591,325.591,327.2583,35.84,10240,616.96,s,1,1.6463,,327.2584,327.4662,0,9,9,9,1,1,rich,9,160,209,-166,207,-226,34,-120,223,-224,-120,-118,-217,-218,-78,112,-209,126,-113,169,-75,178,160,110,129,180,90,90,270,360,270,360,180,360,180,360,,,,,,,,,,,,,,,,,,,,,,,,,,,,,,,,,,,,,,,,,,,,,,,,,,,,,,,,,,,,,,,,,,,,,
,,11,4,${e://Field/PROLIFIC_PID,F,18,2023-11-03_08h15.31.934,MouseEye_CC,2023.2.2,Win32,48.03766153,1.28,,,1536,864,49.872,4.73,"25.88, 23.54, 520.36, 16.75, 22.88, 27.48, 525.32",816.64,8.705189981,41.17554861,27.83653633,Failed,137.9380878,,,,,,,,,,,,,,,,,,,,,practice,0,11,180,right,s,,,,,327.4666,327.9455,35.84,-5.599975586,-8.800018311,1,0,0,0.4788,fixationPoint,327.9456,328.0423,328.0424,331.3763,35.84,10240,616.96,s,1,3.2929,,331.3763,331.5704,0,10,10,10,1,4,sparse,80,218,-129,62,223,159,121,110,129,-218,159,-223,206,-75,173,-169,-116,-118,-217,-125,-167,217,-164,169,-75,360,270,360,180,360,180,180,270,360,180,90,,,,,,,,,,,,,,,,,,,,,,,,,,,,,,,,,,,,,,,,,,,,,,,,,,,,,,,,,,,,,,,,,,,,,
,,11,4,${e://Field/PROLIFIC_PID,F,18,2023-11-03_08h15.31.934,MouseEye_CC,2023.2.2,Win32,48.03766153,1.28,,,1536,864,49.872,4.73,"25.88, 23.54, 520.36, 16.75, 22.88, 27.48, 525.32",816.64,8.705189981,41.17554861,27.83653633,Failed,137.9380878,,,,,,,,,,,,,,,,,,,,,practice,0,12,0,left,a,,,,,331.5706,332.0495,35.84,-3.200012207,-9.600006104,1,0,0,0.4788,fixationPoint,332.0496,332.1472,332.1472,334.0432,35.84,10240,616.96,a,1,1.8615,,334.0432,334.2372,0,11,11,11,1,3,sparse,75,-25,-117,110,129,125,63,214,216,-164,32,-27,117,-126,125,171,-218,126,-113,167,-163,-21,-224,-212,-21,270,180,180,360,180,270,360,270,360,180,270,,,,,,,,,,,,,,,,,,,,,,,,,,,,,,,,,,,,,,,,,,,,,,,,,,,,,,,,,,,,,,,,,,,,,
,,11,4,${e://Field/PROLIFIC_PID,F,18,2023-11-03_08h15.31.934,MouseEye_CC,2023.2.2,Win32,48.03766153,1.28,,,1536,864,49.872,4.73,"25.88, 23.54, 520.36, 16.75, 22.88, 27.48, 525.32",816.64,8.705189981,41.17554861,27.83653633,Failed,137.9380878,,,,,,,,,,,,,,,,,,,,,,,,,,,,,,,,,,,,,,,,,,,,,,,,,,,,,,,,,,,,,,,,,,,,,,,,,,,,,,,,,,,,,,,,,,,,,,,,,334.2377,340.6898,a,1,6.4246,,,,,,,,,,,,,,,,,,,,,,,,,,,,,,,,,,,,,,,,,,,,,,,,,,,,,,,,,,,,,,,,
,,11,4,${e://Field/PROLIFIC_PID,F,18,2023-11-03_08h15.31.934,MouseEye_CC,2023.2.2,Win32,48.03766153,1.28,,,1536,864,49.872,4.73,"25.88, 23.54, 520.36, 16.75, 22.88, 27.48, 525.32",816.64,8.705189981,41.17554861,27.83653633,Failed,137.9380878,,,,,,,,,,,,,,,,,,,,,,,,,,,,,,,,,,,,,,,,,,,,,,,,,,,,,,,,,,,,,,,,,,,,,,,,,,,,,,,,,,,,,,,,,,,,,,,,,,,,,,,340.6899,344.376,,,,,,,,,,,,,,,,,,,,,,,,,,,,,,,,,,,,,,,,,,,,,,,,,,,,,,,,,,,,,
,,11,4,${e://Field/PROLIFIC_PID,F,18,2023-11-03_08h15.31.934,MouseEye_CC,2023.2.2,Win32,48.03766153,1.28,,,1536,864,49.872,4.73,"25.88, 23.54, 520.36, 16.75, 22.88, 27.48, 525.32",816.64,8.705189981,41.17554861,27.83653633,Failed,137.9380878,,,,,,,,,,,,,,,,,,,,,,,,,,,,,,,,,,,,,,,,,,,,,,,,,,,,,,,,,,,,,,,,,,,,,,,,,,,,,,,,,,,,,,,,,,,,,,,,,,,,,,,,,344.3764,1696.8574,,,,,,,,,,,,,,,,,,,,,,,,,,,,,,,,,,,,,,,,,,,,,,,,,,,,,,,,,,,
,,11,4,${e://Field/PROLIFIC_PID,F,18,2023-11-03_08h15.31.934,MouseEye_CC,2023.2.2,Win32,48.03766153,1.28,,,1536,864,49.872,4.73,"25.88, 23.54, 520.36, 16.75, 22.88, 27.48, 525.32",816.64,8.705189981,41.17554861,27.83653633,Failed,137.9380878,,,,,,,,,,,,,,,,,,,,,training,1,1,0,left,a,,,,,1696.9474,1698.5068,35.84,0,0,1,0,0,1.5593,fixationPoint,1698.507,1698.6114,1698.6116,1703.133,35.84,10240,616.96,s,0,4.4771,,1703.1333,1707.1324,,,,,,,,96,20,-222,208,24,222,168,169,125,-174,115,-128,76,-68,174,-218,-30,-170,-118,-65,-160,168,-220,19,-127,360,360,180,180,360,360,360,360,270,180,270,,,,,,,,,,,1707.1344,1707.1656,,0,0,0,0,1,12,novel,,,,,,,,,,,,,,,,,,,,,,,,,,,,,,,,,,,,,,,,,,,,,,,,,
,,11,4,${e://Field/PROLIFIC_PID,F,18,2023-11-03_08h15.31.934,MouseEye_CC,2023.2.2,Win32,48.03766153,1.28,,,1536,864,49.872,4.73,"25.88, 23.54, 520.36, 16.75, 22.88, 27.48, 525.32",816.64,8.705189981,41.17554861,27.83653633,Failed,137.9380878,,,,,,,,,,,,,,,,,,,,,training,1,2,0,left,a,,,,,1707.1662,1708.2775,35.84,3.200012207,-23.20001221,1,0,0,0.5905,fixationPoint,1708.2776,1708.3687,1708.3687,1710.591,35.84,10240,616.96,a,1,2.1997,,1710.5913,1710.7781,,,,,,,,4,-80,213,21,68,208,24,120,66,-224,-218,-218,-30,-65,-160,80,-120,124,-170,72,-221,-221,25,-16,126,270,360,180,90,270,90,360,270,360,90,360,,,,,,,,,,,1710.7784,1710.7791,,0,1,1,1,1,15,novel,,,,,,,,,,,,,,,,,,,,,,,,,,,,,,,,,,,,,,,,,,,,,,,,,
,,11,4,${e://Field/PROLIFIC_PID,F,18,2023-11-03_08h15.31.934,MouseEye_CC,2023.2.2,Win32,48.03766153,1.28,,,1536,864,49.872,4.73,"25.88, 23.54, 520.36, 16.75, 22.88, 27.48, 525.32",816.64,8.705189981,41.17554861,27.83653633,Failed,137.9380878,,,,,,,,,,,,,,,,,,,,,training,1,3,180,right,s,,,,,1710.7801,1711.3197,35.84,-5.599975586,2.399993896,1,0,0,0.5395,fixationPoint,1711.3198,1711.4101,1711.4102,1715.0285,35.84,10240,616.96,a,0,3.5929,,1715.0287,1719.0282,,,,,,,,97,72,-221,169,125,175,209,26,171,-20,212,-216,125,-160,70,-176,-68,-170,-118,-169,-161,127,-127,80,-120,180,180,180,270,180,90,180,180,360,90,360,,,,,,,,,,,1719.0285,1719.0554,,0,2,2,2,1,7,repeated,,,,,,,,,,,,,,,,,,,,,,,,,,,,,,,,,,,,,,,,,,,,,,,,,
,,11,4,${e://Field/PROLIFIC_PID,F,18,2023-11-03_08h15.31.934,MouseEye_CC,2023.2.2,Win32,48.03766153,1.28,,,1536,864,49.872,4.73,"25.88, 23.54, 520.36, 16.75, 22.88, 27.48, 525.32",816.64,8.705189981,41.17554861,27.83653633,Failed,137.9380878,,,,,,,,,,,,,,,,,,,,,training,1,4,180,right,s,,,,,1719.0559,1720.0072,35.84,35.20001221,-4,1,0,0,0.576,fixationPoint,1720.0072,1720.1116,1720.1118,1723.2584,35.84,10240,616.96,s,1,3.1059,,1723.2586,1723.4448,,,,,,,,25,-16,126,26,217,20,116,72,175,-31,-65,-117,-167,-121,-18,126,-28,209,-208,163,-120,-128,76,-116,112,180,360,180,90,90,360,180,90,90,360,360,,,,,,,,,,,1723.4452,1723.4459,,0,3,3,3,1,3,repeated,,,,,,,,,,,,,,,,,,,,,,,,,,,,,,,,,,,,,,,,,,,,,,,,,
,,11,4,${e://Field/PROLIFIC_PID,F,18,2023-11-03_08h15.31.934,MouseEye_CC,2023.2.2,Win32,48.03766153,1.28,,,1536,864,49.872,4.73,"25.88, 23.54, 520.36, 16.75, 22.88, 27.48, 525.32",816.64,8.705189981,41.17554861,27.83653633,Failed,137.9380878,,,,,,,,,,,,,,,,,,,,,training,1,5,0,left,a,,,,,1723.4475,1724.0692,35.84,-0.799987793,4,1,0,0,0.6215,fixationPoint,1724.0692,1724.1736,1724.1739,1726.3904,35.84,10240,616.96,a,1,2.185,,1726.3905,1726.5907,,,,,,,,62,-176,-68,208,24,120,66,80,222,-208,172,-174,115,-80,213,222,-126,164,-173,20,-222,-24,-17,-117,-167,270,360,90,90,90,360,180,360,180,270,270,,,,,,,,,,,1726.591,1726.5916,,0,4,4,4,1,10,novel,,,,,,,,,,,,,,,,,,,,,,,,,,,,,,,,,,,,,,,,,,,,,,,,,
,,11,4,${e://Field/PROLIFIC_PID,F,18,2023-11-03_08h15.31.934,MouseEye_CC,2023.2.2,Win32,48.03766153,1.28,,,1536,864,49.872,4.73,"25.88, 23.54, 520.36, 16.75, 22.88, 27.48, 525.32",816.64,8.705189981,41.17554861,27.83653633,Failed,137.9380878,,,,,,,,,,,,,,,,,,,,,training,1,6,180,right,s,,,,,1726.5925,1727.1184,35.84,3.200012207,0,1,0,0,0.5258,fixationPoint,1727.1185,1727.2157,1727.216,1730.7988,35.84,10240,616.96,s,1,3.5524,,1730.7991,1730.9863,,,,,,,,13,-126,173,77,23,212,128,123,112,-31,-65,-65,-160,-20,-123,211,-168,27,-68,27,-27,-176,26,-73,119,180,270,360,90,270,270,270,90,360,180,90,,,,,,,,,,,1730.9864,1730.9873,,0,5,5,5,1,16,novel,,,,,,,,,,,,,,,,,,,,,,,,,,,,,,,,,,,,,,,,,,,,,,,,,
,,11,4,${e://Field/PROLIFIC_PID,F,18,2023-11-03_08h15.31.934,MouseEye_CC,2023.2.2,Win32,48.03766153,1.28,,,1536,864,49.872,4.73,"25.88, 23.54, 520.36, 16.75, 22.88, 27.48, 525.32",816.64,8.705189981,41.17554861,27.83653633,Failed,137.9380878,,,,,,,,,,,,,,,,,,,,,training,1,7,0,left,a,,,,,1730.9885,1731.465,35.84,-6.399963379,-7.200012207,1,0,0,0.4762,fixationPoint,1731.4651,1731.5562,1731.5563,1737.6199,35.84,10240,616.96,a,1,6.0417,,1737.6201,1737.8201,,,,,,,,39,164,76,-174,115,-160,70,-20,212,-163,-220,-19,-223,-65,-160,68,-64,27,-27,169,-32,72,175,218,80,180,180,270,90,90,270,90,180,270,270,270,,,,,,,,,,,1737.8202,1737.8207,,0,6,6,6,1,2,repeated,,,,,,,,,,,,,,,,,,,,,,,,,,,,,,,,,,,,,,,,,,,,,,,,,
,,11,4,${e://Field/PROLIFIC_PID,F,18,2023-11-03_08h15.31.934,MouseEye_CC,2023.2.2,Win32,48.03766153,1.28,,,1536,864,49.872,4.73,"25.88, 23.54, 520.36, 16.75, 22.88, 27.48, 525.32",816.64,8.705189981,41.17554861,27.83653633,Failed,137.9380878,,,,,,,,,,,,,,,,,,,,,training,1,8,0,left,a,,,,,1737.8216,1738.3195,35.84,2.400024414,0,1,0,0,0.4977,fixationPoint,1738.3197,1738.4242,1738.4243,1741.1124,35.84,10240,616.96,a,1,2.67,,1741.1126,1741.299,,,,,,,,72,-170,-118,66,72,222,168,169,125,-30,28,-212,69,-117,22,174,-70,68,-64,124,-170,-70,-67,-218,-30,270,180,360,360,360,360,360,90,180,180,90,,,,,,,,,,,1741.2993,1741.2999,,0,7,7,7,1,6,repeated,,,,,,,,,,,,,,,,,,,,,,,,,,,,,,,,,,,,,,,,,,,,,,,,,
,,11,4,${e://Field/PROLIFIC_PID,F,18,2023-11-03_08h15.31.934,MouseEye_CC,2023.2.2,Win32,48.03766153,1.28,,,1536,864,49.872,4.73,"25.88, 23.54, 520.36, 16.75, 22.88, 27.48, 525.32",816.64,8.705189981,41.17554861,27.83653633,Failed,137.9380878,,,,,,,,,,,,,,,,,,,,,training,1,9,0,left,a,,,,,1741.3008,1741.7989,35.84,4.799987793,0,1,0,0,0.4977,fixationPoint,1741.799,1741.9041,1741.9043,1744.028,35.84,10240,616.96,a,1,2.1016,,1744.0282,1744.2153,,,,,,,,27,69,127,-160,70,-115,218,-28,64,-224,-218,-169,-161,-219,-120,124,-170,164,-173,174,-70,21,68,161,170,90,270,180,360,180,180,180,180,270,90,270,,,,,,,,,,,1744.2153,1744.2158,,0,8,8,8,1,1,repeated,,,,,,,,,,,,,,,,,,,,,,,,,,,,,,,,,,,,,,,,,,,,,,,,,
,,11,4,${e://Field/PROLIFIC_PID,F,18,2023-11-03_08h15.31.934,MouseEye_CC,2023.2.2,Win32,48.03766153,1.28,,,1536,864,49.872,4.73,"25.88, 23.54, 520.36, 16.75, 22.88, 27.48, 525.32",816.64,8.705189981,41.17554861,27.83653633,Failed,137.9380878,,,,,,,,,,,,,,,,,,,,,training,1,10,180,right,s,,,,,1744.2163,1744.6532,35.84,4,11.19998169,1,0,0,0.4367,fixationPoint,1744.6545,1744.7576,1744.7578,1746.3832,35.84,10240,616.96,s,1,1.6044,,1746.3834,1746.5696,,,,,,,,38,120,66,-70,75,-80,16,-221,25,-31,-65,-220,-68,-116,-73,211,-168,72,-221,127,-127,217,219,169,125,90,270,360,270,360,270,90,180,270,180,270,,,,,,,,,,,1746.5697,1746.5701,,0,9,9,9,1,13,novel,,,,,,,,,,,,,,,,,,,,,,,,,,,,,,,,,,,,,,,,,,,,,,,,,
,,11,4,${e://Field/PROLIFIC_PID,F,18,2023-11-03_08h15.31.934,MouseEye_CC,2023.2.2,Win32,48.03766153,1.28,,,1536,864,49.872,4.73,"25.88, 23.54, 520.36, 16.75, 22.88, 27.48, 525.32",816.64,8.705189981,41.17554861,27.83653633,Failed,137.9380878,,,,,,,,,,,,,,,,,,,,,training,1,11,180,right,s,,,,,1746.5705,1747.6738,35.84,18.40002441,2.399993896,1,0,0,0.4993,fixationPoint,1747.6739,1747.7781,1747.7783,1749.4659,35.84,10240,616.96,s,1,1.6648,,1749.4661,1749.6534,,,,,,,,88,124,-170,166,16,217,219,169,125,-117,22,-16,126,-126,173,-24,-17,-65,-160,-224,-218,19,-127,169,-32,360,270,180,180,180,360,90,270,360,90,360,,,,,,,,,,,1749.6536,1749.6542,,0,10,10,10,1,8,repeated,,,,,,,,,,,,,,,,,,,,,,,,,,,,,,,,,,,,,,,,,,,,,,,,,
,,11,4,${e://Field/PROLIFIC_PID,F,18,2023-11-03_08h15.31.934,MouseEye_CC,2023.2.2,Win32,48.03766153,1.28,,,1536,864,49.872,4.73,"25.88, 23.54, 520.36, 16.75, 22.88, 27.48, 525.32",816.64,8.705189981,41.17554861,27.83653633,Failed,137.9380878,,,,,,,,,,,,,,,,,,,,,training,1,12,180,right,s,,,,,1749.6554,1750.1111,35.84,0.799987793,-8,1,0,0,0.4553,fixationPoint,1750.1111,1750.2163,1750.2164,1752.8201,35.84,10240,616.96,s,1,2.5937,,1752.8203,1753.0075,,,,,,,,29,169,125,-115,218,-28,64,-68,174,-72,-128,-75,-24,-127,-212,68,-64,112,-215,211,-168,218,80,118,20,90,180,360,90,270,180,360,180,360,90,180,,,,,,,,,,,1753.0077,1753.0082,,0,11,11,11,1,14,novel,,,,,,,,,,,,,,,,,,,,,,,,,,,,,,,,,,,,,,,,,,,,,,,,,
,,11,4,${e://Field/PROLIFIC_PID,F,18,2023-11-03_08h15.31.934,MouseEye_CC,2023.2.2,Win32,48.03766153,1.28,,,1536,864,49.872,4.73,"25.88, 23.54, 520.36, 16.75, 22.88, 27.48, 525.32",816.64,8.705189981,41.17554861,27.83653633,Failed,137.9380878,,,,,,,,,,,,,,,,,,,,,training,1,13,0,left,a,,,,,1753.0091,1753.5073,35.84,15.20001221,3.199981689,1,0,0,0.4978,fixationPoint,1753.5074,1753.6118,1753.6119,1755.6118,35.84,10240,616.96,a,1,1.9755,,1755.6119,1755.799,,,,,,,,74,-72,-128,164,76,21,68,114,216,-172,214,-212,69,-73,119,72,-221,164,-173,20,-222,-19,-223,-219,-120,360,360,270,360,270,360,360,180,90,180,270,,,,,,,,,,,1755.7991,1755.7996,,0,12,12,12,1,9,novel,,,,,,,,,,,,,,,,,,,,,,,,,,,,,,,,,,,,,,,,,,,,,,,,,
,,11,4,${e://Field/PROLIFIC_PID,F,18,2023-11-03_08h15.31.934,MouseEye_CC,2023.2.2,Win32,48.03766153,1.28,,,1536,864,49.872,4.73,"25.88, 23.54, 520.36, 16.75, 22.88, 27.48, 525.32",816.64,8.705189981,41.17554861,27.83653633,Failed,137.9380878,,,,,,,,,,,,,,,,,,,,,training,1,14,180,right,s,,,,,1755.8006,1756.2366,35.84,-4.799987793,2.399993896,1,0,0,0.4358,fixationPoint,1756.2368,1756.3217,1756.322,1757.5496,35.84,10240,616.96,a,0,1.2076,,1757.55,1761.5492,,,,,,,,76,19,-127,169,125,69,127,118,20,-174,115,-126,173,-210,215,-117,-167,-163,-220,-68,-221,222,-126,127,-127,180,180,270,180,270,360,180,270,90,180,360,,,,,,,,,,,1761.5493,1761.5772,,0,13,13,13,1,11,novel,,,,,,,,,,,,,,,,,,,,,,,,,,,,,,,,,,,,,,,,,,,,,,,,,
,,11,4,${e://Field/PROLIFIC_PID,F,18,2023-11-03_08h15.31.934,MouseEye_CC,2023.2.2,Win32,48.03766153,1.28,,,1536,864,49.872,4.73,"25.88, 23.54, 520.36, 16.75, 22.88, 27.48, 525.32",816.64,8.705189981,41.17554861,27.83653633,Failed,137.9380878,,,,,,,,,,,,,,,,,,,,,training,1,15,0,left,a,,,,,1761.578,1762.0697,35.84,0.799987793,-6.399993896,1,0,0,0.4914,fixationPoint,1762.0699,1762.1745,1762.1746,1763.5913,35.84,10240,616.96,s,0,1.4032,,1763.5916,1767.591,,,,,,,,63,-116,-73,21,68,212,128,66,72,-221,25,-128,76,-208,172,19,-127,127,-127,163,-120,-121,-18,-72,-128,270,360,180,360,90,360,360,270,90,180,360,,,,,,,,,,,1767.5911,1767.6187,,0,14,14,14,1,5,repeated,,,,,,,,,,,,,,,,,,,,,,,,,,,,,,,,,,,,,,,,,,,,,,,,,
,,11,4,${e://Field/PROLIFIC_PID,F,18,2023-11-03_08h15.31.934,MouseEye_CC,2023.2.2,Win32,48.03766153,1.28,,,1536,864,49.872,4.73,"25.88, 23.54, 520.36, 16.75, 22.88, 27.48, 525.32",816.64,8.705189981,41.17554861,27.83653633,Failed,137.9380878,,,,,,,,,,,,,,,,,,,,,training,1,16,180,right,s,,,,,1767.6194,1768.2366,35.84,5.600036621,-4,1,0,0,0.617,fixationPoint,1768.2367,1768.3218,1768.322,1770.7369,35.84,10240,616.96,s,1,2.3943,,1770.7373,1770.9242,,,,,,,,5,-20,212,28,21,120,66,77,23,-20,-123,-224,-218,-218,-30,20,-222,19,-127,80,-120,-115,218,-117,22,180,270,360,270,270,360,360,90,90,180,360,,,,,,,,,,,1770.9244,1779.2366,space,0,15,15,15,1,4,repeated,8.2825,,,,,,,,,,,,,,,,,,,,,,,,,,,,,,,,,,,,,,,,,,,,,,,,
,,11,4,${e://Field/PROLIFIC_PID,F,18,2023-11-03_08h15.31.934,MouseEye_CC,2023.2.2,Win32,48.03766153,1.28,,,1536,864,49.872,4.73,"25.88, 23.54, 520.36, 16.75, 22.88, 27.48, 525.32",816.64,8.705189981,41.17554861,27.83653633,Failed,137.9380878,,,,,,,,,,,,,,,,,,,,,training,2,1,0,left,a,,,,,1779.2647,1780.0703,35.84,10.40002441,-6.399993896,1,0,0,0.8052,fixationPoint,1780.0704,1780.1744,1780.1745,1782.7788,35.84,10240,616.96,s,0,2.5842,,1782.779,1786.779,,,,,,,,62,-176,-68,208,24,21,68,222,168,-126,173,-175,164,-176,26,211,-168,127,-127,124,-170,-169,-161,-20,-123,90,270,180,90,360,90,180,90,270,90,180,,,,,,,,,,,1786.7791,1786.8092,,0,16,16,16,1,10,novel,,,,,,,,,,,,,,,,,,,,,,,,,,,,,,,,,,,,,,,,,,,,,,,,,
,,11,4,${e://Field/PROLIFIC_PID,F,18,2023-11-03_08h15.31.934,MouseEye_CC,2023.2.2,Win32,48.03766153,1.28,,,1536,864,49.872,4.73,"25.88, 23.54, 520.36, 16.75, 22.88, 27.48, 525.32",816.64,8.705189981,41.17554861,27.83653633,Failed,137.9380878,,,,,,,,,,,,,,,,,,,,,training,2,2,180,right,s,,,,,1786.8097,1787.9237,35.84,19.20001221,-4,1,0,0,0.6137,fixationPoint,1787.9238,1788.0284,1788.0285,1790.7998,35.84,10240,616.96,a,0,2.7557,,1790.7998,1794.7997,,,,,,,,72,-170,-118,66,72,222,168,169,125,-30,28,-212,69,-117,22,174,-70,68,-64,124,-170,-70,-67,-218,-30,360,270,360,360,360,360,180,180,180,180,270,,,,,,,,,,,1794.7999,1794.8274,,0,17,17,17,1,6,repeated,,,,,,,,,,,,,,,,,,,,,,,,,,,,,,,,,,,,,,,,,,,,,,,,,
,,11,4,${e://Field/PROLIFIC_PID,F,18,2023-11-03_08h15.31.934,MouseEye_CC,2023.2.2,Win32,48.03766153,1.28,,,1536,864,49.872,4.73,"25.88, 23.54, 520.36, 16.75, 22.88, 27.48, 525.32",816.64,8.705189981,41.17554861,27.83653633,Failed,137.9380878,,,,,,,,,,,,,,,,,,,,,training,2,3,0,left,a,,,,,1794.828,1795.3197,35.84,0,-8.800018311,1,0,0,0.4914,fixationPoint,1795.3198,1795.4245,1795.4246,1797.2161,35.84,10240,616.96,a,1,1.7687,,1797.2163,1797.4035,,,,,,,,4,-80,213,166,16,222,168,118,20,-169,-161,-31,-65,-218,-30,222,-126,119,-76,163,-120,-68,174,-172,214,90,180,270,90,180,270,90,90,90,360,180,,,,,,,,,,,1797.4037,1797.4042,,0,18,18,18,1,15,novel,,,,,,,,,,,,,,,,,,,,,,,,,,,,,,,,,,,,,,,,,,,,,,,,,
,,11,4,${e://Field/PROLIFIC_PID,F,18,2023-11-03_08h15.31.934,MouseEye_CC,2023.2.2,Win32,48.03766153,1.28,,,1536,864,49.872,4.73,"25.88, 23.54, 520.36, 16.75, 22.88, 27.48, 525.32",816.64,8.705189981,41.17554861,27.83653633,Failed,137.9380878,,,,,,,,,,,,,,,,,,,,,training,2,4,180,right,s,,,,,1797.4054,1797.9868,35.84,4,1.600006104,1,0,0,0.581,fixationPoint,1797.9869,1798.091,1798.0912,1800.8206,35.84,10240,616.96,s,1,2.7061,,1800.8207,1801.0078,,,,,,,,88,124,-170,166,16,217,219,169,125,-117,22,-16,126,-126,173,-24,-17,-65,-160,-224,-218,19,-127,169,-32,90,90,270,270,360,270,360,180,180,180,360,,,,,,,,,,,1801.0079,1801.0082,,0,19,19,19,1,8,repeated,,,,,,,,,,,,,,,,,,,,,,,,,,,,,,,,,,,,,,,,,,,,,,,,,
,,11,4,${e://Field/PROLIFIC_PID,F,18,2023-11-03_08h15.31.934,MouseEye_CC,2023.2.2,Win32,48.03766153,1.28,,,1536,864,49.872,4.73,"25.88, 23.54, 520.36, 16.75, 22.88, 27.48, 525.32",816.64,8.705189981,41.17554861,27.83653633,Failed,137.9380878,,,,,,,,,,,,,,,,,,,,,training,2,5,180,right,s,,,,,1801.0091,1801.5074,35.84,17.60003662,-8,1,0,0,0.4982,fixationPoint,1801.5076,1801.612,1801.6122,1803.1743,35.84,10240,616.96,s,1,1.5421,,1803.1745,1803.3621,,,,,,,,76,19,-127,20,116,175,209,164,76,-208,172,-176,26,-80,16,-65,-160,-19,-176,-163,-220,80,-120,119,-76,270,270,360,180,90,360,180,90,180,360,360,,,,,,,,,,,1803.3622,1803.3626,,0,20,20,20,1,11,novel,,,,,,,,,,,,,,,,,,,,,,,,,,,,,,,,,,,,,,,,,,,,,,,,,
,,11,4,${e://Field/PROLIFIC_PID,F,18,2023-11-03_08h15.31.934,MouseEye_CC,2023.2.2,Win32,48.03766153,1.28,,,1536,864,49.872,4.73,"25.88, 23.54, 520.36, 16.75, 22.88, 27.48, 525.32",816.64,8.705189981,41.17554861,27.83653633,Failed,137.9380878,,,,,,,,,,,,,,,,,,,,,training,2,6,180,right,s,,,,,1803.3635,1803.7777,35.84,-1.599975586,-5.600006104,1,0,0,0.414,fixationPoint,1803.7777,1803.8826,1803.8827,1805.7581,35.84,10240,616.96,s,1,1.8524,,1805.7583,1805.9452,,,,,,,,5,-20,212,28,21,120,66,77,23,-20,-123,-224,-218,-218,-30,20,-222,19,-127,80,-120,-115,218,-117,22,360,270,360,90,270,270,270,360,180,360,90,,,,,,,,,,,1805.9453,1805.9458,,0,21,21,21,1,4,repeated,,,,,,,,,,,,,,,,,,,,,,,,,,,,,,,,,,,,,,,,,,,,,,,,,
,,11,4,${e://Field/PROLIFIC_PID,F,18,2023-11-03_08h15.31.934,MouseEye_CC,2023.2.2,Win32,48.03766153,1.28,,,1536,864,49.872,4.73,"25.88, 23.54, 520.36, 16.75, 22.88, 27.48, 525.32",816.64,8.705189981,41.17554861,27.83653633,Failed,137.9380878,,,,,,,,,,,,,,,,,,,,,training,2,7,180,right,s,,,,,1805.9467,1806.4029,35.84,0.799987793,0,1,0,0,0.456,fixationPoint,1806.4029,1806.5081,1806.5083,1807.5287,35.84,10240,616.96,s,1,1.0104,,1807.5288,1807.716,,,,,,,,27,69,127,-160,70,-115,218,-28,64,-224,-218,-169,-161,-219,-120,124,-170,164,-173,174,-70,21,68,161,170,270,90,360,90,90,270,270,270,180,180,90,,,,,,,,,,,1807.716,1807.7164,,0,22,22,22,1,1,repeated,,,,,,,,,,,,,,,,,,,,,,,,,,,,,,,,,,,,,,,,,,,,,,,,,
,,11,4,${e://Field/PROLIFIC_PID,F,18,2023-11-03_08h15.31.934,MouseEye_CC,2023.2.2,Win32,48.03766153,1.28,,,1536,864,49.872,4.73,"25.88, 23.54, 520.36, 16.75, 22.88, 27.48, 525.32",816.64,8.705189981,41.17554861,27.83653633,Failed,137.9380878,,,,,,,,,,,,,,,,,,,,,training,2,8,0,left,a,,,,,1807.7173,1808.195,35.84,-8.799987793,-0.800018311,1,0,0,0.4774,fixationPoint,1808.1951,1808.28,1808.2801,1811.7986,35.84,10240,616.96,a,1,3.4976,,1811.7987,1811.9861,,,,,,,,25,-16,126,26,217,20,116,72,175,-31,-65,-117,-167,-121,-18,126,-28,209,-208,163,-120,-128,76,-116,112,360,270,270,360,180,180,90,180,360,270,360,,,,,,,,,,,1811.9861,1811.9862,,0,23,23,23,1,3,repeated,,,,,,,,,,,,,,,,,,,,,,,,,,,,,,,,,,,,,,,,,,,,,,,,,
,,11,4,${e://Field/PROLIFIC_PID,F,18,2023-11-03_08h15.31.934,MouseEye_CC,2023.2.2,Win32,48.03766153,1.28,,,1536,864,49.872,4.73,"25.88, 23.54, 520.36, 16.75, 22.88, 27.48, 525.32",816.64,8.705189981,41.17554861,27.83653633,Failed,137.9380878,,,,,,,,,,,,,,,,,,,,,training,2,9,0,left,a,,,,,1811.9866,1812.4034,35.84,-3.200012207,0,1,0,0,0.4167,fixationPoint,1812.4036,1812.5081,1812.5083,1814.2579,35.84,10240,616.96,s,0,1.7294,,1814.2581,1818.2576,,,,,,,,97,72,-221,169,125,175,209,26,171,-20,212,-216,125,-160,70,-176,-68,-170,-118,-169,-161,127,-127,80,-120,270,90,180,180,180,180,90,180,90,360,360,,,,,,,,,,,1818.2578,1818.286,,0,24,24,24,1,7,repeated,,,,,,,,,,,,,,,,,,,,,,,,,,,,,,,,,,,,,,,,,,,,,,,,,
,,11,4,${e://Field/PROLIFIC_PID,F,18,2023-11-03_08h15.31.934,MouseEye_CC,2023.2.2,Win32,48.03766153,1.28,,,1536,864,49.872,4.73,"25.88, 23.54, 520.36, 16.75, 22.88, 27.48, 525.32",816.64,8.705189981,41.17554861,27.83653633,Failed,137.9380878,,,,,,,,,,,,,,,,,,,,,training,2,10,180,right,s,,,,,1818.2869,1818.7991,35.84,10.40002441,0,1,0,0,0.5121,fixationPoint,1818.7992,1818.9036,1818.9038,1820.2988,35.84,10240,616.96,a,0,1.3718,,1820.2988,1824.2996,,,,,,,,96,20,-222,212,128,80,222,161,170,-210,215,-70,75,-20,212,-20,-123,-224,-218,-19,-176,27,-68,126,-28,360,360,360,360,180,360,180,180,270,360,90,,,,,,,,,,,1824.2998,1824.3288,,0,25,25,25,1,12,novel,,,,,,,,,,,,,,,,,,,,,,,,,,,,,,,,,,,,,,,,,,,,,,,,,
,,11,4,${e://Field/PROLIFIC_PID,F,18,2023-11-03_08h15.31.934,MouseEye_CC,2023.2.2,Win32,48.03766153,1.28,,,1536,864,49.872,4.73,"25.88, 23.54, 520.36, 16.75, 22.88, 27.48, 525.32",816.64,8.705189981,41.17554861,27.83653633,Failed,137.9380878,,,,,,,,,,,,,,,,,,,,,training,2,11,180,right,s,,,,,1824.3296,1824.7785,35.84,3.200012207,-10.3999939,1,0,0,0.4487,fixationPoint,1824.7786,1824.8831,1824.8832,1828.5503,35.84,10240,616.96,s,1,3.6446,,1828.5504,1828.7372,,,,,,,,39,164,76,-174,115,-160,70,-20,212,-163,-220,-19,-223,-65,-160,68,-64,27,-27,169,-32,72,175,218,80,360,180,360,90,180,360,360,90,360,180,360,,,,,,,,,,,1828.7373,1828.7378,,0,26,26,26,1,2,repeated,,,,,,,,,,,,,,,,,,,,,,,,,,,,,,,,,,,,,,,,,,,,,,,,,
,,11,4,${e://Field/PROLIFIC_PID,F,18,2023-11-03_08h15.31.934,MouseEye_CC,2023.2.2,Win32,48.03766153,1.28,,,1536,864,49.872,4.73,"25.88, 23.54, 520.36, 16.75, 22.88, 27.48, 525.32",816.64,8.705189981,41.17554861,27.83653633,Failed,137.9380878,,,,,,,,,,,,,,,,,,,,,training,2,12,0,left,a,,,,,1828.7387,1829.1533,35.84,7.200012207,9.600006104,1,0,0,0.4144,fixationPoint,1829.1533,1829.2578,1829.2579,1830.8834,35.84,10240,616.96,a,1,1.6057,,1830.8835,1831.0704,,,,,,,,74,-72,-128,212,128,222,168,218,80,-80,213,-20,212,-126,173,79,-175,126,-28,163,-120,-220,-68,-68,-221,270,90,90,90,180,360,90,360,90,360,360,,,,,,,,,,,1831.0705,1831.0709,,0,27,27,27,1,9,novel,,,,,,,,,,,,,,,,,,,,,,,,,,,,,,,,,,,,,,,,,,,,,,,,,
,,11,4,${e://Field/PROLIFIC_PID,F,18,2023-11-03_08h15.31.934,MouseEye_CC,2023.2.2,Win32,48.03766153,1.28,,,1536,864,49.872,4.73,"25.88, 23.54, 520.36, 16.75, 22.88, 27.48, 525.32",816.64,8.705189981,41.17554861,27.83653633,Failed,137.9380878,,,,,,,,,,,,,,,,,,,,,training,2,13,0,left,a,,,,,1831.0718,1831.5284,35.84,10.40002441,6.399993896,1,0,0,0.4563,fixationPoint,1831.5285,1831.633,1831.6332,1834.1744,35.84,10240,616.96,a,1,2.5285,,1834.1746,1834.3611,,,,,,,,38,120,66,-117,22,-30,28,-216,125,-20,-123,-169,-161,-219,-120,27,-27,119,-76,164,-173,161,170,77,23,90,270,180,90,90,360,180,180,270,270,270,,,,,,,,,,,1834.3613,1834.3614,,0,28,28,28,1,13,novel,,,,,,,,,,,,,,,,,,,,,,,,,,,,,,,,,,,,,,,,,,,,,,,,,
,,11,4,${e://Field/PROLIFIC_PID,F,18,2023-11-03_08h15.31.934,MouseEye_CC,2023.2.2,Win32,48.03766153,1.28,,,1536,864,49.872,4.73,"25.88, 23.54, 520.36, 16.75, 22.88, 27.48, 525.32",816.64,8.705189981,41.17554861,27.83653633,Failed,137.9380878,,,,,,,,,,,,,,,,,,,,,training,2,14,0,left,a,,,,,1834.3618,1834.8614,35.84,10.40002441,0.799987793,1,0,0,0.4994,fixationPoint,1834.8614,1834.9663,1834.9665,1837.3416,35.84,10240,616.96,a,1,2.3559,,1837.3417,1837.5283,,,,,,,,13,-126,173,164,76,212,128,26,171,-219,-120,-220,-68,-117,-167,211,-168,222,-126,72,-221,-176,26,-175,164,90,90,270,360,360,90,180,180,90,180,90,,,,,,,,,,,1837.5285,1837.5288,,0,29,29,29,1,16,novel,,,,,,,,,,,,,,,,,,,,,,,,,,,,,,,,,,,,,,,,,,,,,,,,,
,,11,4,${e://Field/PROLIFIC_PID,F,18,2023-11-03_08h15.31.934,MouseEye_CC,2023.2.2,Win32,48.03766153,1.28,,,1536,864,49.872,4.73,"25.88, 23.54, 520.36, 16.75, 22.88, 27.48, 525.32",816.64,8.705189981,41.17554861,27.83653633,Failed,137.9380878,,,,,,,,,,,,,,,,,,,,,training,2,15,180,right,s,,,,,1837.5298,1838.0076,35.84,-4,-0.800018311,1,0,0,0.4777,fixationPoint,1838.0077,1838.1117,1838.1118,1841.0286,35.84,10240,616.96,s,1,2.8938,,1841.0287,1841.2162,,,,,,,,29,169,125,-115,218,-20,212,-24,162,-121,-18,-68,-221,-75,-24,169,-32,124,-170,126,-28,114,216,20,116,270,90,90,270,90,180,270,90,180,270,360,,,,,,,,,,,1841.2164,1841.2167,,0,30,30,30,1,14,novel,,,,,,,,,,,,,,,,,,,,,,,,,,,,,,,,,,,,,,,,,,,,,,,,,
,,11,4,${e://Field/PROLIFIC_PID,F,18,2023-11-03_08h15.31.934,MouseEye_CC,2023.2.2,Win32,48.03766153,1.28,,,1536,864,49.872,4.73,"25.88, 23.54, 520.36, 16.75, 22.88, 27.48, 525.32",816.64,8.705189981,41.17554861,27.83653633,Failed,137.9380878,,,,,,,,,,,,,,,,,,,,,training,2,16,0,left,a,,,,,1841.2177,1841.653,35.84,17.60003662,0,1,0,0,0.4351,fixationPoint,1841.653,1841.7578,1841.758,1851.6538,35.84,10240,616.96,a,1,9.8846,,1851.6539,1851.841,,,,,,,,63,-116,-73,21,68,212,128,66,72,-221,25,-128,76,-208,172,19,-127,127,-127,163,-120,-121,-18,-72,-128,270,360,180,180,360,270,90,90,180,360,360,,,,,,,,,,,1851.8413,1856.633,space,0,31,31,31,1,5,repeated,4.7511,,,,,,,,,,,,,,,,,,,,,,,,,,,,,,,,,,,,,,,,,,,,,,,,
,,11,4,${e://Field/PROLIFIC_PID,F,18,2023-11-03_08h15.31.934,MouseEye_CC,2023.2.2,Win32,48.03766153,1.28,,,1536,864,49.872,4.73,"25.88, 23.54, 520.36, 16.75, 22.88, 27.48, 525.32",816.64,8.705189981,41.17554861,27.83653633,Failed,137.9380878,,,,,,,,,,,,,,,,,,,,,training,3,1,0,left,a,,,,,1856.6604,1857.549,35.84,10.40002441,-1.600006104,1,0,0,0.8885,fixationPoint,1857.549,1857.6413,1857.6414,1860.4038,35.84,10240,616.96,a,1,2.7307,,1860.4042,1860.5913,,,,,,,,13,-126,173,118,20,169,125,217,219,-117,-167,-70,-67,-20,-123,174,-70,164,-173,169,-32,-221,25,-116,112,90,180,180,270,90,360,360,360,180,90,270,,,,,,,,,,,1860.5916,1860.5952,,0,32,32,32,1,16,novel,,,,,,,,,,,,,,,,,,,,,,,,,,,,,,,,,,,,,,,,,,,,,,,,,
,,11,4,${e://Field/PROLIFIC_PID,F,18,2023-11-03_08h15.31.934,MouseEye_CC,2023.2.2,Win32,48.03766153,1.28,,,1536,864,49.872,4.73,"25.88, 23.54, 520.36, 16.75, 22.88, 27.48, 525.32",816.64,8.705189981,41.17554861,27.83653633,Failed,137.9380878,,,,,,,,,,,,,,,,,,,,,training,3,2,180,right,s,,,,,1860.5962,1861.091,35.84,17.60003662,0.799987793,1,0,0,0.4946,fixationPoint,1861.0912,1861.201,1861.201,1865.7583,35.84,10240,616.96,s,1,4.5228,,1865.7585,1865.9455,,,,,,,,72,-170,-118,66,72,222,168,169,125,-30,28,-212,69,-117,22,174,-70,68,-64,124,-170,-70,-67,-218,-30,360,180,90,360,360,180,360,180,90,270,360,,,,,,,,,,,1865.9457,1865.9464,,0,33,33,33,1,6,repeated,,,,,,,,,,,,,,,,,,,,,,,,,,,,,,,,,,,,,,,,,,,,,,,,,
,,11,4,${e://Field/PROLIFIC_PID,F,18,2023-11-03_08h15.31.934,MouseEye_CC,2023.2.2,Win32,48.03766153,1.28,,,1536,864,49.872,4.73,"25.88, 23.54, 520.36, 16.75, 22.88, 27.48, 525.32",816.64,8.705189981,41.17554861,27.83653633,Failed,137.9380878,,,,,,,,,,,,,,,,,,,,,training,3,3,0,left,a,,,,,1865.9475,1866.3828,35.84,12.79998779,-0.800018311,1,0,0,0.4351,fixationPoint,1866.3829,1866.4883,1866.4886,1867.8618,35.84,10240,616.96,a,1,1.3429,,1867.862,1868.0497,,,,,,,,62,-176,-68,20,116,66,72,217,219,-20,212,-216,125,-24,162,127,-127,168,-220,124,-170,-117,-167,-68,-221,270,270,270,360,90,270,270,180,180,270,360,,,,,,,,,,,1868.0499,1868.0505,,0,34,34,34,1,10,novel,,,,,,,,,,,,,,,,,,,,,,,,,,,,,,,,,,,,,,,,,,,,,,,,,
,,11,4,${e://Field/PROLIFIC_PID,F,18,2023-11-03_08h15.31.934,MouseEye_CC,2023.2.2,Win32,48.03766153,1.28,,,1536,864,49.872,4.73,"25.88, 23.54, 520.36, 16.75, 22.88, 27.48, 525.32",816.64,8.705189981,41.17554861,27.83653633,Failed,137.9380878,,,,,,,,,,,,,,,,,,,,,training,3,4,0,left,a,,,,,1868.0514,1868.5696,35.84,0,3.199981689,1,0,0,0.5179,fixationPoint,1868.5698,1868.6743,1868.6745,1875.2382,35.84,10240,616.96,a,1,6.5236,,1875.2384,1875.4251,,,,,,,,39,164,76,-174,115,-160,70,-20,212,-163,-220,-19,-223,-65,-160,68,-64,27,-27,169,-32,72,175,218,80,360,180,180,270,360,90,180,270,270,270,270,,,,,,,,,,,1875.4254,1875.4264,,0,35,35,35,1,2,repeated,,,,,,,,,,,,,,,,,,,,,,,,,,,,,,,,,,,,,,,,,,,,,,,,,
,,11,4,${e://Field/PROLIFIC_PID,F,18,2023-11-03_08h15.31.934,MouseEye_CC,2023.2.2,Win32,48.03766153,1.28,,,1536,864,49.872,4.73,"25.88, 23.54, 520.36, 16.75, 22.88, 27.48, 525.32",816.64,8.705189981,41.17554861,27.83653633,Failed,137.9380878,,,,,,,,,,,,,,,,,,,,,training,3,5,0,left,a,,,,,1875.4274,1875.9035,35.84,8,-4,1,0,0,0.4759,fixationPoint,1875.9036,1875.9978,1875.998,1878.0783,35.84,10240,616.96,a,1,2.06,,1878.0785,1878.279,,,,,,,,74,-72,-128,20,116,118,20,222,168,-208,172,-30,28,-116,112,222,-126,126,-28,209,-208,-120,-116,-75,-24,90,180,90,360,90,90,180,270,270,360,360,,,,,,,,,,,1878.2791,1878.2796,,0,36,36,36,1,9,novel,,,,,,,,,,,,,,,,,,,,,,,,,,,,,,,,,,,,,,,,,,,,,,,,,
,,11,4,${e://Field/PROLIFIC_PID,F,18,2023-11-03_08h15.31.934,MouseEye_CC,2023.2.2,Win32,48.03766153,1.28,,,1536,864,49.872,4.73,"25.88, 23.54, 520.36, 16.75, 22.88, 27.48, 525.32",816.64,8.705189981,41.17554861,27.83653633,Failed,137.9380878,,,,,,,,,,,,,,,,,,,,,training,3,6,0,left,a,,,,,1878.2806,1878.653,35.84,-2.399963379,-5.600006104,1,0,0,0.3723,fixationPoint,1878.6531,1878.7589,1878.7591,1881.3415,35.84,10240,616.96,a,1,2.5604,,1881.3417,1881.5287,,,,,,,,88,124,-170,166,16,217,219,169,125,-117,22,-16,126,-126,173,-24,-17,-65,-160,-224,-218,19,-127,169,-32,270,270,270,90,360,180,270,90,360,270,270,,,,,,,,,,,1881.5288,1881.5292,,0,37,37,37,1,8,repeated,,,,,,,,,,,,,,,,,,,,,,,,,,,,,,,,,,,,,,,,,,,,,,,,,
,,11,4,${e://Field/PROLIFIC_PID,F,18,2023-11-03_08h15.31.934,MouseEye_CC,2023.2.2,Win32,48.03766153,1.28,,,1536,864,49.872,4.73,"25.88, 23.54, 520.36, 16.75, 22.88, 27.48, 525.32",816.64,8.705189981,41.17554861,27.83653633,Failed,137.9380878,,,,,,,,,,,,,,,,,,,,,training,3,7,180,right,s,,,,,1881.5302,1881.9241,35.84,10.40002441,0.799987793,1,0,0,0.3935,fixationPoint,1881.9241,1882.0289,1882.029,1888.5294,35.84,10240,616.96,s,1,6.485,,1888.5296,1888.7161,,,,,,,,38,120,66,-175,164,-70,75,-16,126,-116,-73,-20,-123,-120,-116,112,-215,126,-28,222,-126,164,76,66,72,90,90,270,180,180,360,90,180,180,180,360,,,,,,,,,,,1888.7163,1888.717,,0,38,38,38,1,13,novel,,,,,,,,,,,,,,,,,,,,,,,,,,,,,,,,,,,,,,,,,,,,,,,,,
,,11,4,${e://Field/PROLIFIC_PID,F,18,2023-11-03_08h15.31.934,MouseEye_CC,2023.2.2,Win32,48.03766153,1.28,,,1536,864,49.872,4.73,"25.88, 23.54, 520.36, 16.75, 22.88, 27.48, 525.32",816.64,8.705189981,41.17554861,27.83653633,Failed,137.9380878,,,,,,,,,,,,,,,,,,,,,training,3,8,0,left,a,,,,,1888.718,1889.2157,35.84,14.40002441,2.399993896,1,0,0,0.4976,fixationPoint,1889.2161,1889.3209,1889.3211,1891.2999,35.84,10240,616.96,a,1,1.9391,,1891.3002,1891.4874,,,,,,,,63,-116,-73,21,68,212,128,66,72,-221,25,-128,76,-208,172,19,-127,127,-127,163,-120,-121,-18,-72,-128,90,360,90,360,360,360,90,90,180,270,90,,,,,,,,,,,1891.4875,1891.4882,,0,39,39,39,1,5,repeated,,,,,,,,,,,,,,,,,,,,,,,,,,,,,,,,,,,,,,,,,,,,,,,,,
,,11,4,${e://Field/PROLIFIC_PID,F,18,2023-11-03_08h15.31.934,MouseEye_CC,2023.2.2,Win32,48.03766153,1.28,,,1536,864,49.872,4.73,"25.88, 23.54, 520.36, 16.75, 22.88, 27.48, 525.32",816.64,8.705189981,41.17554861,27.83653633,Failed,137.9380878,,,,,,,,,,,,,,,,,,,,,training,3,9,0,left,a,,,,,1891.4892,1891.9453,35.84,4,8.799987793,1,0,0,0.456,fixationPoint,1891.9453,1892.0497,1892.05,1896.1116,35.84,10240,616.96,a,1,4.0232,,1896.1117,1896.3064,,,,,,,,27,69,127,-160,70,-115,218,-28,64,-224,-218,-169,-161,-219,-120,124,-170,164,-173,174,-70,21,68,161,170,180,90,270,180,90,270,270,180,360,270,90,,,,,,,,,,,1896.3065,1896.3068,,0,40,40,40,1,1,repeated,,,,,,,,,,,,,,,,,,,,,,,,,,,,,,,,,,,,,,,,,,,,,,,,,
,,11,4,${e://Field/PROLIFIC_PID,F,18,2023-11-03_08h15.31.934,MouseEye_CC,2023.2.2,Win32,48.03766153,1.28,,,1536,864,49.872,4.73,"25.88, 23.54, 520.36, 16.75, 22.88, 27.48, 525.32",816.64,8.705189981,41.17554861,27.83653633,Failed,137.9380878,,,,,,,,,,,,,,,,,,,,,training,3,10,180,right,s,,,,,1896.3078,1896.9657,35.84,-3.200012207,3.199981689,1,0,0,0.6577,fixationPoint,1896.9658,1897.0697,1897.0697,1898.5159,35.84,10240,616.96,a,0,1.4159,,1898.516,1902.5077,,,,,,,,76,19,-127,161,170,28,21,218,80,-175,164,-128,76,-80,213,-72,-128,-24,-17,-31,-65,126,-28,68,-64,90,270,270,180,180,360,90,180,180,270,90,,,,,,,,,,,1902.5079,1902.5356,,0,41,41,41,1,11,novel,,,,,,,,,,,,,,,,,,,,,,,,,,,,,,,,,,,,,,,,,,,,,,,,,
,,11,4,${e://Field/PROLIFIC_PID,F,18,2023-11-03_08h15.31.934,MouseEye_CC,2023.2.2,Win32,48.03766153,1.28,,,1536,864,49.872,4.73,"25.88, 23.54, 520.36, 16.75, 22.88, 27.48, 525.32",816.64,8.705189981,41.17554861,27.83653633,Failed,137.9380878,,,,,,,,,,,,,,,,,,,,,training,3,11,180,right,s,,,,,1902.5364,1903.0281,35.84,-6.399963379,-11.20001221,1,0,0,0.4915,fixationPoint,1903.0282,1903.1333,1903.1335,1906.0288,35.84,10240,616.96,s,1,2.8515,,1906.0291,1906.2167,,,,,,,,5,-20,212,28,21,120,66,77,23,-20,-123,-224,-218,-218,-30,20,-222,19,-127,80,-120,-115,218,-117,22,270,270,180,360,180,90,270,180,90,180,90,,,,,,,,,,,1906.2169,1906.2177,,0,42,42,42,1,4,repeated,,,,,,,,,,,,,,,,,,,,,,,,,,,,,,,,,,,,,,,,,,,,,,,,,
,,11,4,${e://Field/PROLIFIC_PID,F,18,2023-11-03_08h15.31.934,MouseEye_CC,2023.2.2,Win32,48.03766153,1.28,,,1536,864,49.872,4.73,"25.88, 23.54, 520.36, 16.75, 22.88, 27.48, 525.32",816.64,8.705189981,41.17554861,27.83653633,Failed,137.9380878,,,,,,,,,,,,,,,,,,,,,training,3,12,180,right,s,,,,,1906.2186,1906.6128,35.84,-13.59997559,2.399993896,1,0,0,0.3935,fixationPoint,1906.6131,1906.7043,1906.7045,1910.1621,35.84,10240,616.96,s,1,3.4349,,1910.1623,1910.3622,,,,,,,,97,72,-221,169,125,175,209,26,171,-20,212,-216,125,-160,70,-176,-68,-170,-118,-169,-161,127,-127,80,-120,270,270,90,270,270,180,180,90,270,270,180,,,,,,,,,,,1910.3623,1910.3629,,0,43,43,43,1,7,repeated,,,,,,,,,,,,,,,,,,,,,,,,,,,,,,,,,,,,,,,,,,,,,,,,,
,,11,4,${e://Field/PROLIFIC_PID,F,18,2023-11-03_08h15.31.934,MouseEye_CC,2023.2.2,Win32,48.03766153,1.28,,,1536,864,49.872,4.73,"25.88, 23.54, 520.36, 16.75, 22.88, 27.48, 525.32",816.64,8.705189981,41.17554861,27.83653633,Failed,137.9380878,,,,,,,,,,,,,,,,,,,,,training,3,13,180,right,s,,,,,1910.364,1910.8418,35.84,12,1.600006104,1,0,0,0.4773,fixationPoint,1910.842,1910.9335,1910.9336,1916.0716,35.84,10240,616.96,s,1,5.1058,,1916.0718,1916.2579,,,,,,,,29,169,125,-174,115,-210,215,-68,174,-163,-220,-72,-128,-70,-67,112,-215,209,-208,72,-19,212,128,69,127,360,90,90,180,360,360,180,270,90,360,270,,,,,,,,,,,1916.258,1916.2586,,0,44,44,44,1,14,novel,,,,,,,,,,,,,,,,,,,,,,,,,,,,,,,,,,,,,,,,,,,,,,,,,
,,11,4,${e://Field/PROLIFIC_PID,F,18,2023-11-03_08h15.31.934,MouseEye_CC,2023.2.2,Win32,48.03766153,1.28,,,1536,864,49.872,4.73,"25.88, 23.54, 520.36, 16.75, 22.88, 27.48, 525.32",816.64,8.705189981,41.17554861,27.83653633,Failed,137.9380878,,,,,,,,,,,,,,,,,,,,,training,3,14,180,right,s,,,,,1916.2597,1916.7026,35.84,7.200012207,0.799987793,1,0,0,0.4426,fixationPoint,1916.7026,1916.7995,1916.7996,1918.9051,35.84,10240,616.96,s,1,2.0737,,1918.9052,1919.0913,,,,,,,,4,-80,213,161,170,175,209,208,24,-167,-32,-121,-18,-65,-160,27,-68,19,-127,209,-208,-212,69,-16,126,360,270,90,360,90,90,180,90,90,180,180,,,,,,,,,,,1919.0913,1919.0918,,0,45,45,45,1,15,novel,,,,,,,,,,,,,,,,,,,,,,,,,,,,,,,,,,,,,,,,,,,,,,,,,
,,11,4,${e://Field/PROLIFIC_PID,F,18,2023-11-03_08h15.31.934,MouseEye_CC,2023.2.2,Win32,48.03766153,1.28,,,1536,864,49.872,4.73,"25.88, 23.54, 520.36, 16.75, 22.88, 27.48, 525.32",816.64,8.705189981,41.17554861,27.83653633,Failed,137.9380878,,,,,,,,,,,,,,,,,,,,,training,3,15,180,right,s,,,,,1919.0929,1919.5281,35.84,-10.39996338,-4,1,0,0,0.435,fixationPoint,1919.5282,1919.6328,1919.6329,1920.5291,35.84,10240,616.96,s,1,0.8555,,1920.5295,1920.7164,,,,,,,,25,-16,126,26,217,20,116,72,175,-31,-65,-117,-167,-121,-18,126,-28,209,-208,163,-120,-128,76,-116,112,180,180,360,180,360,90,270,180,360,360,180,,,,,,,,,,,1920.7166,1920.7179,,0,46,46,46,1,3,repeated,,,,,,,,,,,,,,,,,,,,,,,,,,,,,,,,,,,,,,,,,,,,,,,,,
,,11,4,${e://Field/PROLIFIC_PID,F,18,2023-11-03_08h15.31.934,MouseEye_CC,2023.2.2,Win32,48.03766153,1.28,,,1536,864,49.872,4.73,"25.88, 23.54, 520.36, 16.75, 22.88, 27.48, 525.32",816.64,8.705189981,41.17554861,27.83653633,Failed,137.9380878,,,,,,,,,,,,,,,,,,,,,training,3,16,0,left,a,,,,,1920.7199,1921.1954,35.84,-5.599975586,-4,1,0,0,0.4752,fixationPoint,1921.1954,1921.3003,1921.3005,1924.9035,35.84,10240,616.96,a,1,3.5641,,1924.9038,1925.0914,,,,,,,,96,20,-222,164,76,80,222,28,21,-172,214,-115,218,-20,212,-170,-118,-167,-32,-219,-120,222,-126,209,-208,360,180,90,90,360,90,270,360,180,270,270,,,,,,,,,,,1925.0916,1926.6964,space,0,47,47,47,1,12,novel,1.5686,,,,,,,,,,,,,,,,,,,,,,,,,,,,,,,,,,,,,,,,,,,,,,,,
,,11,4,${e://Field/PROLIFIC_PID,F,18,2023-11-03_08h15.31.934,MouseEye_CC,2023.2.2,Win32,48.03766153,1.28,,,1536,864,49.872,4.73,"25.88, 23.54, 520.36, 16.75, 22.88, 27.48, 525.32",816.64,8.705189981,41.17554861,27.83653633,Failed,137.9380878,,,,,,,,,,,,,,,,,,,,,training,4,1,180,right,s,,,,,1926.6976,1927.6398,35.84,-32,-21.6000061,1,0,0,0.5601,fixationPoint,1927.6399,1927.7275,1927.7277,1928.7792,35.84,10240,616.96,s,1,1.0258,,1928.7796,1928.9661,,,,,,,,76,19,-127,26,171,26,217,166,16,-216,125,-208,172,-221,25,-167,-32,-116,-73,-121,-18,20,-222,174,-70,180,270,270,360,360,180,180,360,270,270,90,,,,,,,,,,,1928.9662,1928.9697,,0,48,48,48,1,11,novel,,,,,,,,,,,,,,,,,,,,,,,,,,,,,,,,,,,,,,,,,,,,,,,,,
,,11,4,${e://Field/PROLIFIC_PID,F,18,2023-11-03_08h15.31.934,MouseEye_CC,2023.2.2,Win32,48.03766153,1.28,,,1536,864,49.872,4.73,"25.88, 23.54, 520.36, 16.75, 22.88, 27.48, 525.32",816.64,8.705189981,41.17554861,27.83653633,Failed,137.9380878,,,,,,,,,,,,,,,,,,,,,training,4,2,0,left,a,,,,,1928.9707,1929.487,35.84,10.40002441,-2.399993896,1,0,0,0.5161,fixationPoint,1929.4871,1929.5917,1929.592,1931.7383,35.84,10240,616.96,a,1,2.1098,,1931.7385,1931.9246,,,,,,,,25,-16,126,26,217,20,116,72,175,-31,-65,-117,-167,-121,-18,126,-28,209,-208,163,-120,-128,76,-116,112,90,270,90,180,180,270,270,360,180,90,360,,,,,,,,,,,1931.9247,1931.9256,,0,49,49,49,1,3,repeated,,,,,,,,,,,,,,,,,,,,,,,,,,,,,,,,,,,,,,,,,,,,,,,,,
,,11,4,${e://Field/PROLIFIC_PID,F,18,2023-11-03_08h15.31.934,MouseEye_CC,2023.2.2,Win32,48.03766153,1.28,,,1536,864,49.872,4.73,"25.88, 23.54, 520.36, 16.75, 22.88, 27.48, 525.32",816.64,8.705189981,41.17554861,27.83653633,Failed,137.9380878,,,,,,,,,,,,,,,,,,,,,training,4,3,180,right,s,,,,,1931.9266,1932.3824,35.84,14.40002441,9.600006104,1,0,0,0.4533,fixationPoint,1932.3824,1932.4874,1932.4877,1934.9672,35.84,10240,616.96,a,0,2.4485,,1934.9674,1938.967,,,,,,,,13,-126,173,208,24,161,170,72,175,-72,-128,-121,-18,-75,-24,209,-208,215,-66,211,-168,-115,218,-80,213,90,90,180,90,270,90,360,90,90,180,360,,,,,,,,,,,1938.9671,1938.9945,,0,50,50,50,1,16,novel,,,,,,,,,,,,,,,,,,,,,,,,,,,,,,,,,,,,,,,,,,,,,,,,,
,,11,4,${e://Field/PROLIFIC_PID,F,18,2023-11-03_08h15.31.934,MouseEye_CC,2023.2.2,Win32,48.03766153,1.28,,,1536,864,49.872,4.73,"25.88, 23.54, 520.36, 16.75, 22.88, 27.48, 525.32",816.64,8.705189981,41.17554861,27.83653633,Failed,137.9380878,,,,,,,,,,,,,,,,,,,,,training,4,4,0,left,a,,,,,1938.9954,1939.4032,35.84,10.40002441,5.600006104,1,0,0,0.4076,fixationPoint,1939.4033,1939.508,1939.5082,1941.4459,35.84,10240,616.96,a,1,1.8994,,1941.4461,1941.6331,,,,,,,,72,-170,-118,66,72,222,168,169,125,-30,28,-212,69,-117,22,174,-70,68,-64,124,-170,-70,-67,-218,-30,270,180,360,180,360,270,180,360,360,270,180,,,,,,,,,,,1941.6332,1941.6338,,0,51,51,51,1,6,repeated,,,,,,,,,,,,,,,,,,,,,,,,,,,,,,,,,,,,,,,,,,,,,,,,,
,,11,4,${e://Field/PROLIFIC_PID,F,18,2023-11-03_08h15.31.934,MouseEye_CC,2023.2.2,Win32,48.03766153,1.28,,,1536,864,49.872,4.73,"25.88, 23.54, 520.36, 16.75, 22.88, 27.48, 525.32",816.64,8.705189981,41.17554861,27.83653633,Failed,137.9380878,,,,,,,,,,,,,,,,,,,,,training,4,5,0,left,a,,,,,1941.6348,1942.133,35.84,4,-5.600006104,1,0,0,0.4981,fixationPoint,1942.1331,1942.2209,1942.2211,1943.2797,35.84,10240,616.96,a,1,1.0206,,1943.28,1943.4738,,,,,,,,74,-72,-128,208,24,161,170,120,66,-212,69,-208,172,-70,75,16,-173,19,-127,72,-221,-218,-30,-19,-176,90,360,90,180,360,270,360,90,360,360,180,,,,,,,,,,,1943.4739,1943.4745,,0,52,52,52,1,9,novel,,,,,,,,,,,,,,,,,,,,,,,,,,,,,,,,,,,,,,,,,,,,,,,,,
,,11,4,${e://Field/PROLIFIC_PID,F,18,2023-11-03_08h15.31.934,MouseEye_CC,2023.2.2,Win32,48.03766153,1.28,,,1536,864,49.872,4.73,"25.88, 23.54, 520.36, 16.75, 22.88, 27.48, 525.32",816.64,8.705189981,41.17554861,27.83653633,Failed,137.9380878,,,,,,,,,,,,,,,,,,,,,training,4,6,180,right,s,,,,,1943.4755,1943.883,35.84,4,-5.600006104,1,0,0,0.4073,fixationPoint,1943.8831,1943.9736,1943.9737,1946.8208,35.84,10240,616.96,s,1,2.8097,,1946.8211,1947.0083,,,,,,,,97,72,-221,169,125,175,209,26,171,-20,212,-216,125,-160,70,-176,-68,-170,-118,-169,-161,127,-127,80,-120,270,360,270,270,270,90,180,90,360,360,360,,,,,,,,,,,1947.0086,1947.0094,,0,53,53,53,1,7,repeated,,,,,,,,,,,,,,,,,,,,,,,,,,,,,,,,,,,,,,,,,,,,,,,,,
,,11,4,${e://Field/PROLIFIC_PID,F,18,2023-11-03_08h15.31.934,MouseEye_CC,2023.2.2,Win32,48.03766153,1.28,,,1536,864,49.872,4.73,"25.88, 23.54, 520.36, 16.75, 22.88, 27.48, 525.32",816.64,8.705189981,41.17554861,27.83653633,Failed,137.9380878,,,,,,,,,,,,,,,,,,,,,training,4,7,180,right,s,,,,,1947.0105,1947.4664,35.84,10.40002441,0,1,0,0,0.4557,fixationPoint,1947.4664,1947.5709,1947.5712,1949.3501,35.84,10240,616.96,s,1,1.7511,,1949.3502,1949.5499,,,,,,,,27,69,127,-160,70,-115,218,-28,64,-224,-218,-169,-161,-219,-120,124,-170,164,-173,174,-70,21,68,161,170,90,360,90,90,180,270,90,90,360,90,270,,,,,,,,,,,1949.5501,1949.551,,0,54,54,54,1,1,repeated,,,,,,,,,,,,,,,,,,,,,,,,,,,,,,,,,,,,,,,,,,,,,,,,,
,,11,4,${e://Field/PROLIFIC_PID,F,18,2023-11-03_08h15.31.934,MouseEye_CC,2023.2.2,Win32,48.03766153,1.28,,,1536,864,49.872,4.73,"25.88, 23.54, 520.36, 16.75, 22.88, 27.48, 525.32",816.64,8.705189981,41.17554861,27.83653633,Failed,137.9380878,,,,,,,,,,,,,,,,,,,,,training,4,8,180,right,s,,,,,1949.5519,1949.9536,35.84,-5.599975586,-4,1,0,0,0.4015,fixationPoint,1949.9536,1950.0501,1950.0504,1951.2802,35.84,10240,616.96,s,1,1.1988,,1951.2805,1951.4666,,,,,,,,38,120,66,-80,16,-176,26,-28,64,-19,-176,-68,-221,-19,-223,211,-168,79,-175,112,-215,175,209,212,128,90,270,90,180,360,360,270,180,90,360,90,,,,,,,,,,,1951.4668,1951.4674,,0,55,55,55,1,13,novel,,,,,,,,,,,,,,,,,,,,,,,,,,,,,,,,,,,,,,,,,,,,,,,,,
,,11,4,${e://Field/PROLIFIC_PID,F,18,2023-11-03_08h15.31.934,MouseEye_CC,2023.2.2,Win32,48.03766153,1.28,,,1536,864,49.872,4.73,"25.88, 23.54, 520.36, 16.75, 22.88, 27.48, 525.32",816.64,8.705189981,41.17554861,27.83653633,Failed,137.9380878,,,,,,,,,,,,,,,,,,,,,training,4,9,0,left,a,,,,,1951.4685,1951.945,35.84,3.200012207,-6.399993896,1,0,0,0.4763,fixationPoint,1951.945,1952.0376,1952.0378,1953.9539,35.84,10240,616.96,a,1,1.8929,,1953.9541,1954.1395,,,,,,,,4,-80,213,166,16,28,21,66,72,-24,-17,-31,-65,-127,-212,222,-126,174,-70,211,-168,-210,215,-172,214,270,90,90,180,180,360,90,180,180,270,180,,,,,,,,,,,1954.1395,1954.1399,,0,56,56,56,1,15,novel,,,,,,,,,,,,,,,,,,,,,,,,,,,,,,,,,,,,,,,,,,,,,,,,,
,,11,4,${e://Field/PROLIFIC_PID,F,18,2023-11-03_08h15.31.934,MouseEye_CC,2023.2.2,Win32,48.03766153,1.28,,,1536,864,49.872,4.73,"25.88, 23.54, 520.36, 16.75, 22.88, 27.48, 525.32",816.64,8.705189981,41.17554861,27.83653633,Failed,137.9380878,,,,,,,,,,,,,,,,,,,,,training,4,10,0,left,a,,,,,1954.1405,1954.5908,35.84,0.799987793,-8.800018311,1,0,0,0.4502,fixationPoint,1954.5909,1954.7072,1954.7073,1956.1121,35.84,10240,616.96,a,1,1.3761,,1956.1123,1956.3001,,,,,,,,88,124,-170,166,16,217,219,169,125,-117,22,-16,126,-126,173,-24,-17,-65,-160,-224,-218,19,-127,169,-32,360,180,360,90,180,180,360,90,90,270,360,,,,,,,,,,,1956.3003,1956.301,,0,57,57,57,1,8,repeated,,,,,,,,,,,,,,,,,,,,,,,,,,,,,,,,,,,,,,,,,,,,,,,,,
,,11,4,${e://Field/PROLIFIC_PID,F,18,2023-11-03_08h15.31.934,MouseEye_CC,2023.2.2,Win32,48.03766153,1.28,,,1536,864,49.872,4.73,"25.88, 23.54, 520.36, 16.75, 22.88, 27.48, 525.32",816.64,8.705189981,41.17554861,27.83653633,Failed,137.9380878,,,,,,,,,,,,,,,,,,,,,training,4,11,180,right,s,,,,,1956.302,1956.716,35.84,-2.399963379,-11.20001221,1,0,0,0.4138,fixationPoint,1956.7162,1956.821,1956.8212,1957.9667,35.84,10240,616.96,s,1,1.1011,,1957.967,1958.1542,,,,,,,,96,20,-222,28,21,120,66,218,80,-160,70,-68,174,-20,212,-20,-123,-218,-30,-65,-160,211,-168,27,-68,270,270,180,270,360,270,90,180,360,360,90,,,,,,,,,,,1958.1544,1958.1554,,0,58,58,58,1,12,novel,,,,,,,,,,,,,,,,,,,,,,,,,,,,,,,,,,,,,,,,,,,,,,,,,
,,11,4,${e://Field/PROLIFIC_PID,F,18,2023-11-03_08h15.31.934,MouseEye_CC,2023.2.2,Win32,48.03766153,1.28,,,1536,864,49.872,4.73,"25.88, 23.54, 520.36, 16.75, 22.88, 27.48, 525.32",816.64,8.705189981,41.17554861,27.83653633,Failed,137.9380878,,,,,,,,,,,,,,,,,,,,,training,4,12,0,left,a,,,,,1958.1562,1958.5913,35.84,15.20001221,-11.20001221,1,0,0,0.4348,fixationPoint,1958.5914,1958.6839,1958.684,1960.6595,35.84,10240,616.96,a,1,1.9525,,1960.6597,1960.8622,,,,,,,,62,-176,-68,28,21,166,16,69,127,-126,173,-28,64,-70,75,68,-64,27,-27,169,-32,-170,-118,-75,-24,360,180,90,360,180,270,90,180,180,360,180,,,,,,,,,,,1960.8623,1960.8632,,0,59,59,59,1,10,novel,,,,,,,,,,,,,,,,,,,,,,,,,,,,,,,,,,,,,,,,,,,,,,,,,
,,11,4,${e://Field/PROLIFIC_PID,F,18,2023-11-03_08h15.31.934,MouseEye_CC,2023.2.2,Win32,48.03766153,1.28,,,1536,864,49.872,4.73,"25.88, 23.54, 520.36, 16.75, 22.88, 27.48, 525.32",816.64,8.705189981,41.17554861,27.83653633,Failed,137.9380878,,,,,,,,,,,,,,,,,,,,,training,4,13,0,left,a,,,,,1960.8647,1961.3462,35.84,-8,-5.600006104,1,0,0,0.4814,fixationPoint,1961.3463,1961.4364,1961.4365,1964.2661,35.84,10240,616.96,a,1,2.81,,1964.2662,1964.4663,,,,,,,,39,164,76,-174,115,-160,70,-20,212,-163,-220,-19,-223,-65,-160,68,-64,27,-27,169,-32,72,175,218,80,360,360,180,180,270,270,180,360,270,180,270,,,,,,,,,,,1964.4664,1964.4668,,0,60,60,60,1,2,repeated,,,,,,,,,,,,,,,,,,,,,,,,,,,,,,,,,,,,,,,,,,,,,,,,,
,,11,4,${e://Field/PROLIFIC_PID,F,18,2023-11-03_08h15.31.934,MouseEye_CC,2023.2.2,Win32,48.03766153,1.28,,,1536,864,49.872,4.73,"25.88, 23.54, 520.36, 16.75, 22.88, 27.48, 525.32",816.64,8.705189981,41.17554861,27.83653633,Failed,137.9380878,,,,,,,,,,,,,,,,,,,,,training,4,14,0,left,a,,,,,1964.468,1964.8625,35.84,14.40002441,3.199981689,1,0,0,0.3942,fixationPoint,1964.8625,1964.9666,1964.9668,1967.1336,35.84,10240,616.96,a,1,2.141,,1967.1337,1967.3206,,,,,,,,5,-20,212,28,21,120,66,77,23,-20,-123,-224,-218,-218,-30,20,-222,19,-127,80,-120,-115,218,-117,22,90,180,270,270,90,90,90,180,180,180,180,,,,,,,,,,,1967.3207,1967.3211,,0,61,61,61,1,4,repeated,,,,,,,,,,,,,,,,,,,,,,,,,,,,,,,,,,,,,,,,,,,,,,,,,
,,11,4,${e://Field/PROLIFIC_PID,F,18,2023-11-03_08h15.31.934,MouseEye_CC,2023.2.2,Win32,48.03766153,1.28,,,1536,864,49.872,4.73,"25.88, 23.54, 520.36, 16.75, 22.88, 27.48, 525.32",816.64,8.705189981,41.17554861,27.83653633,Failed,137.9380878,,,,,,,,,,,,,,,,,,,,,training,4,15,180,right,s,,,,,1967.322,1967.7789,35.84,-10.39996338,3.199981689,1,0,0,0.4566,fixationPoint,1967.779,1967.8832,1967.8833,1970.1127,35.84,10240,616.96,s,1,2.2114,,1970.1129,1970.3003,,,,,,,,29,169,125,-20,212,-221,25,-28,64,-218,-30,-75,-24,-19,-223,79,-175,222,-126,16,-173,175,209,212,128,270,360,90,90,360,270,180,270,270,360,360,,,,,,,,,,,1970.3004,1970.301,,0,62,62,62,1,14,novel,,,,,,,,,,,,,,,,,,,,,,,,,,,,,,,,,,,,,,,,,,,,,,,,,
,,11,4,${e://Field/PROLIFIC_PID,F,18,2023-11-03_08h15.31.934,MouseEye_CC,2023.2.2,Win32,48.03766153,1.28,,,1536,864,49.872,4.73,"25.88, 23.54, 520.36, 16.75, 22.88, 27.48, 525.32",816.64,8.705189981,41.17554861,27.83653633,Failed,137.9380878,,,,,,,,,,,,,,,,,,,,,training,4,16,180,right,s,,,,,1970.3021,1970.6743,35.84,0,-4.800018311,1,0,0,0.3721,fixationPoint,1970.6745,1970.7791,1970.7793,1972.925,35.84,10240,616.96,s,1,2.1339,,1972.9251,1973.1128,,,,,,,,63,-116,-73,21,68,212,128,66,72,-221,25,-128,76,-208,172,19,-127,127,-127,163,-120,-121,-18,-72,-128,270,270,90,360,180,180,90,360,270,270,360,,,,,,,,,,,1973.1129,1974.0088,space,0,63,63,63,1,5,repeated,0.8661,,,,,,,,,,,,,,,,,,,,,,,,,,,,,,,,,,,,,,,,,,,,,,,,
,,11,4,${e://Field/PROLIFIC_PID,F,18,2023-11-03_08h15.31.934,MouseEye_CC,2023.2.2,Win32,48.03766153,1.28,,,1536,864,49.872,4.73,"25.88, 23.54, 520.36, 16.75, 22.88, 27.48, 525.32",816.64,8.705189981,41.17554861,27.83653633,Failed,137.9380878,,,,,,,,,,,,,,,,,,,,,training,5,1,180,right,s,,,,,1974.0096,1974.5497,35.84,-14.39996338,-14.3999939,1,0,0,0.54,fixationPoint,1974.5498,1974.6546,1974.6548,1975.9464,35.84,10240,616.96,a,0,1.2698,,1975.9466,1979.946,,,,,,,,88,124,-170,166,16,217,219,169,125,-117,22,-16,126,-126,173,-24,-17,-65,-160,-224,-218,19,-127,169,-32,360,180,180,180,90,90,90,90,360,360,90,,,,,,,,,,,1979.9462,1979.9753,,0,64,64,64,1,8,repeated,,,,,,,,,,,,,,,,,,,,,,,,,,,,,,,,,,,,,,,,,,,,,,,,,
,,11,4,${e://Field/PROLIFIC_PID,F,18,2023-11-03_08h15.31.934,MouseEye_CC,2023.2.2,Win32,48.03766153,1.28,,,1536,864,49.872,4.73,"25.88, 23.54, 520.36, 16.75, 22.88, 27.48, 525.32",816.64,8.705189981,41.17554861,27.83653633,Failed,137.9380878,,,,,,,,,,,,,,,,,,,,,training,5,2,0,left,a,,,,,1979.9759,1980.473,35.84,10.40002441,-5.600006104,1,0,0,0.4969,fixationPoint,1980.4731,1980.571,1980.5712,1983.7173,35.84,10240,616.96,a,1,3.1029,,1983.7174,1983.9041,,,,,,,,13,-126,173,218,80,161,170,66,72,-70,-67,-220,-68,-121,-18,124,-170,80,-120,127,-127,-116,112,-174,115,360,360,180,180,90,90,180,360,180,360,270,,,,,,,,,,,1983.9041,1983.9047,,0,65,65,65,1,16,novel,,,,,,,,,,,,,,,,,,,,,,,,,,,,,,,,,,,,,,,,,,,,,,,,,
,,11,4,${e://Field/PROLIFIC_PID,F,18,2023-11-03_08h15.31.934,MouseEye_CC,2023.2.2,Win32,48.03766153,1.28,,,1536,864,49.872,4.73,"25.88, 23.54, 520.36, 16.75, 22.88, 27.48, 525.32",816.64,8.705189981,41.17554861,27.83653633,Failed,137.9380878,,,,,,,,,,,,,,,,,,,,,training,5,3,0,left,a,,,,,1983.9055,1984.3624,35.84,2.400024414,5.600006104,1,0,0,0.4566,fixationPoint,1984.3625,1984.4477,1984.4477,1986.3841,35.84,10240,616.96,a,1,1.9136,,1986.3842,1986.5715,,,,,,,,76,19,-127,175,209,66,72,169,125,-175,164,-128,76,-117,22,-176,-68,-167,-32,-121,-18,163,-120,124,-170,180,90,180,180,180,360,270,90,270,180,360,,,,,,,,,,,1986.5717,1986.5723,,0,66,66,66,1,11,novel,,,,,,,,,,,,,,,,,,,,,,,,,,,,,,,,,,,,,,,,,,,,,,,,,
,,11,4,${e://Field/PROLIFIC_PID,F,18,2023-11-03_08h15.31.934,MouseEye_CC,2023.2.2,Win32,48.03766153,1.28,,,1536,864,49.872,4.73,"25.88, 23.54, 520.36, 16.75, 22.88, 27.48, 525.32",816.64,8.705189981,41.17554861,27.83653633,Failed,137.9380878,,,,,,,,,,,,,,,,,,,,,training,5,4,180,right,s,,,,,1986.5731,1986.9252,35.84,-2.399963379,-12,1,0,0,0.3515,fixationPoint,1986.9255,1987.029,1987.0293,1988.8007,35.84,10240,616.96,s,1,1.7276,,1988.8009,1988.9871,,,,,,,,25,-16,126,26,217,20,116,72,175,-31,-65,-117,-167,-121,-18,126,-28,209,-208,163,-120,-128,76,-116,112,360,90,180,270,90,360,360,180,270,180,90,,,,,,,,,,,1988.9873,1988.9879,,0,67,67,67,1,3,repeated,,,,,,,,,,,,,,,,,,,,,,,,,,,,,,,,,,,,,,,,,,,,,,,,,
,,11,4,${e://Field/PROLIFIC_PID,F,18,2023-11-03_08h15.31.934,MouseEye_CC,2023.2.2,Win32,48.03766153,1.28,,,1536,864,49.872,4.73,"25.88, 23.54, 520.36, 16.75, 22.88, 27.48, 525.32",816.64,8.705189981,41.17554861,27.83653633,Failed,137.9380878,,,,,,,,,,,,,,,,,,,,,training,5,5,0,left,a,,,,,1988.9891,1989.3698,35.84,7.200012207,-6.399993896,1,0,0,0.3804,fixationPoint,1989.3698,1989.4678,1989.468,1990.9884,35.84,10240,616.96,a,1,1.4806,,1990.9887,1991.1752,,,,,,,,96,20,-222,20,116,69,127,222,168,-221,25,-28,64,-115,218,-72,-128,-224,-218,-209,-164,79,-175,215,-66,180,360,270,180,360,270,270,90,270,180,270,,,,,,,,,,,1991.1753,1991.1758,,0,68,68,68,1,12,novel,,,,,,,,,,,,,,,,,,,,,,,,,,,,,,,,,,,,,,,,,,,,,,,,,
,,11,4,${e://Field/PROLIFIC_PID,F,18,2023-11-03_08h15.31.934,MouseEye_CC,2023.2.2,Win32,48.03766153,1.28,,,1536,864,49.872,4.73,"25.88, 23.54, 520.36, 16.75, 22.88, 27.48, 525.32",816.64,8.705189981,41.17554861,27.83653633,Failed,137.9380878,,,,,,,,,,,,,,,,,,,,,training,5,6,0,left,a,,,,,1991.177,1991.6542,35.84,10.40002441,-11.20001221,1,0,0,0.477,fixationPoint,1991.6544,1991.7472,1991.7472,1993.0929,35.84,10240,616.96,a,1,1.3265,,1993.0929,1993.2789,,,,,,,,63,-116,-73,21,68,212,128,66,72,-221,25,-128,76,-208,172,19,-127,127,-127,163,-120,-121,-18,-72,-128,270,90,180,180,360,180,270,180,270,360,270,,,,,,,,,,,1993.279,1993.2796,,0,69,69,69,1,5,repeated,,,,,,,,,,,,,,,,,,,,,,,,,,,,,,,,,,,,,,,,,,,,,,,,,
,,11,4,${e://Field/PROLIFIC_PID,F,18,2023-11-03_08h15.31.934,MouseEye_CC,2023.2.2,Win32,48.03766153,1.28,,,1536,864,49.872,4.73,"25.88, 23.54, 520.36, 16.75, 22.88, 27.48, 525.32",816.64,8.705189981,41.17554861,27.83653633,Failed,137.9380878,,,,,,,,,,,,,,,,,,,,,training,5,7,180,right,s,,,,,1993.281,1993.7583,35.84,-3.200012207,-0.800018311,1,0,0,0.4771,fixationPoint,1993.7584,1993.8435,1993.8436,1995.3002,35.84,10240,616.96,s,1,1.4232,,1995.3006,1995.4924,,,,,,,,62,-176,-68,164,76,217,219,80,222,-174,115,-117,22,-20,212,215,-66,72,-221,174,-70,-170,-118,-24,-17,90,180,180,270,90,180,180,90,270,360,270,,,,,,,,,,,1995.4925,1995.4928,,0,70,70,70,1,10,novel,,,,,,,,,,,,,,,,,,,,,,,,,,,,,,,,,,,,,,,,,,,,,,,,,
,,11,4,${e://Field/PROLIFIC_PID,F,18,2023-11-03_08h15.31.934,MouseEye_CC,2023.2.2,Win32,48.03766153,1.28,,,1536,864,49.872,4.73,"25.88, 23.54, 520.36, 16.75, 22.88, 27.48, 525.32",816.64,8.705189981,41.17554861,27.83653633,Failed,137.9380878,,,,,,,,,,,,,,,,,,,,,training,5,8,180,right,s,,,,,1995.4936,1995.9258,35.84,-6.399963379,2.399993896,1,0,0,0.4317,fixationPoint,1995.926,1996.0168,1996.0169,1998.1128,35.84,10240,616.96,s,1,2.0638,,1998.1132,1998.2998,,,,,,,,29,169,125,-175,164,-28,64,-80,213,-163,-220,-169,-161,-75,-24,16,-173,119,-76,126,-28,26,171,26,217,270,360,180,90,180,270,180,90,270,90,180,,,,,,,,,,,1998.3001,1998.3008,,0,71,71,71,1,14,novel,,,,,,,,,,,,,,,,,,,,,,,,,,,,,,,,,,,,,,,,,,,,,,,,,
,,11,4,${e://Field/PROLIFIC_PID,F,18,2023-11-03_08h15.31.934,MouseEye_CC,2023.2.2,Win32,48.03766153,1.28,,,1536,864,49.872,4.73,"25.88, 23.54, 520.36, 16.75, 22.88, 27.48, 525.32",816.64,8.705189981,41.17554861,27.83653633,Failed,137.9380878,,,,,,,,,,,,,,,,,,,,,training,5,9,0,left,a,,,,,1998.3018,1998.7374,35.84,15.20001221,9.600006104,1,0,0,0.4354,fixationPoint,1998.7375,1998.8418,1998.8421,2000.8222,35.84,10240,616.96,s,0,1.9458,,2000.8223,2004.8211,,,,,,,,5,-20,212,28,21,120,66,77,23,-20,-123,-224,-218,-218,-30,20,-222,19,-127,80,-120,-115,218,-117,22,360,270,180,360,180,90,180,360,90,360,270,,,,,,,,,,,2004.8213,2004.8492,,0,72,72,72,1,4,repeated,,,,,,,,,,,,,,,,,,,,,,,,,,,,,,,,,,,,,,,,,,,,,,,,,
,,11,4,${e://Field/PROLIFIC_PID,F,18,2023-11-03_08h15.31.934,MouseEye_CC,2023.2.2,Win32,48.03766153,1.28,,,1536,864,49.872,4.73,"25.88, 23.54, 520.36, 16.75, 22.88, 27.48, 525.32",816.64,8.705189981,41.17554861,27.83653633,Failed,137.9380878,,,,,,,,,,,,,,,,,,,,,training,5,10,0,left,a,,,,,2004.85,2005.3202,35.84,4,1.600006104,1,0,0,0.4701,fixationPoint,2005.3203,2005.4131,2005.4132,2006.8839,35.84,10240,616.96,a,1,1.4391,,2006.8841,2007.0758,,,,,,,,74,-72,-128,26,171,77,23,218,80,-208,172,-20,212,-70,75,72,-221,211,-168,20,-222,-31,-65,-68,-221,360,270,270,360,270,270,90,360,360,270,90,,,,,,,,,,,2007.0758,2007.0762,,0,73,73,73,1,9,novel,,,,,,,,,,,,,,,,,,,,,,,,,,,,,,,,,,,,,,,,,,,,,,,,,
,,11,4,${e://Field/PROLIFIC_PID,F,18,2023-11-03_08h15.31.934,MouseEye_CC,2023.2.2,Win32,48.03766153,1.28,,,1536,864,49.872,4.73,"25.88, 23.54, 520.36, 16.75, 22.88, 27.48, 525.32",816.64,8.705189981,41.17554861,27.83653633,Failed,137.9380878,,,,,,,,,,,,,,,,,,,,,training,5,11,180,right,s,,,,,2007.0773,2007.5293,35.84,8.799987793,14.3999939,1,0,0,0.4514,fixationPoint,2007.5297,2007.6199,2007.62,2009.8005,35.84,10240,616.96,s,1,2.1537,,2009.8007,2009.9875,,,,,,,,38,120,66,-68,174,-30,28,-176,26,-169,-161,-176,-68,-75,-24,80,-120,209,-208,169,-32,169,125,26,171,180,270,90,360,90,360,90,360,180,180,270,,,,,,,,,,,2009.9877,2009.9888,,0,74,74,74,1,13,novel,,,,,,,,,,,,,,,,,,,,,,,,,,,,,,,,,,,,,,,,,,,,,,,,,
,,11,4,${e://Field/PROLIFIC_PID,F,18,2023-11-03_08h15.31.934,MouseEye_CC,2023.2.2,Win32,48.03766153,1.28,,,1536,864,49.872,4.73,"25.88, 23.54, 520.36, 16.75, 22.88, 27.48, 525.32",816.64,8.705189981,41.17554861,27.83653633,Failed,137.9380878,,,,,,,,,,,,,,,,,,,,,training,5,12,180,right,s,,,,,2009.9898,2010.4295,35.84,4,4,1,0,0,0.4395,fixationPoint,2010.4295,2010.5192,2010.5194,2013.4319,35.84,10240,616.96,s,1,2.8933,,2013.432,2013.6333,,,,,,,,27,69,127,-160,70,-115,218,-28,64,-224,-218,-169,-161,-219,-120,124,-170,164,-173,174,-70,21,68,161,170,360,180,270,180,270,90,90,180,90,180,360,,,,,,,,,,,2013.6334,2013.6341,,0,75,75,75,1,1,repeated,,,,,,,,,,,,,,,,,,,,,,,,,,,,,,,,,,,,,,,,,,,,,,,,,
,,11,4,${e://Field/PROLIFIC_PID,F,18,2023-11-03_08h15.31.934,MouseEye_CC,2023.2.2,Win32,48.03766153,1.28,,,1536,864,49.872,4.73,"25.88, 23.54, 520.36, 16.75, 22.88, 27.48, 525.32",816.64,8.705189981,41.17554861,27.83653633,Failed,137.9380878,,,,,,,,,,,,,,,,,,,,,training,5,13,0,left,a,,,,,2013.6352,2014.1746,35.84,1.600036621,-8,1,0,0,0.5393,fixationPoint,2014.1746,2014.2659,2014.2659,2017.3839,35.84,10240,616.96,a,1,3.0919,,2017.3842,2017.5712,,,,,,,,4,-80,213,208,24,120,66,114,216,-116,-73,-70,-67,-72,-128,214,-24,27,-27,119,-76,-210,215,-30,28,360,270,360,360,180,360,180,90,270,360,180,,,,,,,,,,,2017.5714,2017.5719,,0,76,76,76,1,15,novel,,,,,,,,,,,,,,,,,,,,,,,,,,,,,,,,,,,,,,,,,,,,,,,,,
,,11,4,${e://Field/PROLIFIC_PID,F,18,2023-11-03_08h15.31.934,MouseEye_CC,2023.2.2,Win32,48.03766153,1.28,,,1536,864,49.872,4.73,"25.88, 23.54, 520.36, 16.75, 22.88, 27.48, 525.32",816.64,8.705189981,41.17554861,27.83653633,Failed,137.9380878,,,,,,,,,,,,,,,,,,,,,training,5,14,180,right,s,,,,,2017.573,2017.8903,35.84,-3.200012207,-11.20001221,1,0,0,0.3173,fixationPoint,2017.8904,2017.9756,2017.9757,2019.4874,35.84,10240,616.96,s,1,1.4909,,2019.4877,2019.6749,,,,,,,,72,-170,-118,66,72,222,168,169,125,-30,28,-212,69,-117,22,174,-70,68,-64,124,-170,-70,-67,-218,-30,360,360,180,90,360,270,90,360,360,270,270,,,,,,,,,,,2019.675,2019.6758,,0,77,77,77,1,6,repeated,,,,,,,,,,,,,,,,,,,,,,,,,,,,,,,,,,,,,,,,,,,,,,,,,
,,11,4,${e://Field/PROLIFIC_PID,F,18,2023-11-03_08h15.31.934,MouseEye_CC,2023.2.2,Win32,48.03766153,1.28,,,1536,864,49.872,4.73,"25.88, 23.54, 520.36, 16.75, 22.88, 27.48, 525.32",816.64,8.705189981,41.17554861,27.83653633,Failed,137.9380878,,,,,,,,,,,,,,,,,,,,,training,5,15,180,right,s,,,,,2019.6768,2020.1348,35.84,11.20001221,-10.3999939,1,0,0,0.4571,fixationPoint,2020.135,2020.2375,2020.2376,2021.7587,35.84,10240,616.96,s,1,1.48,,2021.759,2021.9465,,,,,,,,97,72,-221,169,125,175,209,26,171,-20,212,-216,125,-160,70,-176,-68,-170,-118,-169,-161,127,-127,80,-120,180,90,360,90,180,90,360,360,180,90,180,,,,,,,,,,,2021.9469,2021.9474,,0,78,78,78,1,7,repeated,,,,,,,,,,,,,,,,,,,,,,,,,,,,,,,,,,,,,,,,,,,,,,,,,
,,11,4,${e://Field/PROLIFIC_PID,F,18,2023-11-03_08h15.31.934,MouseEye_CC,2023.2.2,Win32,48.03766153,1.28,,,1536,864,49.872,4.73,"25.88, 23.54, 520.36, 16.75, 22.88, 27.48, 525.32",816.64,8.705189981,41.17554861,27.83653633,Failed,137.9380878,,,,,,,,,,,,,,,,,,,,,training,5,16,0,left,a,,,,,2021.9483,2022.9458,35.84,-2.399963379,-18.3999939,1,0,0,0.3717,fixationPoint,2022.946,2023.0502,2023.0505,2025.3635,35.84,10240,616.96,a,1,2.2757,,2025.3639,2025.5505,,,,,,,,39,164,76,-174,115,-160,70,-20,212,-163,-220,-19,-223,-65,-160,68,-64,27,-27,169,-32,72,175,218,80,180,180,180,270,270,270,90,360,180,270,180,,,,,,,,,,,2025.5509,2026.6133,space,0,79,79,79,1,2,repeated,1.0255,,,,,,,,,,,,,,,,,,,,,,,,,,,,,,,,,,,,,,,,,,,,,,,,
,,11,4,${e://Field/PROLIFIC_PID,F,18,2023-11-03_08h15.31.934,MouseEye_CC,2023.2.2,Win32,48.03766153,1.28,,,1536,864,49.872,4.73,"25.88, 23.54, 520.36, 16.75, 22.88, 27.48, 525.32",816.64,8.705189981,41.17554861,27.83653633,Failed,137.9380878,,,,,,,,,,,,,,,,,,,,,training,6,1,180,right,s,,,,,2026.6146,2027.6542,35.84,7.200012207,-5.600006104,1,0,0,1.0393,fixationPoint,2027.6543,2027.7459,2027.746,2029.3635,35.84,10240,616.96,a,0,1.5892,,2029.3638,2033.3626,,,,,,,,63,-116,-73,21,68,212,128,66,72,-221,25,-128,76,-208,172,19,-127,127,-127,163,-120,-121,-18,-72,-128,270,360,90,90,180,270,180,180,360,270,360,,,,,,,,,,,2033.3628,2033.3765,,0,80,80,80,1,5,repeated,,,,,,,,,,,,,,,,,,,,,,,,,,,,,,,,,,,,,,,,,,,,,,,,,
,,11,4,${e://Field/PROLIFIC_PID,F,18,2023-11-03_08h15.31.934,MouseEye_CC,2023.2.2,Win32,48.03766153,1.28,,,1536,864,49.872,4.73,"25.88, 23.54, 520.36, 16.75, 22.88, 27.48, 525.32",816.64,8.705189981,41.17554861,27.83653633,Failed,137.9380878,,,,,,,,,,,,,,,,,,,,,training,6,2,180,right,s,,,,,2033.3769,2033.391,35.84,-10.39996338,-12,1,0,0,0.0139,fixationPoint,2033.3911,2033.4877,2033.4879,2034.8627,35.84,10240,616.96,a,0,1.3345,,2034.8629,2038.8631,,,,,,,,62,-176,-68,66,72,72,175,121,167,-175,164,-70,75,-73,119,209,-208,27,-68,112,-215,-117,-167,-219,-120,270,90,180,360,270,180,90,180,90,180,90,,,,,,,,,,,2038.8634,2038.8912,,0,81,81,81,1,10,novel,,,,,,,,,,,,,,,,,,,,,,,,,,,,,,,,,,,,,,,,,,,,,,,,,
,,11,4,${e://Field/PROLIFIC_PID,F,18,2023-11-03_08h15.31.934,MouseEye_CC,2023.2.2,Win32,48.03766153,1.28,,,1536,864,49.872,4.73,"25.88, 23.54, 520.36, 16.75, 22.88, 27.48, 525.32",816.64,8.705189981,41.17554861,27.83653633,Failed,137.9380878,,,,,,,,,,,,,,,,,,,,,training,6,3,0,left,a,,,,,2038.892,2039.4869,35.84,8.799987793,15.19998169,1,0,0,0.5946,fixationPoint,2039.4869,2039.5786,2039.5786,2041.1626,35.84,10240,616.96,a,1,1.5638,,2041.1627,2041.3628,,,,,,,,72,-170,-118,66,72,222,168,169,125,-30,28,-212,69,-117,22,174,-70,68,-64,124,-170,-70,-67,-218,-30,180,180,270,90,180,180,180,90,90,360,270,,,,,,,,,,,2041.363,2041.3638,,0,82,82,82,1,6,repeated,,,,,,,,,,,,,,,,,,,,,,,,,,,,,,,,,,,,,,,,,,,,,,,,,
,,11,4,${e://Field/PROLIFIC_PID,F,18,2023-11-03_08h15.31.934,MouseEye_CC,2023.2.2,Win32,48.03766153,1.28,,,1536,864,49.872,4.73,"25.88, 23.54, 520.36, 16.75, 22.88, 27.48, 525.32",816.64,8.705189981,41.17554861,27.83653633,Failed,137.9380878,,,,,,,,,,,,,,,,,,,,,training,6,4,180,right,s,,,,,2041.3648,2041.8416,35.84,-2.399963379,-5.600006104,1,0,0,0.4767,fixationPoint,2041.8417,2041.9462,2041.9464,2044.8012,35.84,10240,616.96,s,1,2.8238,,2044.8013,2044.9878,,,,,,,,88,124,-170,166,16,217,219,169,125,-117,22,-16,126,-126,173,-24,-17,-65,-160,-224,-218,19,-127,169,-32,360,90,270,90,180,360,90,90,360,180,270,,,,,,,,,,,2044.9879,2044.9886,,0,83,83,83,1,8,repeated,,,,,,,,,,,,,,,,,,,,,,,,,,,,,,,,,,,,,,,,,,,,,,,,,
,,11,4,${e://Field/PROLIFIC_PID,F,18,2023-11-03_08h15.31.934,MouseEye_CC,2023.2.2,Win32,48.03766153,1.28,,,1536,864,49.872,4.73,"25.88, 23.54, 520.36, 16.75, 22.88, 27.48, 525.32",816.64,8.705189981,41.17554861,27.83653633,Failed,137.9380878,,,,,,,,,,,,,,,,,,,,,training,6,5,0,left,a,,,,,2044.9895,2045.4667,35.84,0,-12,1,0,0,0.4769,fixationPoint,2045.4668,2045.5517,2045.5519,2047.592,35.84,10240,616.96,a,1,1.9973,,2047.5922,2047.7792,,,,,,,,29,169,125,-16,126,-210,215,-216,125,-219,-120,-72,-128,-31,-65,169,-32,27,-68,79,-175,80,222,175,209,180,180,360,90,90,90,180,180,90,180,90,,,,,,,,,,,2047.7794,2047.7801,,0,84,84,84,1,14,novel,,,,,,,,,,,,,,,,,,,,,,,,,,,,,,,,,,,,,,,,,,,,,,,,,
,,11,4,${e://Field/PROLIFIC_PID,F,18,2023-11-03_08h15.31.934,MouseEye_CC,2023.2.2,Win32,48.03766153,1.28,,,1536,864,49.872,4.73,"25.88, 23.54, 520.36, 16.75, 22.88, 27.48, 525.32",816.64,8.705189981,41.17554861,27.83653633,Failed,137.9380878,,,,,,,,,,,,,,,,,,,,,training,6,6,0,left,a,,,,,2047.7812,2048.2797,35.84,-0.799987793,-10.3999939,1,0,0,0.4982,fixationPoint,2048.28,2048.3909,2048.391,2049.4678,35.84,10240,616.96,a,1,1.0518,,2049.468,2049.6541,,,,,,,,27,69,127,-160,70,-115,218,-28,64,-224,-218,-169,-161,-219,-120,124,-170,164,-173,174,-70,21,68,161,170,90,90,90,360,270,180,90,270,90,360,360,,,,,,,,,,,2049.6547,2049.6554,,0,85,85,85,1,1,repeated,,,,,,,,,,,,,,,,,,,,,,,,,,,,,,,,,,,,,,,,,,,,,,,,,
,,11,4,${e://Field/PROLIFIC_PID,F,18,2023-11-03_08h15.31.934,MouseEye_CC,2023.2.2,Win32,48.03766153,1.28,,,1536,864,49.872,4.73,"25.88, 23.54, 520.36, 16.75, 22.88, 27.48, 525.32",816.64,8.705189981,41.17554861,27.83653633,Failed,137.9380878,,,,,,,,,,,,,,,,,,,,,training,6,7,180,right,s,,,,,2049.6564,2050.2378,35.84,10.40002441,0,1,0,0,0.5812,fixationPoint,2050.2378,2050.3291,2050.3292,2051.6339,35.84,10240,616.96,s,1,1.2724,,2051.6342,2051.8215,,,,,,,,96,20,-222,66,72,21,68,212,128,-28,64,-16,126,-221,25,-169,-161,-24,-17,-117,-167,174,-70,215,-66,270,270,360,360,180,180,90,90,270,90,270,,,,,,,,,,,2051.8217,2051.8225,,0,86,86,86,1,12,novel,,,,,,,,,,,,,,,,,,,,,,,,,,,,,,,,,,,,,,,,,,,,,,,,,
,,11,4,${e://Field/PROLIFIC_PID,F,18,2023-11-03_08h15.31.934,MouseEye_CC,2023.2.2,Win32,48.03766153,1.28,,,1536,864,49.872,4.73,"25.88, 23.54, 520.36, 16.75, 22.88, 27.48, 525.32",816.64,8.705189981,41.17554861,27.83653633,Failed,137.9380878,,,,,,,,,,,,,,,,,,,,,training,6,8,180,right,s,,,,,2051.8235,2052.3208,35.84,-10.39996338,-8.800018311,1,0,0,0.497,fixationPoint,2052.3208,2052.4124,2052.4126,2055.2592,35.84,10240,616.96,s,1,2.8212,,2055.2596,2055.4462,,,,,,,,5,-20,212,28,21,120,66,77,23,-20,-123,-224,-218,-218,-30,20,-222,19,-127,80,-120,-115,218,-117,22,90,270,270,180,270,180,90,360,90,90,270,,,,,,,,,,,2055.4463,2055.4471,,0,87,87,87,1,4,repeated,,,,,,,,,,,,,,,,,,,,,,,,,,,,,,,,,,,,,,,,,,,,,,,,,
,,11,4,${e://Field/PROLIFIC_PID,F,18,2023-11-03_08h15.31.934,MouseEye_CC,2023.2.2,Win32,48.03766153,1.28,,,1536,864,49.872,4.73,"25.88, 23.54, 520.36, 16.75, 22.88, 27.48, 525.32",816.64,8.705189981,41.17554861,27.83653633,Failed,137.9380878,,,,,,,,,,,,,,,,,,,,,training,6,9,180,right,s,,,,,2055.4483,2055.9456,35.84,2.400024414,3.199981689,1,0,0,0.497,fixationPoint,2055.9456,2056.0354,2056.0356,2057.488,35.84,10240,616.96,s,1,1.4178,,2057.4882,2057.6822,,,,,,,,76,19,-127,26,171,21,68,212,128,-172,214,-117,22,-212,69,-220,-68,-127,-212,-167,-32,68,-64,79,-175,270,90,270,180,360,360,180,180,180,270,360,,,,,,,,,,,2057.6824,2057.6827,,0,88,88,88,1,11,novel,,,,,,,,,,,,,,,,,,,,,,,,,,,,,,,,,,,,,,,,,,,,,,,,,
,,11,4,${e://Field/PROLIFIC_PID,F,18,2023-11-03_08h15.31.934,MouseEye_CC,2023.2.2,Win32,48.03766153,1.28,,,1536,864,49.872,4.73,"25.88, 23.54, 520.36, 16.75, 22.88, 27.48, 525.32",816.64,8.705189981,41.17554861,27.83653633,Failed,137.9380878,,,,,,,,,,,,,,,,,,,,,training,6,10,180,right,s,,,,,2057.6835,2058.1332,35.84,8,-0.800018311,1,0,0,0.4494,fixationPoint,2058.1334,2058.2239,2058.224,2061.6544,35.84,10240,616.96,s,1,3.3969,,2061.6547,2061.8493,,,,,,,,4,-80,213,66,72,218,80,26,217,-127,-212,-170,-118,-224,-218,68,-64,222,-126,174,-70,-20,212,-115,218,360,180,180,180,360,270,270,180,90,360,180,,,,,,,,,,,2061.8495,2061.8498,,0,89,89,89,1,15,novel,,,,,,,,,,,,,,,,,,,,,,,,,,,,,,,,,,,,,,,,,,,,,,,,,
,,11,4,${e://Field/PROLIFIC_PID,F,18,2023-11-03_08h15.31.934,MouseEye_CC,2023.2.2,Win32,48.03766153,1.28,,,1536,864,49.872,4.73,"25.88, 23.54, 520.36, 16.75, 22.88, 27.48, 525.32",816.64,8.705189981,41.17554861,27.83653633,Failed,137.9380878,,,,,,,,,,,,,,,,,,,,,training,6,11,180,right,s,,,,,2061.8509,2062.3413,35.84,0,0.799987793,1,0,0,0.4901,fixationPoint,2062.3414,2062.4323,2062.4324,2065.1967,35.84,10240,616.96,s,1,2.743,,2065.197,2065.3838,,,,,,,,38,120,66,-126,173,-28,64,-221,25,-19,-176,-75,-24,-170,-118,72,-19,222,-126,209,-208,222,168,21,68,270,270,90,180,270,180,270,180,90,90,90,,,,,,,,,,,2065.3839,2065.3846,,0,90,90,90,1,13,novel,,,,,,,,,,,,,,,,,,,,,,,,,,,,,,,,,,,,,,,,,,,,,,,,,
,,11,4,${e://Field/PROLIFIC_PID,F,18,2023-11-03_08h15.31.934,MouseEye_CC,2023.2.2,Win32,48.03766153,1.28,,,1536,864,49.872,4.73,"25.88, 23.54, 520.36, 16.75, 22.88, 27.48, 525.32",816.64,8.705189981,41.17554861,27.83653633,Failed,137.9380878,,,,,,,,,,,,,,,,,,,,,training,6,12,0,left,a,,,,,2065.3855,2065.7997,35.84,-10.39996338,-8.800018311,1,0,0,0.4139,fixationPoint,2065.7997,2065.9046,2065.9049,2067.8429,35.84,10240,616.96,a,1,1.8963,,2067.8431,2068.0293,,,,,,,,25,-16,126,26,217,20,116,72,175,-31,-65,-117,-167,-121,-18,126,-28,209,-208,163,-120,-128,76,-116,112,90,90,270,180,270,270,360,90,90,90,180,,,,,,,,,,,2068.0295,2068.0302,,0,91,91,91,1,3,repeated,,,,,,,,,,,,,,,,,,,,,,,,,,,,,,,,,,,,,,,,,,,,,,,,,
,,11,4,${e://Field/PROLIFIC_PID,F,18,2023-11-03_08h15.31.934,MouseEye_CC,2023.2.2,Win32,48.03766153,1.28,,,1536,864,49.872,4.73,"25.88, 23.54, 520.36, 16.75, 22.88, 27.48, 525.32",816.64,8.705189981,41.17554861,27.83653633,Failed,137.9380878,,,,,,,,,,,,,,,,,,,,,training,6,13,0,left,a,,,,,2068.0311,2068.5084,35.84,0,-2.399993896,1,0,0,0.4771,fixationPoint,2068.5085,2068.6021,2068.6022,2069.8215,35.84,10240,616.96,a,1,1.1961,,2069.8219,2070.009,,,,,,,,74,-72,-128,77,23,118,20,212,128,-126,173,-208,172,-221,25,19,-127,27,-27,127,-127,-117,-167,-116,-73,90,360,90,270,270,360,90,360,360,360,270,,,,,,,,,,,2070.0093,2070.0099,,0,92,92,92,1,9,novel,,,,,,,,,,,,,,,,,,,,,,,,,,,,,,,,,,,,,,,,,,,,,,,,,
,,11,4,${e://Field/PROLIFIC_PID,F,18,2023-11-03_08h15.31.934,MouseEye_CC,2023.2.2,Win32,48.03766153,1.28,,,1536,864,49.872,4.73,"25.88, 23.54, 520.36, 16.75, 22.88, 27.48, 525.32",816.64,8.705189981,41.17554861,27.83653633,Failed,137.9380878,,,,,,,,,,,,,,,,,,,,,training,6,14,0,left,a,,,,,2070.0108,2070.4877,35.84,-10.39996338,-11.20001221,1,0,0,0.4766,fixationPoint,2070.4878,2070.5787,2070.5788,2074.8007,35.84,10240,616.96,a,1,4.1867,,2074.8009,2074.9877,,,,,,,,39,164,76,-174,115,-160,70,-20,212,-163,-220,-19,-223,-65,-160,68,-64,27,-27,169,-32,72,175,218,80,270,270,360,270,360,270,270,360,180,180,360,,,,,,,,,,,2074.9878,2074.9885,,0,93,93,93,1,2,repeated,,,,,,,,,,,,,,,,,,,,,,,,,,,,,,,,,,,,,,,,,,,,,,,,,
,,11,4,${e://Field/PROLIFIC_PID,F,18,2023-11-03_08h15.31.934,MouseEye_CC,2023.2.2,Win32,48.03766153,1.28,,,1536,864,49.872,4.73,"25.88, 23.54, 520.36, 16.75, 22.88, 27.48, 525.32",816.64,8.705189981,41.17554861,27.83653633,Failed,137.9380878,,,,,,,,,,,,,,,,,,,,,training,6,15,0,left,a,,,,,2074.9896,2075.3832,35.84,10.40002441,8,1,0,0,0.3934,fixationPoint,2075.3833,2075.4876,2075.4881,2077.7587,35.84,10240,616.96,a,1,2.2423,,2077.759,2077.9461,,,,,,,,13,-126,173,69,127,222,168,161,170,-20,-123,-220,-68,-116,-73,119,-76,174,-70,72,-19,-30,28,-115,218,90,360,360,270,180,360,270,270,360,180,360,,,,,,,,,,,2077.9462,2077.947,,0,94,94,94,1,16,novel,,,,,,,,,,,,,,,,,,,,,,,,,,,,,,,,,,,,,,,,,,,,,,,,,
,,11,4,${e://Field/PROLIFIC_PID,F,18,2023-11-03_08h15.31.934,MouseEye_CC,2023.2.2,Win32,48.03766153,1.28,,,1536,864,49.872,4.73,"25.88, 23.54, 520.36, 16.75, 22.88, 27.48, 525.32",816.64,8.705189981,41.17554861,27.83653633,Failed,137.9380878,,,,,,,,,,,,,,,,,,,,,training,6,16,0,left,a,,,,,2077.9481,2078.4529,35.84,-10.39996338,-4,1,0,0,0.5045,fixationPoint,2078.453,2078.5576,2078.5577,2081.1131,35.84,10240,616.96,a,1,2.522,,2081.1134,2081.3006,,,,,,,,97,72,-221,169,125,175,209,26,171,-20,212,-216,125,-160,70,-176,-68,-170,-118,-169,-161,127,-127,80,-120,270,180,270,90,270,270,270,90,360,270,360,,,,,,,,,,,2081.3008,2082.5772,space,0,95,95,95,1,7,repeated,1.2483,,,,,,,,,,,,,,,,,,,,,,,,,,,,,,,,,,,,,,,,,,,,,,,,
,,11,4,${e://Field/PROLIFIC_PID,F,18,2023-11-03_08h15.31.934,MouseEye_CC,2023.2.2,Win32,48.03766153,1.28,,,1536,864,49.872,4.73,"25.88, 23.54, 520.36, 16.75, 22.88, 27.48, 525.32",816.64,8.705189981,41.17554861,27.83653633,Failed,137.9380878,,,,,,,,,,,,,,,,,,,,,training,7,1,180,right,s,,,,,2082.5782,2083.1959,35.84,-16,-12,1,0,0,0.6173,fixationPoint,2083.1959,2083.3077,2083.3079,2085.4887,35.84,10240,616.96,s,1,2.1522,,2085.4889,2085.6756,,,,,,,,25,-16,126,26,217,20,116,72,175,-31,-65,-117,-167,-121,-18,126,-28,209,-208,163,-120,-128,76,-116,112,180,180,180,90,360,360,270,360,90,180,90,,,,,,,,,,,2085.6759,2085.6792,,0,96,96,96,1,3,repeated,,,,,,,,,,,,,,,,,,,,,,,,,,,,,,,,,,,,,,,,,,,,,,,,,
,,11,4,${e://Field/PROLIFIC_PID,F,18,2023-11-03_08h15.31.934,MouseEye_CC,2023.2.2,Win32,48.03766153,1.28,,,1536,864,49.872,4.73,"25.88, 23.54, 520.36, 16.75, 22.88, 27.48, 525.32",816.64,8.705189981,41.17554861,27.83653633,Failed,137.9380878,,,,,,,,,,,,,,,,,,,,,training,7,2,0,left,a,,,,,2085.68,2086.1332,35.84,16.79998779,12.79998779,1,0,0,0.4529,fixationPoint,2086.1332,2086.2379,2086.2381,2088.0093,35.84,10240,616.96,a,1,1.7399,,2088.0096,2088.1963,,,,,,,,97,72,-221,169,125,175,209,26,171,-20,212,-216,125,-160,70,-176,-68,-170,-118,-169,-161,127,-127,80,-120,360,270,360,180,180,360,90,270,270,360,180,,,,,,,,,,,2088.1965,2088.1973,,0,97,97,97,1,7,repeated,,,,,,,,,,,,,,,,,,,,,,,,,,,,,,,,,,,,,,,,,,,,,,,,,
,,11,4,${e://Field/PROLIFIC_PID,F,18,2023-11-03_08h15.31.934,MouseEye_CC,2023.2.2,Win32,48.03766153,1.28,,,1536,864,49.872,4.73,"25.88, 23.54, 520.36, 16.75, 22.88, 27.48, 525.32",816.64,8.705189981,41.17554861,27.83653633,Failed,137.9380878,,,,,,,,,,,,,,,,,,,,,training,7,3,180,right,s,,,,,2088.1982,2088.5916,35.84,4.799987793,-6.399993896,1,0,0,0.3932,fixationPoint,2088.5916,2088.6841,2088.6842,2091.6554,35.84,10240,616.96,s,1,2.9458,,2091.6555,2091.8493,,,,,,,,39,164,76,-174,115,-160,70,-20,212,-163,-220,-19,-223,-65,-160,68,-64,27,-27,169,-32,72,175,218,80,90,180,180,360,270,360,180,360,360,90,270,,,,,,,,,,,2091.8494,2091.8499,,0,98,98,98,1,2,repeated,,,,,,,,,,,,,,,,,,,,,,,,,,,,,,,,,,,,,,,,,,,,,,,,,
,,11,4,${e://Field/PROLIFIC_PID,F,18,2023-11-03_08h15.31.934,MouseEye_CC,2023.2.2,Win32,48.03766153,1.28,,,1536,864,49.872,4.73,"25.88, 23.54, 520.36, 16.75, 22.88, 27.48, 525.32",816.64,8.705189981,41.17554861,27.83653633,Failed,137.9380878,,,,,,,,,,,,,,,,,,,,,training,7,4,180,right,s,,,,,2091.8507,2092.2007,35.84,-0.799987793,-9.600006104,1,0,0,0.3498,fixationPoint,2092.2008,2092.2884,2092.2885,2094.03,35.84,10240,616.96,s,1,1.7167,,2094.0304,2094.217,,,,,,,,88,124,-170,166,16,217,219,169,125,-117,22,-16,126,-126,173,-24,-17,-65,-160,-224,-218,19,-127,169,-32,270,90,90,270,360,90,270,270,90,180,180,,,,,,,,,,,2094.2173,2094.2179,,0,99,99,99,1,8,repeated,,,,,,,,,,,,,,,,,,,,,,,,,,,,,,,,,,,,,,,,,,,,,,,,,
,,11,4,${e://Field/PROLIFIC_PID,F,18,2023-11-03_08h15.31.934,MouseEye_CC,2023.2.2,Win32,48.03766153,1.28,,,1536,864,49.872,4.73,"25.88, 23.54, 520.36, 16.75, 22.88, 27.48, 525.32",816.64,8.705189981,41.17554861,27.83653633,Failed,137.9380878,,,,,,,,,,,,,,,,,,,,,training,7,5,0,left,a,,,,,2094.2188,2094.6336,35.84,7.200012207,4.799987793,1,0,0,0.4145,fixationPoint,2094.6337,2094.7189,2094.7191,2096.4253,35.84,10240,616.96,a,1,1.6787,,2096.4256,2096.6131,,,,,,,,62,-176,-68,166,16,66,72,72,175,-68,174,-28,64,-73,119,163,-120,16,-173,119,-76,-65,-160,-224,-218,360,270,180,360,270,270,360,360,360,180,180,,,,,,,,,,,2096.6134,2096.6142,,0,100,100,100,1,10,novel,,,,,,,,,,,,,,,,,,,,,,,,,,,,,,,,,,,,,,,,,,,,,,,,,
,,11,4,${e://Field/PROLIFIC_PID,F,18,2023-11-03_08h15.31.934,MouseEye_CC,2023.2.2,Win32,48.03766153,1.28,,,1536,864,49.872,4.73,"25.88, 23.54, 520.36, 16.75, 22.88, 27.48, 525.32",816.64,8.705189981,41.17554861,27.83653633,Failed,137.9380878,,,,,,,,,,,,,,,,,,,,,training,7,6,0,left,a,,,,,2096.6153,2097.0504,35.84,9.600036621,3.199981689,1,0,0,0.4348,fixationPoint,2097.0504,2097.14,2097.1402,2098.1344,35.84,10240,616.96,a,1,0.9625,,2098.1347,2098.3213,,,,,,,,76,19,-127,72,175,123,112,121,167,-16,126,-208,172,-24,162,-127,-212,-75,-24,-19,-176,119,-76,68,-64,90,270,180,180,270,270,270,360,270,90,90,,,,,,,,,,,2098.3215,2098.3228,,0,101,101,101,1,11,novel,,,,,,,,,,,,,,,,,,,,,,,,,,,,,,,,,,,,,,,,,,,,,,,,,
,,11,4,${e://Field/PROLIFIC_PID,F,18,2023-11-03_08h15.31.934,MouseEye_CC,2023.2.2,Win32,48.03766153,1.28,,,1536,864,49.872,4.73,"25.88, 23.54, 520.36, 16.75, 22.88, 27.48, 525.32",816.64,8.705189981,41.17554861,27.83653633,Failed,137.9380878,,,,,,,,,,,,,,,,,,,,,training,7,7,180,right,s,,,,,2098.3239,2098.8001,35.84,0.799987793,-1.600006104,1,0,0,0.4759,fixationPoint,2098.8002,2098.8923,2098.8923,2100.9517,35.84,10240,616.96,s,1,2.0398,,2100.9519,2101.1546,,,,,,,,29,169,125,-175,164,-216,125,-115,218,-24,-17,-70,-67,-31,-65,124,-170,19,-127,72,-19,121,167,20,116,270,270,270,90,270,180,270,90,90,270,180,,,,,,,,,,,2101.1548,2101.1555,,0,102,102,102,1,14,novel,,,,,,,,,,,,,,,,,,,,,,,,,,,,,,,,,,,,,,,,,,,,,,,,,
,,11,4,${e://Field/PROLIFIC_PID,F,18,2023-11-03_08h15.31.934,MouseEye_CC,2023.2.2,Win32,48.03766153,1.28,,,1536,864,49.872,4.73,"25.88, 23.54, 520.36, 16.75, 22.88, 27.48, 525.32",816.64,8.705189981,41.17554861,27.83653633,Failed,137.9380878,,,,,,,,,,,,,,,,,,,,,training,7,8,180,right,s,,,,,2101.1566,2101.5514,35.84,-9.599975586,-8.800018311,1,0,0,0.3944,fixationPoint,2101.5516,2101.6407,2101.6407,2103.3422,35.84,10240,616.96,s,1,1.6669,,2103.3424,2103.5297,,,,,,,,5,-20,212,28,21,120,66,77,23,-20,-123,-224,-218,-218,-30,20,-222,19,-127,80,-120,-115,218,-117,22,90,360,360,360,360,270,180,180,270,90,90,,,,,,,,,,,2103.5301,2103.5307,,0,103,103,103,1,4,repeated,,,,,,,,,,,,,,,,,,,,,,,,,,,,,,,,,,,,,,,,,,,,,,,,,
,,11,4,${e://Field/PROLIFIC_PID,F,18,2023-11-03_08h15.31.934,MouseEye_CC,2023.2.2,Win32,48.03766153,1.28,,,1536,864,49.872,4.73,"25.88, 23.54, 520.36, 16.75, 22.88, 27.48, 525.32",816.64,8.705189981,41.17554861,27.83653633,Failed,137.9380878,,,,,,,,,,,,,,,,,,,,,training,7,9,0,left,a,,,,,2103.5317,2104.0083,35.84,10.40002441,5.600006104,1,0,0,0.4763,fixationPoint,2104.0083,2104.1125,2104.1126,2105.4671,35.84,10240,616.96,a,1,1.3221,,2105.4674,2105.6548,,,,,,,,72,-170,-118,66,72,222,168,169,125,-30,28,-212,69,-117,22,174,-70,68,-64,124,-170,-70,-67,-218,-30,270,180,180,360,180,90,90,270,180,90,270,,,,,,,,,,,2105.655,2105.6556,,0,104,104,104,1,6,repeated,,,,,,,,,,,,,,,,,,,,,,,,,,,,,,,,,,,,,,,,,,,,,,,,,
,,11,4,${e://Field/PROLIFIC_PID,F,18,2023-11-03_08h15.31.934,MouseEye_CC,2023.2.2,Win32,48.03766153,1.28,,,1536,864,49.872,4.73,"25.88, 23.54, 520.36, 16.75, 22.88, 27.48, 525.32",816.64,8.705189981,41.17554861,27.83653633,Failed,137.9380878,,,,,,,,,,,,,,,,,,,,,training,7,10,180,right,s,,,,,2105.6567,2106.0708,35.84,-12.79998779,-6.399993896,1,0,0,0.4137,fixationPoint,2106.0708,2106.1559,2106.156,2108.4881,35.84,10240,616.96,s,1,2.29,,2108.4883,2108.6754,,,,,,,,38,120,66,-24,162,-73,119,-115,218,-19,-176,-120,-116,-224,-218,174,-70,127,-127,112,-215,169,125,80,222,90,270,180,360,90,180,90,180,90,360,180,,,,,,,,,,,2108.6755,2108.6761,,0,105,105,105,1,13,novel,,,,,,,,,,,,,,,,,,,,,,,,,,,,,,,,,,,,,,,,,,,,,,,,,
,,11,4,${e://Field/PROLIFIC_PID,F,18,2023-11-03_08h15.31.934,MouseEye_CC,2023.2.2,Win32,48.03766153,1.28,,,1536,864,49.872,4.73,"25.88, 23.54, 520.36, 16.75, 22.88, 27.48, 525.32",816.64,8.705189981,41.17554861,27.83653633,Failed,137.9380878,,,,,,,,,,,,,,,,,,,,,training,7,11,0,left,a,,,,,2108.6772,2109.0725,35.84,-17.59997559,-9.600006104,1,0,0,0.395,fixationPoint,2109.0726,2109.177,2109.1771,2111.4056,35.84,10240,616.96,a,1,2.1892,,2111.4059,2111.592,,,,,,,,63,-116,-73,21,68,212,128,66,72,-221,25,-128,76,-208,172,19,-127,127,-127,163,-120,-121,-18,-72,-128,180,360,360,180,180,180,270,270,270,360,270,,,,,,,,,,,2111.5923,2111.593,,0,106,106,106,1,5,repeated,,,,,,,,,,,,,,,,,,,,,,,,,,,,,,,,,,,,,,,,,,,,,,,,,
,,11,4,${e://Field/PROLIFIC_PID,F,18,2023-11-03_08h15.31.934,MouseEye_CC,2023.2.2,Win32,48.03766153,1.28,,,1536,864,49.872,4.73,"25.88, 23.54, 520.36, 16.75, 22.88, 27.48, 525.32",816.64,8.705189981,41.17554861,27.83653633,Failed,137.9380878,,,,,,,,,,,,,,,,,,,,,training,7,12,0,left,a,,,,,2111.594,2112.0917,35.84,-6.399963379,-8,1,0,0,0.4974,fixationPoint,2112.0918,2112.1836,2112.1837,2113.8216,35.84,10240,616.96,a,1,1.6059,,2113.8219,2114.0086,,,,,,,,13,-126,173,164,76,20,116,121,167,-219,-120,-220,-68,-120,-116,174,-70,80,-120,168,-220,-128,76,-24,162,90,270,180,360,180,90,180,180,90,270,180,,,,,,,,,,,2114.0088,2114.0096,,0,107,107,107,1,16,novel,,,,,,,,,,,,,,,,,,,,,,,,,,,,,,,,,,,,,,,,,,,,,,,,,
,,11,4,${e://Field/PROLIFIC_PID,F,18,2023-11-03_08h15.31.934,MouseEye_CC,2023.2.2,Win32,48.03766153,1.28,,,1536,864,49.872,4.73,"25.88, 23.54, 520.36, 16.75, 22.88, 27.48, 525.32",816.64,8.705189981,41.17554861,27.83653633,Failed,137.9380878,,,,,,,,,,,,,,,,,,,,,training,7,13,180,right,s,,,,,2114.0106,2114.4666,35.84,0.799987793,8.799987793,1,0,0,0.4558,fixationPoint,2114.4667,2114.5713,2114.5717,2115.6764,35.84,10240,616.96,s,1,1.0714,,2115.6767,2115.8631,,,,,,,,4,-80,213,164,76,222,168,118,20,-72,-128,-209,-164,-75,-24,79,-175,72,-221,112,-215,-73,119,-210,215,180,360,270,360,270,90,180,270,90,360,180,,,,,,,,,,,2115.8633,2115.864,,0,108,108,108,1,15,novel,,,,,,,,,,,,,,,,,,,,,,,,,,,,,,,,,,,,,,,,,,,,,,,,,
,,11,4,${e://Field/PROLIFIC_PID,F,18,2023-11-03_08h15.31.934,MouseEye_CC,2023.2.2,Win32,48.03766153,1.28,,,1536,864,49.872,4.73,"25.88, 23.54, 520.36, 16.75, 22.88, 27.48, 525.32",816.64,8.705189981,41.17554861,27.83653633,Failed,137.9380878,,,,,,,,,,,,,,,,,,,,,training,7,14,0,left,a,,,,,2115.865,2116.3282,35.84,8,11.19998169,1,0,0,0.463,fixationPoint,2116.3282,2116.4373,2116.4375,2118.1756,35.84,10240,616.96,a,1,1.7179,,2118.1759,2118.3631,,,,,,,,96,20,-222,166,16,26,171,114,216,-80,213,-221,25,-117,22,-224,-218,-167,-32,-75,-24,72,-19,79,-175,180,270,90,90,90,180,90,270,360,360,180,,,,,,,,,,,2118.3633,2118.364,,0,109,109,109,1,12,novel,,,,,,,,,,,,,,,,,,,,,,,,,,,,,,,,,,,,,,,,,,,,,,,,,
,,11,4,${e://Field/PROLIFIC_PID,F,18,2023-11-03_08h15.31.934,MouseEye_CC,2023.2.2,Win32,48.03766153,1.28,,,1536,864,49.872,4.73,"25.88, 23.54, 520.36, 16.75, 22.88, 27.48, 525.32",816.64,8.705189981,41.17554861,27.83653633,Failed,137.9380878,,,,,,,,,,,,,,,,,,,,,training,7,15,0,left,a,,,,,2118.365,2118.7166,35.84,0,-5.600006104,1,0,0,0.3513,fixationPoint,2118.7166,2118.8227,2118.8229,2120.3225,35.84,10240,616.96,a,1,1.4608,,2120.3227,2120.5093,,,,,,,,74,-72,-128,69,127,169,125,80,222,-172,214,-73,119,-160,70,222,-126,19,-127,112,-215,-117,-167,-31,-65,270,90,270,360,360,360,180,180,90,90,360,,,,,,,,,,,2120.5096,2120.5103,,0,110,110,110,1,9,novel,,,,,,,,,,,,,,,,,,,,,,,,,,,,,,,,,,,,,,,,,,,,,,,,,
,,11,4,${e://Field/PROLIFIC_PID,F,18,2023-11-03_08h15.31.934,MouseEye_CC,2023.2.2,Win32,48.03766153,1.28,,,1536,864,49.872,4.73,"25.88, 23.54, 520.36, 16.75, 22.88, 27.48, 525.32",816.64,8.705189981,41.17554861,27.83653633,Failed,137.9380878,,,,,,,,,,,,,,,,,,,,,training,7,16,180,right,s,,,,,2120.5111,2120.8838,35.84,-12.79998779,-14.3999939,1,0,0,0.3724,fixationPoint,2120.8838,2120.9746,2120.9748,2123.4311,35.84,10240,616.96,s,1,2.4319,,2123.4313,2123.634,,,,,,,,27,69,127,-160,70,-115,218,-28,64,-224,-218,-169,-161,-219,-120,124,-170,164,-173,174,-70,21,68,161,170,360,180,270,270,180,180,90,180,90,90,270,,,,,,,,,,,2123.6341,2124.7803,space,0,111,111,111,1,1,repeated,1.1162,,,,,,,,,,,,,,,,,,,,,,,,,,,,,,,,,,,,,,,,,,,,,,,,
,,11,4,${e://Field/PROLIFIC_PID,F,18,2023-11-03_08h15.31.934,MouseEye_CC,2023.2.2,Win32,48.03766153,1.28,,,1536,864,49.872,4.73,"25.88, 23.54, 520.36, 16.75, 22.88, 27.48, 525.32",816.64,8.705189981,41.17554861,27.83653633,Failed,137.9380878,,,,,,,,,,,,,,,,,,,,,training,8,1,180,right,s,,,,,2124.7813,2125.4462,35.84,3.200012207,-3.200012207,1,0,0,0.6647,fixationPoint,2125.4463,2125.5313,2125.5316,2126.5515,35.84,10240,616.96,s,1,1.0013,,2126.5517,2126.7381,,,,,,,,38,120,66,-115,218,-20,212,-176,26,-75,-24,-121,-18,-120,-116,80,-120,209,-208,164,-173,118,20,20,116,90,270,180,180,270,90,360,180,270,90,90,,,,,,,,,,,2126.7382,2126.7409,,0,112,112,112,1,13,novel,,,,,,,,,,,,,,,,,,,,,,,,,,,,,,,,,,,,,,,,,,,,,,,,,
,,11,4,${e://Field/PROLIFIC_PID,F,18,2023-11-03_08h15.31.934,MouseEye_CC,2023.2.2,Win32,48.03766153,1.28,,,1536,864,49.872,4.73,"25.88, 23.54, 520.36, 16.75, 22.88, 27.48, 525.32",816.64,8.705189981,41.17554861,27.83653633,Failed,137.9380878,,,,,,,,,,,,,,,,,,,,,training,8,2,0,left,a,,,,,2126.7417,2127.3006,35.84,8.799987793,-5.600006104,1,0,0,0.5587,fixationPoint,2127.3007,2127.4048,2127.4049,2128.322,35.84,10240,616.96,a,1,0.8997,,2128.3221,2128.5095,,,,,,,,76,19,-127,21,68,175,209,28,21,-30,28,-160,70,-117,22,-163,-220,-19,-176,-75,-24,119,-76,209,-208,270,90,270,90,270,270,180,360,180,180,90,,,,,,,,,,,2128.5096,2128.5099,,0,113,113,113,1,11,novel,,,,,,,,,,,,,,,,,,,,,,,,,,,,,,,,,,,,,,,,,,,,,,,,,
,,11,4,${e://Field/PROLIFIC_PID,F,18,2023-11-03_08h15.31.934,MouseEye_CC,2023.2.2,Win32,48.03766153,1.28,,,1536,864,49.872,4.73,"25.88, 23.54, 520.36, 16.75, 22.88, 27.48, 525.32",816.64,8.705189981,41.17554861,27.83653633,Failed,137.9380878,,,,,,,,,,,,,,,,,,,,,training,8,3,0,left,a,,,,,2128.5108,2128.9881,35.84,15.20001221,0,1,0,0,0.4773,fixationPoint,2128.9882,2129.0925,2129.0926,2130.8011,35.84,10240,616.96,s,0,1.6915,,2130.8012,2134.8007,,,,,,,,5,-20,212,28,21,120,66,77,23,-20,-123,-224,-218,-218,-30,20,-222,19,-127,80,-120,-115,218,-117,22,270,90,360,180,360,270,270,90,90,270,90,,,,,,,,,,,2134.8008,2134.8287,,0,114,114,114,1,4,repeated,,,,,,,,,,,,,,,,,,,,,,,,,,,,,,,,,,,,,,,,,,,,,,,,,
