InstrStartPage.started,InstrStartPage.stopped,participant,designid,prolificid,Gender,Age,date,expName,psychopyVersion,OS,frameRate,ratio_monitor2CRT,VirtualChinrest.started,VirtualChinrest.stopped,xRes,yRes,viewingdistance_cm,pixeldensity_px2mm,BallPos,squarePos,mm2degree,px2degree,CRT_px2degree,PassVirtualChinrest,foveaRadius_inPixel,InstrRedo.started,InstrRedo.stopped,VirtualChinrest_Redo.started,VirtualChinrest_Redo.stopped,Instruction1.started,Instruction1.stopped,keyPractice.started,keyPractice.stopped,key_keyprac.keys,key_keyprac.corr,key_keyprac.rt,key_keyprac.duration,keyPracFeedback.started,keyPracFeedback.stopped,keyPracLoop.thisRepN,keyPracLoop.thisTrialN,keyPracLoop.thisN,keyPracLoop.thisIndex,keyPracLoop.ran,phase,block,trial,targOrientdeg,targOrient,corrAnswer,Instruction2.started,Instruction2.stopped,Instruction3.started,Instruction3.stopped,fixation.started,fixation.stopped,fixationSize,mouseintial.x,mouseintial.y,mouseintial.leftButton,mouseintial.midButton,mouseintial.rightButton,mouseintial.time,mouseintial.clicked_name,greenFixation.started,greenFixation.stopped,trial.started,trial.stopped,letterSize,apertureSize,searchsize,key_respMain.keys,key_respMain.corr,key_respMain.rt,key_respMain.duration,trialFeedback.started,trialFeedback.stopped,trialsPractice.thisRepN,trialsPractice.thisTrialN,trialsPractice.thisN,trialsPractice.thisIndex,trialsPractice.ran,targetQuad,Tcondition,targcell,tlocx,tlocy,d1x,d1y,d2x,d2y,d3x,d3y,d4x,d4y,d5x,d5y,d6x,d6y,d7x,d7y,d8x,d8y,d9x,d9y,d10x,d10y,d11x,d11y,d1Orient,d2Orient,d3Orient,d4Orient,d5Orient,d6Orient,d7Orient,d8Orient,d9Orient,d10Orient,d11Orient,CheckInstr.started,CheckInstr.stopped,key_checkInstr.keys,key_checkInstr.corr,key_checkInstr.rt,key_checkInstr.duration,CheckInstr_FB.started,CheckInstr_FB.stopped,Instruction_MainExp.started,Instruction_MainExp.stopped,TakeABreak.started,TakeABreak.stopped,key_respBreak.keys,trials.thisRepN,trials.thisTrialN,trials.thisN,trials.thisIndex,trials.ran,configurationNumber,CCCondition,key_respBreak.rt,key_respBreak.duration,displayTestingPhase.started,displayTestingPhase.stopped,key_respTesting.keys,key_respTesting.corr,key_respTesting.rt,key_respTesting.duration,TakeABreak2.started,TakeABreak2.stopped,key_RespBreak.keys,Testingtrials.thisRepN,Testingtrials.thisTrialN,Testingtrials.thisN,Testingtrials.thisIndex,Testingtrials.ran,key_RespBreak.rt,key_RespBreak.duration,RecogQuestion.started,RecogQuestion.stopped,key_AnswerQues.keys,key_AnswerQues.rt,key_AnswerQues.duration,Disclose.started,Disclose.stopped,InstrRT.started,InstrRT.stopped,fixation_RT.started,fixation_RT.stopped,mouseInitial.x,mouseInitial.y,mouseInitial.leftButton,mouseInitial.midButton,mouseInitial.rightButton,mouseInitial.time,mouseInitial.clicked_name,displayRT.started,displayRT.stopped,key_respRT.keys,key_respRT.corr,key_respRT.rt,key_respRT.duration,RTtrials.thisRepN,RTtrials.thisTrialN,RTtrials.thisN,RTtrials.thisIndex,RTtrials.ran,EndOfExperiment.started,EndOfExperiment.stopped
0.0002,8.8766,12,6,${e://Field/PROLIFIC_PID,F,18,2023-11-03_04h34.29.833,MouseEye_CC,2023.2.2,Win32,60.07449237,1,,,,,,,,,,,,,,,,,,,,,,,,,,,,,,,,,,,,,,,,,,,,,,,,,,,,,,,,,,,,,,,,,,,,,,,,,,,,,,,,,,,,,,,,,,,,,,,,,,,,,,,,,,,,,,,,,,,,,,,,,,,,,,,,,,,,,,,,,,,,,,,,,,,,,,,,,,,,,,,,,,,,,,,,,,,,,,,,,
,,12,6,${e://Field/PROLIFIC_PID,F,18,2023-11-03_04h34.29.833,MouseEye_CC,2023.2.2,Win32,60.07449237,1.005619237,8.8767,101.1714,1920,1080,44.922000000000004,3.57,"219.51, 229.44, 224.8, 223.31, 215.43, 220.12, 234.9",608.46,7.841164267,27.99295643,27.83653633,Passed,93.77640405,,,,,,,,,,,,,,,,,,,,,,,,,,,,,,,,,,,,,,,,,,,,,,,,,,,,,,,,,,,,,,,,,,,,,,,,,,,,,,,,,,,,,,,,,,,,,,,,,,,,,,,,,,,,,,,,,,,,,,,,,,,,,,,,,,,,,,,,,,,,,,,,,,,,,,,,,,,,,,,,,,,,
,,12,6,${e://Field/PROLIFIC_PID,F,18,2023-11-03_04h34.29.833,MouseEye_CC,2023.2.2,Win32,60.07449237,1.005619237,,,1920,1080,44.922000000000004,3.57,"219.51, 229.44, 224.8, 223.31, 215.43, 220.12, 234.9",608.46,7.841164267,27.99295643,27.83653633,Passed,93.77640405,101.1716,101.1732,,,,,,,,,,,,,,,,,,,,,,,,,,,,,,,,,,,,,,,,,,,,,,,,,,,,,,,,,,,,,,,,,,,,,,,,,,,,,,,,,,,,,,,,,,,,,,,,,,,,,,,,,,,,,,,,,,,,,,,,,,,,,,,,,,,,,,,,,,,,,,,,,,,,,,,,,,,,,,,,,,
,,12,6,${e://Field/PROLIFIC_PID,F,18,2023-11-03_04h34.29.833,MouseEye_CC,2023.2.2,Win32,60.07449237,1.081801891,,,1920,1080,45.519999999999996,3.79,"219.51, 229.44, 224.8, 223.31, 215.43, 220.12, 234.9",608.46,7.945545555,30.11361765,27.83653633,Passed,100.8806191,,,101.1732,160.5541,,,,,,,,,,,,,,,,,,,,,,,,,,,,,,,,,,,,,,,,,,,,,,,,,,,,,,,,,,,,,,,,,,,,,,,,,,,,,,,,,,,,,,,,,,,,,,,,,,,,,,,,,,,,,,,,,,,,,,,,,,,,,,,,,,,,,,,,,,,,,,,,,,,,,,,,,,,,,,,,
,,12,6,${e://Field/PROLIFIC_PID,F,18,2023-11-03_04h34.29.833,MouseEye_CC,2023.2.2,Win32,60.07449237,1.081801891,,,1920,1080,45.519999999999996,3.79,"219.51, 229.44, 224.8, 223.31, 215.43, 220.12, 234.9",608.46,7.945545555,30.11361765,27.83653633,Passed,100.8806191,,,,,160.5548,168.8708,,,,,,,,,,,,,,,,,,,,,,,,,,,,,,,,,,,,,,,,,,,,,,,,,,,,,,,,,,,,,,,,,,,,,,,,,,,,,,,,,,,,,,,,,,,,,,,,,,,,,,,,,,,,,,,,,,,,,,,,,,,,,,,,,,,,,,,,,,,,,,,,,,,,,,,,,,,,,,
,,12,6,${e://Field/PROLIFIC_PID,F,18,2023-11-03_04h34.29.833,MouseEye_CC,2023.2.2,Win32,60.07449237,1.081801891,,,1920,1080,45.519999999999996,3.79,"219.51, 229.44, 224.8, 223.31, 215.43, 220.12, 234.9",608.46,7.945545555,30.11361765,27.83653633,Passed,100.8806191,,,,,,,168.8811,170.3539,a,1,0.947,,170.354,170.8538,0,0,0,0,1,practice,1,1,0,left,a,,,,,,,,,,,,,,,,,,,,,,,,,,,,,,,,,,,,,,,,,,,,,,,,,,,,,,,,,,,,,,,,,,,,,,,,,,,,,,,,,,,,,,,,,,,,,,,,,,,,,,,,,,,,,,,,,,,,,,,,,,,,,,,,,,,,,,,,,,,
,,12,6,${e://Field/PROLIFIC_PID,F,18,2023-11-03_04h34.29.833,MouseEye_CC,2023.2.2,Win32,60.07449237,1.081801891,,,1920,1080,45.519999999999996,3.79,"219.51, 229.44, 224.8, 223.31, 215.43, 220.12, 234.9",608.46,7.945545555,30.11361765,27.83653633,Passed,100.8806191,,,,,,,170.8541,171.8203,a,1,0.4338,,171.8204,172.3203,0,1,1,1,1,practice,1,2,0,left,a,,,,,,,,,,,,,,,,,,,,,,,,,,,,,,,,,,,,,,,,,,,,,,,,,,,,,,,,,,,,,,,,,,,,,,,,,,,,,,,,,,,,,,,,,,,,,,,,,,,,,,,,,,,,,,,,,,,,,,,,,,,,,,,,,,,,,,,,,,,
,,12,6,${e://Field/PROLIFIC_PID,F,18,2023-11-03_04h34.29.833,MouseEye_CC,2023.2.2,Win32,60.07449237,1.081801891,,,1920,1080,45.519999999999996,3.79,"219.51, 229.44, 224.8, 223.31, 215.43, 220.12, 234.9",608.46,7.945545555,30.11361765,27.83653633,Passed,100.8806191,,,,,,,172.3207,173.2205,a,1,0.3725,,173.2205,173.7202,0,2,2,2,1,practice,1,3,0,left,a,,,,,,,,,,,,,,,,,,,,,,,,,,,,,,,,,,,,,,,,,,,,,,,,,,,,,,,,,,,,,,,,,,,,,,,,,,,,,,,,,,,,,,,,,,,,,,,,,,,,,,,,,,,,,,,,,,,,,,,,,,,,,,,,,,,,,,,,,,,
,,12,6,${e://Field/PROLIFIC_PID,F,18,2023-11-03_04h34.29.833,MouseEye_CC,2023.2.2,Win32,60.07449237,1.081801891,,,1920,1080,45.519999999999996,3.79,"219.51, 229.44, 224.8, 223.31, 215.43, 220.12, 234.9",608.46,7.945545555,30.11361765,27.83653633,Passed,100.8806191,,,,,,,173.7204,176.1702,s,1,1.917,,176.1702,176.6702,0,3,3,3,1,practice,1,4,180,right,s,,,,,,,,,,,,,,,,,,,,,,,,,,,,,,,,,,,,,,,,,,,,,,,,,,,,,,,,,,,,,,,,,,,,,,,,,,,,,,,,,,,,,,,,,,,,,,,,,,,,,,,,,,,,,,,,,,,,,,,,,,,,,,,,,,,,,,,,,,,
,,12,6,${e://Field/PROLIFIC_PID,F,18,2023-11-03_04h34.29.833,MouseEye_CC,2023.2.2,Win32,60.07449237,1.081801891,,,1920,1080,45.519999999999996,3.79,"219.51, 229.44, 224.8, 223.31, 215.43, 220.12, 234.9",608.46,7.945545555,30.11361765,27.83653633,Passed,100.8806191,,,,,,,176.6705,177.6702,s,1,0.4658,,177.6703,178.1702,0,4,4,4,1,practice,1,5,180,right,s,,,,,,,,,,,,,,,,,,,,,,,,,,,,,,,,,,,,,,,,,,,,,,,,,,,,,,,,,,,,,,,,,,,,,,,,,,,,,,,,,,,,,,,,,,,,,,,,,,,,,,,,,,,,,,,,,,,,,,,,,,,,,,,,,,,,,,,,,,,
,,12,6,${e://Field/PROLIFIC_PID,F,18,2023-11-03_04h34.29.833,MouseEye_CC,2023.2.2,Win32,60.07449237,1.081801891,,,1920,1080,45.519999999999996,3.79,"219.51, 229.44, 224.8, 223.31, 215.43, 220.12, 234.9",608.46,7.945545555,30.11361765,27.83653633,Passed,100.8806191,,,,,,,178.1705,179.1202,a,1,0.4253,,179.1202,179.6202,0,5,5,5,1,practice,1,6,0,left,a,,,,,,,,,,,,,,,,,,,,,,,,,,,,,,,,,,,,,,,,,,,,,,,,,,,,,,,,,,,,,,,,,,,,,,,,,,,,,,,,,,,,,,,,,,,,,,,,,,,,,,,,,,,,,,,,,,,,,,,,,,,,,,,,,,,,,,,,,,,
,,12,6,${e://Field/PROLIFIC_PID,F,18,2023-11-03_04h34.29.833,MouseEye_CC,2023.2.2,Win32,60.07449237,1.081801891,,,1920,1080,45.519999999999996,3.79,"219.51, 229.44, 224.8, 223.31, 215.43, 220.12, 234.9",608.46,7.945545555,30.11361765,27.83653633,Passed,100.8806191,,,,,,,,,,,,,,,,,,,,,,,,,,179.621,182.8704,,,,,,,,,,,,,,,,,,,,,,,,,,,,,,,,,,,,,,,,,,,,,,,,,,,,,,,,,,,,,,,,,,,,,,,,,,,,,,,,,,,,,,,,,,,,,,,,,,,,,,,,,,,,,,,,,,,,,,,,,,,,,,,,,,,,,,,,,
,,12,6,${e://Field/PROLIFIC_PID,F,18,2023-11-03_04h34.29.833,MouseEye_CC,2023.2.2,Win32,60.07449237,1.081801891,,,1920,1080,45.519999999999996,3.79,"219.51, 229.44, 224.8, 223.31, 215.43, 220.12, 234.9",608.46,7.945545555,30.11361765,27.83653633,Passed,100.8806191,,,,,,,,,,,,,,,,,,,,,,,,,,,,182.8705,189.7205,,,,,,,,,,,,,,,,,,,,,,,,,,,,,,,,,,,,,,,,,,,,,,,,,,,,,,,,,,,,,,,,,,,,,,,,,,,,,,,,,,,,,,,,,,,,,,,,,,,,,,,,,,,,,,,,,,,,,,,,,,,,,,,,,,,,,,,
,,12,6,${e://Field/PROLIFIC_PID,F,18,2023-11-03_04h34.29.833,MouseEye_CC,2023.2.2,Win32,60.07449237,1.081801891,,,1920,1080,45.519999999999996,3.79,"219.51, 229.44, 224.8, 223.31, 215.43, 220.12, 234.9",608.46,7.945545555,30.11361765,27.83653633,Passed,100.8806191,,,,,,,,,,,,,,,,,,,,practice,0,1,0,left,a,,,,,189.7374,196.1373,30.29045296,6,-3,1,0,0,6.3997,fixationPoint,196.1374,196.2442,196.2445,200.6205,30.29045296,8654.415132,521.4285117,a,1,4.3481,,200.6206,200.82,0,0,0,0,1,4,sparse,90,217,-164,68,123,222,26,214,216,-218,159,-120,223,-110,82,-115,-130,-224,-120,-68,-219,79,-175,19,-128,90,270,360,90,270,270,180,90,90,90,270,,,,,,,,,,,,,,,,,,,,,,,,,,,,,,,,,,,,,,,,,,,,,,,,,,,,,,,,,,,,,,,,,,,,,
,,12,6,${e://Field/PROLIFIC_PID,F,18,2023-11-03_04h34.29.833,MouseEye_CC,2023.2.2,Win32,60.07449237,1.081801891,,,1920,1080,45.519999999999996,3.79,"219.51, 229.44, 224.8, 223.31, 215.43, 220.12, 234.9",608.46,7.945545555,30.11361765,27.83653633,Passed,100.8806191,,,,,,,,,,,,,,,,,,,,practice,0,2,0,left,a,,,,,200.8203,203.2868,30.29045296,0,7,1,0,0,2.4664,fixationPoint,203.2869,203.3868,203.3868,209.661,30.29045296,8654.415132,521.4285117,a,1,6.2504,,209.6616,209.8533,0,1,1,1,1,1,rich,39,169,66,-126,125,-169,169,-130,19,-169,-116,-125,-167,-224,-216,218,-129,171,-218,18,-208,166,26,17,170,180,90,360,270,90,90,90,270,180,180,270,,,,,,,,,,,,,,,,,,,,,,,,,,,,,,,,,,,,,,,,,,,,,,,,,,,,,,,,,,,,,,,,,,,,,
,,12,6,${e://Field/PROLIFIC_PID,F,18,2023-11-03_04h34.29.833,MouseEye_CC,2023.2.2,Win32,60.07449237,1.081801891,,,1920,1080,45.519999999999996,3.79,"219.51, 229.44, 224.8, 223.31, 215.43, 220.12, 234.9",608.46,7.945545555,30.11361765,27.83653633,Passed,100.8806191,,,,,,,,,,,,,,,,,,,,practice,0,3,0,left,a,,,,,209.8535,210.5942,30.29045296,2,-1,1,0,0,0.7407,fixationPoint,210.5943,210.6868,210.6868,217.5699,30.29045296,8654.415132,521.4285117,a,1,6.8486,,217.5699,217.7608,0,2,2,2,1,2,sparse,22,-162,126,222,26,17,170,126,172,-25,-117,-175,-206,-224,-216,116,-19,130,-174,217,-164,-218,159,-21,162,90,90,180,360,360,270,360,360,360,360,180,,,,,,,,,,,,,,,,,,,,,,,,,,,,,,,,,,,,,,,,,,,,,,,,,,,,,,,,,,,,,,,,,,,,,
,,12,6,${e://Field/PROLIFIC_PID,F,18,2023-11-03_04h34.29.833,MouseEye_CC,2023.2.2,Win32,60.07449237,1.081801891,,,1920,1080,45.519999999999996,3.79,"219.51, 229.44, 224.8, 223.31, 215.43, 220.12, 234.9",608.46,7.945545555,30.11361765,27.83653633,Passed,100.8806191,,,,,,,,,,,,,,,,,,,,practice,0,4,180,right,s,,,,,217.761,218.2865,30.29045296,-1,1,1,0,0,0.5254,fixationPoint,218.2865,218.3864,218.3865,220.7699,30.29045296,8654.415132,521.4285117,s,1,2.3562,,220.7699,220.958,0,3,3,3,1,4,sparse,76,19,-128,159,121,214,216,219,165,-218,159,-162,126,-219,119,-169,-116,-111,-31,-175,-206,18,-208,81,-114,90,270,180,180,270,180,360,360,360,270,360,,,,,,,,,,,,,,,,,,,,,,,,,,,,,,,,,,,,,,,,,,,,,,,,,,,,,,,,,,,,,,,,,,,,,
,,12,6,${e://Field/PROLIFIC_PID,F,18,2023-11-03_04h34.29.833,MouseEye_CC,2023.2.2,Win32,60.07449237,1.081801891,,,1920,1080,45.519999999999996,3.79,"219.51, 229.44, 224.8, 223.31, 215.43, 220.12, 234.9",608.46,7.945545555,30.11361765,27.83653633,Passed,100.8806191,,,,,,,,,,,,,,,,,,,,practice,0,5,180,right,s,,,,,220.9582,221.5609,30.29045296,8,2,1,0,0,0.6025,fixationPoint,221.5609,221.6533,221.6533,223.4079,30.29045296,8654.415132,521.4285117,s,1,1.7306,,223.408,223.603,0,4,4,4,1,3,sparse,85,-19,-173,219,165,68,123,214,216,-160,68,-64,120,-226,34,162,-21,224,-216,167,-163,-167,-74,-224,-216,360,360,360,90,180,270,90,360,270,270,360,,,,,,,,,,,,,,,,,,,,,,,,,,,,,,,,,,,,,,,,,,,,,,,,,,,,,,,,,,,,,,,,,,,,,
,,12,6,${e://Field/PROLIFIC_PID,F,18,2023-11-03_04h34.29.833,MouseEye_CC,2023.2.2,Win32,60.07449237,1.081801891,,,1920,1080,45.519999999999996,3.79,"219.51, 229.44, 224.8, 223.31, 215.43, 220.12, 234.9",608.46,7.945545555,30.11361765,27.83653633,Passed,100.8806191,,,,,,,,,,,,,,,,,,,,practice,0,6,180,right,s,,,,,223.6033,224.1697,30.29045296,-3,-6,1,0,0,0.5662,fixationPoint,224.1697,224.2771,224.2771,227.1941,30.29045296,8654.415132,521.4285117,s,1,2.9,,227.1942,227.3914,0,5,5,5,1,3,sparse,95,-21,-224,126,172,219,165,166,26,-166,207,-223,206,-219,119,169,-75,18,-208,224,-216,-72,-121,-115,-130,180,180,360,180,360,180,270,180,90,180,360,,,,,,,,,,,,,,,,,,,,,,,,,,,,,,,,,,,,,,,,,,,,,,,,,,,,,,,,,,,,,,,,,,,,,
,,12,6,${e://Field/PROLIFIC_PID,F,18,2023-11-03_04h34.29.833,MouseEye_CC,2023.2.2,Win32,60.07449237,1.081801891,,,1920,1080,45.519999999999996,3.79,"219.51, 229.44, 224.8, 223.31, 215.43, 220.12, 234.9",608.46,7.945545555,30.11361765,27.83653633,Passed,100.8806191,,,,,,,,,,,,,,,,,,,,practice,0,7,0,left,a,,,,,227.3917,227.8583,30.29045296,-5,-5,1,0,0,0.4665,fixationPoint,227.8584,227.9577,227.9577,231.5724,30.29045296,8654.415132,521.4285117,a,1,3.5955,,231.5724,231.7607,0,6,6,6,1,1,rich,7,62,223,-166,207,-226,34,-162,126,-169,-116,-168,-160,-161,-27,15,-162,162,-21,79,-175,219,165,219,129,180,180,360,180,270,360,180,360,270,180,360,,,,,,,,,,,,,,,,,,,,,,,,,,,,,,,,,,,,,,,,,,,,,,,,,,,,,,,,,,,,,,,,,,,,,
,,12,6,${e://Field/PROLIFIC_PID,F,18,2023-11-03_04h34.29.833,MouseEye_CC,2023.2.2,Win32,60.07449237,1.081801891,,,1920,1080,45.519999999999996,3.79,"219.51, 229.44, 224.8, 223.31, 215.43, 220.12, 234.9",608.46,7.945545555,30.11361765,27.83653633,Passed,100.8806191,,,,,,,,,,,,,,,,,,,,practice,0,8,180,right,s,,,,,231.7609,232.4364,30.29045296,0,4,1,0,0,0.6752,fixationPoint,232.4364,232.5402,232.5402,236.3697,30.29045296,8654.415132,521.4285117,s,1,3.8059,,236.3697,236.5747,0,7,7,7,1,2,sparse,24,-64,120,18,215,126,172,33,121,-206,-170,-64,-162,-218,-78,130,-174,211,-74,168,-130,-164,32,-21,162,90,180,270,360,180,90,180,180,180,360,270,,,,,,,,,,,,,,,,,,,,,,,,,,,,,,,,,,,,,,,,,,,,,,,,,,,,,,,,,,,,,,,,,,,,,
,,12,6,${e://Field/PROLIFIC_PID,F,18,2023-11-03_04h34.29.833,MouseEye_CC,2023.2.2,Win32,60.07449237,1.081801891,,,1920,1080,45.519999999999996,3.79,"219.51, 229.44, 224.8, 223.31, 215.43, 220.12, 234.9",608.46,7.945545555,30.11361765,27.83653633,Passed,100.8806191,,,,,,,,,,,,,,,,,,,,practice,0,9,180,right,s,,,,,236.5749,237.0273,30.29045296,3,1,1,0,0,0.4523,fixationPoint,237.0273,237.1196,237.1196,239.6863,30.29045296,8654.415132,521.4285117,s,1,2.5378,,239.6864,239.8903,0,8,8,8,1,3,sparse,85,-19,-173,127,30,62,223,217,67,-110,82,-21,162,-80,218,167,-163,126,-79,130,-174,-125,-167,-68,-219,360,360,360,180,360,360,180,270,90,360,180,,,,,,,,,,,,,,,,,,,,,,,,,,,,,,,,,,,,,,,,,,,,,,,,,,,,,,,,,,,,,,,,,,,,,
,,12,6,${e://Field/PROLIFIC_PID,F,18,2023-11-03_04h34.29.833,MouseEye_CC,2023.2.2,Win32,60.07449237,1.081801891,,,1920,1080,45.519999999999996,3.79,"219.51, 229.44, 224.8, 223.31, 215.43, 220.12, 234.9",608.46,7.945545555,30.11361765,27.83653633,Passed,100.8806191,,,,,,,,,,,,,,,,,,,,practice,0,10,180,right,s,,,,,239.8907,240.403,30.29045296,-11,-7,1,0,0,0.5122,fixationPoint,240.403,240.5028,240.5029,243.6529,30.29045296,8654.415132,521.4285117,s,1,3.1162,,243.653,243.8438,0,9,9,9,1,1,rich,9,160,209,-166,207,-226,34,-120,223,-224,-120,-118,-217,-218,-78,112,-209,126,-113,169,-75,178,160,110,129,180,90,90,270,360,270,360,180,360,180,360,,,,,,,,,,,,,,,,,,,,,,,,,,,,,,,,,,,,,,,,,,,,,,,,,,,,,,,,,,,,,,,,,,,,,
,,12,6,${e://Field/PROLIFIC_PID,F,18,2023-11-03_04h34.29.833,MouseEye_CC,2023.2.2,Win32,60.07449237,1.081801891,,,1920,1080,45.519999999999996,3.79,"219.51, 229.44, 224.8, 223.31, 215.43, 220.12, 234.9",608.46,7.945545555,30.11361765,27.83653633,Passed,100.8806191,,,,,,,,,,,,,,,,,,,,practice,0,11,180,right,s,,,,,243.8441,244.377,30.29045296,5,-1,1,0,0,0.5329,fixationPoint,244.3771,244.4694,244.4695,247.1198,30.29045296,8654.415132,521.4285117,s,1,2.6161,,247.1199,247.3107,0,10,10,10,1,4,sparse,80,218,-129,62,223,159,121,110,129,-218,159,-223,206,-75,173,-169,-116,-118,-217,-125,-167,217,-164,169,-75,360,270,360,180,360,180,180,270,360,180,90,,,,,,,,,,,,,,,,,,,,,,,,,,,,,,,,,,,,,,,,,,,,,,,,,,,,,,,,,,,,,,,,,,,,,
,,12,6,${e://Field/PROLIFIC_PID,F,18,2023-11-03_04h34.29.833,MouseEye_CC,2023.2.2,Win32,60.07449237,1.081801891,,,1920,1080,45.519999999999996,3.79,"219.51, 229.44, 224.8, 223.31, 215.43, 220.12, 234.9",608.46,7.945545555,30.11361765,27.83653633,Passed,100.8806191,,,,,,,,,,,,,,,,,,,,practice,0,12,0,left,a,,,,,247.3109,247.7028,30.29045296,2,1,1,0,0,0.3919,fixationPoint,247.7028,247.8029,247.8029,251.7862,30.29045296,8654.415132,521.4285117,a,1,3.9519,,251.7863,251.9942,0,11,11,11,1,3,sparse,75,-25,-117,110,129,125,63,214,216,-164,32,-27,117,-126,125,171,-218,126,-113,167,-163,-21,-224,-212,-21,270,180,180,360,180,270,360,270,360,180,270,,,,,,,,,,,,,,,,,,,,,,,,,,,,,,,,,,,,,,,,,,,,,,,,,,,,,,,,,,,,,,,,,,,,,
,,12,6,${e://Field/PROLIFIC_PID,F,18,2023-11-03_04h34.29.833,MouseEye_CC,2023.2.2,Win32,60.07449237,1.081801891,,,1920,1080,45.519999999999996,3.79,"219.51, 229.44, 224.8, 223.31, 215.43, 220.12, 234.9",608.46,7.945545555,30.11361765,27.83653633,Passed,100.8806191,,,,,,,,,,,,,,,,,,,,,,,,,,,,,,,,,,,,,,,,,,,,,,,,,,,,,,,,,,,,,,,,,,,,,,,,,,,,,,,,,,,,,,,,,,,,,,,,251.9948,256.603,a,1,4.5851,,,,,,,,,,,,,,,,,,,,,,,,,,,,,,,,,,,,,,,,,,,,,,,,,,,,,,,,,,,,,,,,
,,12,6,${e://Field/PROLIFIC_PID,F,18,2023-11-03_04h34.29.833,MouseEye_CC,2023.2.2,Win32,60.07449237,1.081801891,,,1920,1080,45.519999999999996,3.79,"219.51, 229.44, 224.8, 223.31, 215.43, 220.12, 234.9",608.46,7.945545555,30.11361765,27.83653633,Passed,100.8806191,,,,,,,,,,,,,,,,,,,,,,,,,,,,,,,,,,,,,,,,,,,,,,,,,,,,,,,,,,,,,,,,,,,,,,,,,,,,,,,,,,,,,,,,,,,,,,,,,,,,,,256.6031,258.9528,,,,,,,,,,,,,,,,,,,,,,,,,,,,,,,,,,,,,,,,,,,,,,,,,,,,,,,,,,,,,
,,12,6,${e://Field/PROLIFIC_PID,F,18,2023-11-03_04h34.29.833,MouseEye_CC,2023.2.2,Win32,60.07449237,1.081801891,,,1920,1080,45.519999999999996,3.79,"219.51, 229.44, 224.8, 223.31, 215.43, 220.12, 234.9",608.46,7.945545555,30.11361765,27.83653633,Passed,100.8806191,,,,,,,,,,,,,,,,,,,,,,,,,,,,,,,,,,,,,,,,,,,,,,,,,,,,,,,,,,,,,,,,,,,,,,,,,,,,,,,,,,,,,,,,,,,,,,,,,,,,,,,,258.953,266.503,,,,,,,,,,,,,,,,,,,,,,,,,,,,,,,,,,,,,,,,,,,,,,,,,,,,,,,,,,,
,,12,6,${e://Field/PROLIFIC_PID,F,18,2023-11-03_04h34.29.833,MouseEye_CC,2023.2.2,Win32,60.07449237,1.081801891,,,1920,1080,45.519999999999996,3.79,"219.51, 229.44, 224.8, 223.31, 215.43, 220.12, 234.9",608.46,7.945545555,30.11361765,27.83653633,Passed,100.8806191,,,,,,,,,,,,,,,,,,,,training,1,1,0,left,a,,,,,266.5677,267.336,30.29045296,14,-6,1,0,0,0.7682,fixationPoint,267.3361,267.436,267.436,271.2861,30.29045296,8654.415132,521.4285117,a,1,3.8391,,271.2861,271.4861,,,,,,,,14,-66,174,27,172,211,215,160,172,-20,-20,-220,-20,-79,-79,208,-220,80,-26,28,-78,-124,122,-120,77,360,180,180,180,180,270,360,360,270,270,270,,,,,,,,,,,271.4877,271.4892,,0,0,0,0,1,3,repeated,,,,,,,,,,,,,,,,,,,,,,,,,,,,,,,,,,,,,,,,,,,,,,,,,
,,12,6,${e://Field/PROLIFIC_PID,F,18,2023-11-03_04h34.29.833,MouseEye_CC,2023.2.2,Win32,60.07449237,1.081801891,,,1920,1080,45.519999999999996,3.79,"219.51, 229.44, 224.8, 223.31, 215.43, 220.12, 234.9",608.46,7.945545555,30.11361765,27.83653633,Passed,100.8806191,,,,,,,,,,,,,,,,,,,,training,1,2,180,right,s,,,,,271.4895,272.0025,30.29045296,-8,3,1,0,0,0.513,fixationPoint,272.0026,272.1026,272.1026,275.0193,30.29045296,8654.415132,521.4285117,s,1,2.8992,,275.0194,275.2193,,,,,,,,97,71,-212,211,215,124,170,32,24,-28,20,-122,219,-223,20,-75,-165,-220,-128,-220,-20,173,-170,112,-125,360,180,360,360,270,360,180,90,270,360,270,,,,,,,,,,,275.2194,275.2195,,0,1,1,1,1,8,repeated,,,,,,,,,,,,,,,,,,,,,,,,,,,,,,,,,,,,,,,,,,,,,,,,,
,,12,6,${e://Field/PROLIFIC_PID,F,18,2023-11-03_04h34.29.833,MouseEye_CC,2023.2.2,Win32,60.07449237,1.081801891,,,1920,1080,45.519999999999996,3.79,"219.51, 229.44, 224.8, 223.31, 215.43, 220.12, 234.9",608.46,7.945545555,30.11361765,27.83653633,Passed,100.8806191,,,,,,,,,,,,,,,,,,,,training,1,3,180,right,s,,,,,275.2197,275.6025,30.29045296,0,-3,1,0,0,0.3827,fixationPoint,275.6025,275.7024,275.7025,278.9526,30.29045296,8654.415132,521.4285117,s,1,3.2309,,278.9527,279.1525,,,,,,,,7,66,211,-122,219,-66,174,-223,20,-164,-114,-220,-128,-79,-79,220,-120,213,-79,208,-28,72,169,76,32,180,360,360,180,270,360,90,360,360,180,90,,,,,,,,,,,279.1525,279.1527,,0,2,2,2,1,13,novel,,,,,,,,,,,,,,,,,,,,,,,,,,,,,,,,,,,,,,,,,,,,,,,,,
,,12,6,${e://Field/PROLIFIC_PID,F,18,2023-11-03_04h34.29.833,MouseEye_CC,2023.2.2,Win32,60.07449237,1.081801891,,,1920,1080,45.519999999999996,3.79,"219.51, 229.44, 224.8, 223.31, 215.43, 220.12, 234.9",608.46,7.945545555,30.11361765,27.83653633,Passed,100.8806191,,,,,,,,,,,,,,,,,,,,training,1,4,0,left,a,,,,,279.153,279.4858,30.29045296,-2,-5,1,0,0,0.3328,fixationPoint,279.4859,279.5857,279.5859,280.8525,30.29045296,8654.415132,521.4285117,a,1,1.2485,,280.8526,281.0525,,,,,,,,49,163,22,-127,21,-28,20,-32,72,-162,-215,-17,-216,-17,-70,80,-114,19,-169,221,-172,124,170,210,120,90,360,90,270,360,90,180,180,90,90,360,,,,,,,,,,,281.0525,281.0527,,0,3,3,3,1,1,repeated,,,,,,,,,,,,,,,,,,,,,,,,,,,,,,,,,,,,,,,,,,,,,,,,,
,,12,6,${e://Field/PROLIFIC_PID,F,18,2023-11-03_04h34.29.833,MouseEye_CC,2023.2.2,Win32,60.07449237,1.081801891,,,1920,1080,45.519999999999996,3.79,"219.51, 229.44, 224.8, 223.31, 215.43, 220.12, 234.9",608.46,7.945545555,30.11361765,27.83653633,Passed,100.8806191,,,,,,,,,,,,,,,,,,,,training,1,5,0,left,a,,,,,281.0531,281.3524,30.29045296,-1,-4,1,0,0,0.2993,fixationPoint,281.3525,281.4524,281.4524,284.0692,30.29045296,8654.415132,521.4285117,a,1,2.6091,,284.0693,284.2691,,,,,,,,84,-75,-165,221,26,160,172,73,126,-124,122,-222,168,-28,20,116,-161,24,-19,220,-120,-20,-20,-74,-124,360,360,360,180,360,90,90,360,90,180,180,,,,,,,,,,,284.2692,284.2693,,0,4,4,4,1,10,novel,,,,,,,,,,,,,,,,,,,,,,,,,,,,,,,,,,,,,,,,,,,,,,,,,
,,12,6,${e://Field/PROLIFIC_PID,F,18,2023-11-03_04h34.29.833,MouseEye_CC,2023.2.2,Win32,60.07449237,1.081801891,,,1920,1080,45.519999999999996,3.79,"219.51, 229.44, 224.8, 223.31, 215.43, 220.12, 234.9",608.46,7.945545555,30.11361765,27.83653633,Passed,100.8806191,,,,,,,,,,,,,,,,,,,,training,1,6,180,right,s,,,,,284.2696,284.6024,30.29045296,3,4,1,0,0,0.3328,fixationPoint,284.6025,284.7024,284.7024,286.8197,30.29045296,8654.415132,521.4285117,s,1,2.1094,,286.8198,287.0191,,,,,,,,4,-68,208,120,20,119,75,211,215,-120,-32,-17,-216,-168,-29,24,-19,112,-125,120,-221,-166,31,-169,216,270,360,180,180,90,360,180,270,90,360,180,,,,,,,,,,,287.0191,287.0193,,0,5,5,5,1,16,novel,,,,,,,,,,,,,,,,,,,,,,,,,,,,,,,,,,,,,,,,,,,,,,,,,
,,12,6,${e://Field/PROLIFIC_PID,F,18,2023-11-03_04h34.29.833,MouseEye_CC,2023.2.2,Win32,60.07449237,1.081801891,,,1920,1080,45.519999999999996,3.79,"219.51, 229.44, 224.8, 223.31, 215.43, 220.12, 234.9",608.46,7.945545555,30.11361765,27.83653633,Passed,100.8806191,,,,,,,,,,,,,,,,,,,,training,1,7,0,left,a,,,,,287.0196,287.369,30.29045296,2,1,1,0,0,0.3494,fixationPoint,287.3691,287.4691,287.4691,288.6692,30.29045296,8654.415132,521.4285117,a,1,1.1899,,288.6692,288.8691,,,,,,,,29,170,112,-28,20,-223,20,-219,220,-17,-216,-168,-29,-20,-20,71,-212,208,-220,19,-169,221,26,18,215,270,180,270,90,270,180,270,270,270,180,180,,,,,,,,,,,288.8692,288.8693,,0,6,6,6,1,14,novel,,,,,,,,,,,,,,,,,,,,,,,,,,,,,,,,,,,,,,,,,,,,,,,,,
,,12,6,${e://Field/PROLIFIC_PID,F,18,2023-11-03_04h34.29.833,MouseEye_CC,2023.2.2,Win32,60.07449237,1.081801891,,,1920,1080,45.519999999999996,3.79,"219.51, 229.44, 224.8, 223.31, 215.43, 220.12, 234.9",608.46,7.945545555,30.11361765,27.83653633,Passed,100.8806191,,,,,,,,,,,,,,,,,,,,training,1,8,0,left,a,,,,,288.8696,289.1691,30.29045296,2,1,1,0,0,0.2993,fixationPoint,289.1691,289.269,289.2691,290.069,30.29045296,8654.415132,521.4285117,a,1,0.7939,,290.0691,290.269,,,,,,,,17,72,169,-161,70,-166,31,-223,20,-220,-128,-17,-70,-70,-221,24,-19,80,-26,163,-68,211,215,221,26,180,90,180,90,360,270,270,270,90,180,360,,,,,,,,,,,290.2691,290.2692,,0,7,7,7,1,2,repeated,,,,,,,,,,,,,,,,,,,,,,,,,,,,,,,,,,,,,,,,,,,,,,,,,
,,12,6,${e://Field/PROLIFIC_PID,F,18,2023-11-03_04h34.29.833,MouseEye_CC,2023.2.2,Win32,60.07449237,1.081801891,,,1920,1080,45.519999999999996,3.79,"219.51, 229.44, 224.8, 223.31, 215.43, 220.12, 234.9",608.46,7.945545555,30.11361765,27.83653633,Passed,100.8806191,,,,,,,,,,,,,,,,,,,,training,1,9,180,right,s,,,,,290.2695,290.5191,30.29045296,2,1,1,0,0,0.2495,fixationPoint,290.5191,290.619,290.619,292.2191,30.29045296,8654.415132,521.4285117,s,1,1.5817,,292.2191,292.419,,,,,,,,94,-70,-221,213,173,27,172,120,20,-122,219,-174,162,-73,124,173,-170,80,-26,213,-79,-74,-124,-116,-219,270,180,360,270,270,270,270,90,180,270,90,,,,,,,,,,,292.419,292.4192,,0,8,8,8,1,5,repeated,,,,,,,,,,,,,,,,,,,,,,,,,,,,,,,,,,,,,,,,,,,,,,,,,
,,12,6,${e://Field/PROLIFIC_PID,F,18,2023-11-03_04h34.29.833,MouseEye_CC,2023.2.2,Win32,60.07449237,1.081801891,,,1920,1080,45.519999999999996,3.79,"219.51, 229.44, 224.8, 223.31, 215.43, 220.12, 234.9",608.46,7.945545555,30.11361765,27.83653633,Passed,100.8806191,,,,,,,,,,,,,,,,,,,,training,1,10,180,right,s,,,,,292.4195,292.8024,30.29045296,2,1,1,0,0,0.3828,fixationPoint,292.8024,292.9024,292.9025,295.1358,30.29045296,8654.415132,521.4285117,s,1,2.2191,,295.1358,295.3356,,,,,,,,72,-164,-114,72,169,211,215,172,64,-20,220,-223,20,-66,174,32,-113,27,-211,174,-16,-20,-20,-220,-80,270,180,270,180,180,180,360,180,270,360,360,,,,,,,,,,,295.3357,295.3358,,0,9,9,9,1,6,repeated,,,,,,,,,,,,,,,,,,,,,,,,,,,,,,,,,,,,,,,,,,,,,,,,,
,,12,6,${e://Field/PROLIFIC_PID,F,18,2023-11-03_04h34.29.833,MouseEye_CC,2023.2.2,Win32,60.07449237,1.081801891,,,1920,1080,45.519999999999996,3.79,"219.51, 229.44, 224.8, 223.31, 215.43, 220.12, 234.9",608.46,7.945545555,30.11361765,27.83653633,Passed,100.8806191,,,,,,,,,,,,,,,,,,,,training,1,11,180,right,s,,,,,295.3362,295.6523,30.29045296,2,1,1,0,0,0.316,fixationPoint,295.6523,295.7524,295.7524,297.1689,30.29045296,8654.415132,521.4285117,s,1,1.3956,,297.169,297.369,,,,,,,,87,75,-164,120,20,73,126,172,64,-213,64,-26,123,-162,114,-216,-224,-74,-124,-168,-29,28,-78,80,-26,180,180,90,90,360,180,90,90,360,90,360,,,,,,,,,,,297.3691,297.3692,,0,10,10,10,1,11,novel,,,,,,,,,,,,,,,,,,,,,,,,,,,,,,,,,,,,,,,,,,,,,,,,,
,,12,6,${e://Field/PROLIFIC_PID,F,18,2023-11-03_04h34.29.833,MouseEye_CC,2023.2.2,Win32,60.07449237,1.081801891,,,1920,1080,45.519999999999996,3.79,"219.51, 229.44, 224.8, 223.31, 215.43, 220.12, 234.9",608.46,7.945545555,30.11361765,27.83653633,Passed,100.8806191,,,,,,,,,,,,,,,,,,,,training,1,12,180,right,s,,,,,297.3695,297.4524,30.29045296,2,1,1,0,0,0.0827,fixationPoint,297.4524,297.5523,297.5523,301.1524,30.29045296,8654.415132,521.4285117,s,1,3.5822,,301.1524,301.3522,,,,,,,,22,-162,114,119,75,211,215,18,215,-220,-80,-220,-20,-20,-20,112,-125,80,-114,163,-68,-20,220,-73,124,90,180,270,270,90,270,90,180,360,180,270,,,,,,,,,,,301.3523,301.3525,,0,11,11,11,1,15,novel,,,,,,,,,,,,,,,,,,,,,,,,,,,,,,,,,,,,,,,,,,,,,,,,,
,,12,6,${e://Field/PROLIFIC_PID,F,18,2023-11-03_04h34.29.833,MouseEye_CC,2023.2.2,Win32,60.07449237,1.081801891,,,1920,1080,45.519999999999996,3.79,"219.51, 229.44, 224.8, 223.31, 215.43, 220.12, 234.9",608.46,7.945545555,30.11361765,27.83653633,Passed,100.8806191,,,,,,,,,,,,,,,,,,,,training,1,13,180,right,s,,,,,301.3528,303.3023,30.29045296,2,1,1,0,0,1.9494,fixationPoint,303.3023,303.4023,303.4023,305.6356,30.29045296,8654.415132,521.4285117,s,1,2.2229,,305.6356,305.8355,,,,,,,,79,164,-113,21,65,210,120,73,126,-76,73,-161,70,-124,122,-166,-76,-124,-172,-119,-79,112,-70,175,-224,270,360,360,180,360,270,270,270,90,270,90,,,,,,,,,,,305.8355,305.8356,,0,12,12,12,1,7,repeated,,,,,,,,,,,,,,,,,,,,,,,,,,,,,,,,,,,,,,,,,,,,,,,,,
,,12,6,${e://Field/PROLIFIC_PID,F,18,2023-11-03_04h34.29.833,MouseEye_CC,2023.2.2,Win32,60.07449237,1.081801891,,,1920,1080,45.519999999999996,3.79,"219.51, 229.44, 224.8, 223.31, 215.43, 220.12, 234.9",608.46,7.945545555,30.11361765,27.83653633,Passed,100.8806191,,,,,,,,,,,,,,,,,,,,training,1,14,0,left,a,,,,,305.836,306.1189,30.29045296,2,1,1,0,0,0.2828,fixationPoint,306.1189,306.2189,306.219,307.1855,30.29045296,8654.415132,521.4285117,a,1,0.9561,,307.1856,307.3855,,,,,,,,42,-166,31,163,22,32,24,174,222,-167,-167,-20,-20,-17,-216,115,-17,75,-164,112,-125,-26,123,-76,73,360,270,90,180,270,360,90,360,180,90,90,,,,,,,,,,,307.3855,307.3857,,0,13,13,13,1,4,repeated,,,,,,,,,,,,,,,,,,,,,,,,,,,,,,,,,,,,,,,,,,,,,,,,,
,,12,6,${e://Field/PROLIFIC_PID,F,18,2023-11-03_04h34.29.833,MouseEye_CC,2023.2.2,Win32,60.07449237,1.081801891,,,1920,1080,45.519999999999996,3.79,"219.51, 229.44, 224.8, 223.31, 215.43, 220.12, 234.9",608.46,7.945545555,30.11361765,27.83653633,Passed,100.8806191,,,,,,,,,,,,,,,,,,,,training,1,15,0,left,a,,,,,307.3862,308.4355,30.29045296,2,1,1,0,0,1.0491,fixationPoint,308.4355,308.5354,308.5355,310.4365,30.29045296,8654.415132,521.4285117,a,1,1.8896,,310.4366,310.6355,,,,,,,,59,174,-16,76,32,73,71,221,26,-22,165,-213,64,-169,216,-162,-215,-166,-76,-79,-79,115,-17,32,-113,270,180,360,360,270,90,90,360,90,270,180,,,,,,,,,,,310.6356,310.6357,,0,14,14,14,1,12,novel,,,,,,,,,,,,,,,,,,,,,,,,,,,,,,,,,,,,,,,,,,,,,,,,,
,,12,6,${e://Field/PROLIFIC_PID,F,18,2023-11-03_04h34.29.833,MouseEye_CC,2023.2.2,Win32,60.07449237,1.081801891,,,1920,1080,45.519999999999996,3.79,"219.51, 229.44, 224.8, 223.31, 215.43, 220.12, 234.9",608.46,7.945545555,30.11361765,27.83653633,Passed,100.8806191,,,,,,,,,,,,,,,,,,,,training,1,16,0,left,a,,,,,310.636,312.0022,30.29045296,2,1,1,0,0,1.3661,fixationPoint,312.0022,312.1021,312.1022,313.0688,30.29045296,8654.415132,521.4285117,a,1,0.9606,,313.0689,313.2689,,,,,,,,52,-168,-29,73,126,116,209,170,112,-222,168,-68,208,-223,117,164,-113,116,-161,220,-120,-216,-168,-220,-128,360,270,180,90,360,270,270,90,90,180,360,,,,,,,,,,,313.2689,323.1521,space,0,15,15,15,1,9,novel,9.8649,,,,,,,,,,,,,,,,,,,,,,,,,,,,,,,,,,,,,,,,,,,,,,,,
,,12,6,${e://Field/PROLIFIC_PID,F,18,2023-11-03_04h34.29.833,MouseEye_CC,2023.2.2,Win32,60.07449237,1.081801891,,,1920,1080,45.519999999999996,3.79,"219.51, 229.44, 224.8, 223.31, 215.43, 220.12, 234.9",608.46,7.945545555,30.11361765,27.83653633,Passed,100.8806191,,,,,,,,,,,,,,,,,,,,training,2,1,0,left,a,,,,,323.1581,324.352,30.29045296,2,1,1,0,0,1.1937,fixationPoint,324.3521,324.452,324.452,325.2188,30.29045296,8654.415132,521.4285117,a,1,0.7604,,325.2188,325.4188,,,,,,,,17,72,169,-161,70,-166,31,-223,20,-220,-128,-17,-70,-70,-221,24,-19,80,-26,163,-68,211,215,221,26,180,360,90,180,90,270,90,90,180,270,90,,,,,,,,,,,325.4188,325.4196,,0,16,16,16,1,2,repeated,,,,,,,,,,,,,,,,,,,,,,,,,,,,,,,,,,,,,,,,,,,,,,,,,
,,12,6,${e://Field/PROLIFIC_PID,F,18,2023-11-03_04h34.29.833,MouseEye_CC,2023.2.2,Win32,60.07449237,1.081801891,,,1920,1080,45.519999999999996,3.79,"219.51, 229.44, 224.8, 223.31, 215.43, 220.12, 234.9",608.46,7.945545555,30.11361765,27.83653633,Passed,100.8806191,,,,,,,,,,,,,,,,,,,,training,2,2,0,left,a,,,,,325.4198,325.7021,30.29045296,2,1,1,0,0,0.2822,fixationPoint,325.7021,325.802,325.802,329.4354,30.29045296,8654.415132,521.4285117,a,1,3.6218,,329.4354,329.6352,,,,,,,,87,75,-164,213,173,119,75,73,71,-222,168,-120,77,-124,122,-79,-79,-116,-219,-220,-128,175,-224,19,-169,90,270,360,360,360,90,270,360,180,360,90,,,,,,,,,,,329.6352,329.6353,,0,17,17,17,1,11,novel,,,,,,,,,,,,,,,,,,,,,,,,,,,,,,,,,,,,,,,,,,,,,,,,,
,,12,6,${e://Field/PROLIFIC_PID,F,18,2023-11-03_04h34.29.833,MouseEye_CC,2023.2.2,Win32,60.07449237,1.081801891,,,1920,1080,45.519999999999996,3.79,"219.51, 229.44, 224.8, 223.31, 215.43, 220.12, 234.9",608.46,7.945545555,30.11361765,27.83653633,Passed,100.8806191,,,,,,,,,,,,,,,,,,,,training,2,3,180,right,s,,,,,329.6356,329.752,30.29045296,2,1,1,0,0,0.1163,fixationPoint,329.752,329.852,329.852,331.0687,30.29045296,8654.415132,521.4285117,s,1,1.1946,,331.0687,331.2686,,,,,,,,49,163,22,-127,21,-28,20,-32,72,-162,-215,-17,-216,-17,-70,80,-114,19,-169,221,-172,124,170,210,120,180,180,180,90,180,180,90,180,180,180,270,,,,,,,,,,,331.2686,331.2687,,0,18,18,18,1,1,repeated,,,,,,,,,,,,,,,,,,,,,,,,,,,,,,,,,,,,,,,,,,,,,,,,,
,,12,6,${e://Field/PROLIFIC_PID,F,18,2023-11-03_04h34.29.833,MouseEye_CC,2023.2.2,Win32,60.07449237,1.081801891,,,1920,1080,45.519999999999996,3.79,"219.51, 229.44, 224.8, 223.31, 215.43, 220.12, 234.9",608.46,7.945545555,30.11361765,27.83653633,Passed,100.8806191,,,,,,,,,,,,,,,,,,,,training,2,4,0,left,a,,,,,331.269,331.5352,30.29045296,2,1,1,0,0,0.2661,fixationPoint,331.5352,331.6353,331.6353,332.9353,30.29045296,8654.415132,521.4285117,a,1,1.2895,,332.9353,333.1352,,,,,,,,79,164,-113,21,65,210,120,73,126,-76,73,-161,70,-124,122,-166,-76,-124,-172,-119,-79,112,-70,175,-224,90,180,270,270,90,90,180,180,360,360,90,,,,,,,,,,,333.1353,333.1354,,0,19,19,19,1,7,repeated,,,,,,,,,,,,,,,,,,,,,,,,,,,,,,,,,,,,,,,,,,,,,,,,,
,,12,6,${e://Field/PROLIFIC_PID,F,18,2023-11-03_04h34.29.833,MouseEye_CC,2023.2.2,Win32,60.07449237,1.081801891,,,1920,1080,45.519999999999996,3.79,"219.51, 229.44, 224.8, 223.31, 215.43, 220.12, 234.9",608.46,7.945545555,30.11361765,27.83653633,Passed,100.8806191,,,,,,,,,,,,,,,,,,,,training,2,5,180,right,s,,,,,333.1358,333.4186,30.29045296,2,1,1,0,0,0.2828,fixationPoint,333.4187,333.5186,333.5186,334.6686,30.29045296,8654.415132,521.4285117,s,1,1.144,,334.6686,334.8686,,,,,,,,52,-168,-29,32,24,73,71,163,22,-124,122,-174,162,-223,20,120,-221,115,-17,213,-79,-75,-165,-162,-215,90,180,90,180,360,360,270,270,90,180,180,,,,,,,,,,,334.8686,334.8687,,0,20,20,20,1,9,novel,,,,,,,,,,,,,,,,,,,,,,,,,,,,,,,,,,,,,,,,,,,,,,,,,
,,12,6,${e://Field/PROLIFIC_PID,F,18,2023-11-03_04h34.29.833,MouseEye_CC,2023.2.2,Win32,60.07449237,1.081801891,,,1920,1080,45.519999999999996,3.79,"219.51, 229.44, 224.8, 223.31, 215.43, 220.12, 234.9",608.46,7.945545555,30.11361765,27.83653633,Passed,100.8806191,,,,,,,,,,,,,,,,,,,,training,2,6,180,right,s,,,,,334.869,335.0019,30.29045296,2,1,1,0,0,0.1329,fixationPoint,335.002,335.1019,335.1019,337.3852,30.29045296,8654.415132,521.4285117,s,1,2.2728,,337.3852,337.5852,,,,,,,,84,-75,-165,170,112,32,120,73,71,-120,77,-32,72,-66,174,163,-68,24,-19,164,-113,-32,-112,-164,-114,90,270,270,360,360,360,180,270,90,90,180,,,,,,,,,,,337.5853,337.5853,,0,21,21,21,1,10,novel,,,,,,,,,,,,,,,,,,,,,,,,,,,,,,,,,,,,,,,,,,,,,,,,,
,,12,6,${e://Field/PROLIFIC_PID,F,18,2023-11-03_04h34.29.833,MouseEye_CC,2023.2.2,Win32,60.07449237,1.081801891,,,1920,1080,45.519999999999996,3.79,"219.51, 229.44, 224.8, 223.31, 215.43, 220.12, 234.9",608.46,7.945545555,30.11361765,27.83653633,Passed,100.8806191,,,,,,,,,,,,,,,,,,,,training,2,7,180,right,s,,,,,337.5856,338.152,30.29045296,-17,2,1,0,0,0.2329,fixationPoint,338.152,338.2518,338.2519,341.7185,30.29045296,8654.415132,521.4285117,s,1,3.4605,,341.7186,341.9185,,,,,,,,42,-166,31,163,22,32,24,174,222,-167,-167,-20,-20,-17,-216,115,-17,75,-164,112,-125,-26,123,-76,73,360,270,270,180,360,360,270,180,180,90,180,,,,,,,,,,,341.9185,341.9187,,0,22,22,22,1,4,repeated,,,,,,,,,,,,,,,,,,,,,,,,,,,,,,,,,,,,,,,,,,,,,,,,,
,,12,6,${e://Field/PROLIFIC_PID,F,18,2023-11-03_04h34.29.833,MouseEye_CC,2023.2.2,Win32,60.07449237,1.081801891,,,1920,1080,45.519999999999996,3.79,"219.51, 229.44, 224.8, 223.31, 215.43, 220.12, 234.9",608.46,7.945545555,30.11361765,27.83653633,Passed,100.8806191,,,,,,,,,,,,,,,,,,,,training,2,8,0,left,a,,,,,341.919,342.3185,30.29045296,-3,-10,1,0,0,0.3995,fixationPoint,342.3185,342.4185,342.4185,347.0852,30.29045296,8654.415132,521.4285117,a,1,4.6526,,347.0852,347.2851,,,,,,,,97,71,-212,211,215,124,170,32,24,-28,20,-122,219,-223,20,-75,-165,-220,-128,-220,-20,173,-170,112,-125,180,90,270,270,360,180,360,360,360,360,180,,,,,,,,,,,347.2852,347.2853,,0,23,23,23,1,8,repeated,,,,,,,,,,,,,,,,,,,,,,,,,,,,,,,,,,,,,,,,,,,,,,,,,
,,12,6,${e://Field/PROLIFIC_PID,F,18,2023-11-03_04h34.29.833,MouseEye_CC,2023.2.2,Win32,60.07449237,1.081801891,,,1920,1080,45.519999999999996,3.79,"219.51, 229.44, 224.8, 223.31, 215.43, 220.12, 234.9",608.46,7.945545555,30.11361765,27.83653633,Passed,100.8806191,,,,,,,,,,,,,,,,,,,,training,2,9,0,left,a,,,,,347.2856,347.8185,30.29045296,0,4,1,0,0,0.5327,fixationPoint,347.8185,347.9183,347.9184,348.902,30.29045296,8654.415132,521.4285117,a,1,0.9686,,348.902,349.1018,,,,,,,,22,-162,114,163,22,160,172,174,222,-124,-172,-162,-215,-216,-168,208,-220,174,-16,75,-164,-22,165,-174,162,90,360,360,270,180,270,180,360,180,90,90,,,,,,,,,,,349.1019,349.1019,,0,24,24,24,1,15,novel,,,,,,,,,,,,,,,,,,,,,,,,,,,,,,,,,,,,,,,,,,,,,,,,,
,,12,6,${e://Field/PROLIFIC_PID,F,18,2023-11-03_04h34.29.833,MouseEye_CC,2023.2.2,Win32,60.07449237,1.081801891,,,1920,1080,45.519999999999996,3.79,"219.51, 229.44, 224.8, 223.31, 215.43, 220.12, 234.9",608.46,7.945545555,30.11361765,27.83653633,Passed,100.8806191,,,,,,,,,,,,,,,,,,,,training,2,10,180,right,s,,,,,349.1022,349.3518,30.29045296,0,4,1,0,0,0.2495,fixationPoint,349.3519,349.4517,349.4518,350.7518,30.29045296,8654.415132,521.4285117,s,1,1.2822,,350.7519,350.9517,,,,,,,,72,-164,-114,72,169,211,215,172,64,-20,220,-223,20,-66,174,32,-113,27,-211,174,-16,-20,-20,-220,-80,270,270,90,270,90,270,270,360,180,180,360,,,,,,,,,,,350.9517,350.9518,,0,25,25,25,1,6,repeated,,,,,,,,,,,,,,,,,,,,,,,,,,,,,,,,,,,,,,,,,,,,,,,,,
,,12,6,${e://Field/PROLIFIC_PID,F,18,2023-11-03_04h34.29.833,MouseEye_CC,2023.2.2,Win32,60.07449237,1.081801891,,,1920,1080,45.519999999999996,3.79,"219.51, 229.44, 224.8, 223.31, 215.43, 220.12, 234.9",608.46,7.945545555,30.11361765,27.83653633,Passed,100.8806191,,,,,,,,,,,,,,,,,,,,training,2,11,180,right,s,,,,,350.9521,351.1684,30.29045296,0,4,1,0,0,0.2162,fixationPoint,351.1684,351.2684,351.2684,352.8851,30.29045296,8654.415132,521.4285117,s,1,1.6064,,352.8858,353.085,,,,,,,,59,174,-16,18,215,163,22,160,172,-222,168,-174,162,-20,220,-164,-114,-116,-219,-119,-79,208,-28,32,-113,90,180,180,180,180,270,180,270,180,90,180,,,,,,,,,,,353.0851,353.0851,,0,26,26,26,1,12,novel,,,,,,,,,,,,,,,,,,,,,,,,,,,,,,,,,,,,,,,,,,,,,,,,,
,,12,6,${e://Field/PROLIFIC_PID,F,18,2023-11-03_04h34.29.833,MouseEye_CC,2023.2.2,Win32,60.07449237,1.081801891,,,1920,1080,45.519999999999996,3.79,"219.51, 229.44, 224.8, 223.31, 215.43, 220.12, 234.9",608.46,7.945545555,30.11361765,27.83653633,Passed,100.8806191,,,,,,,,,,,,,,,,,,,,training,2,12,0,left,a,,,,,353.0854,353.1518,30.29045296,0,4,1,0,0,0.0662,fixationPoint,353.1518,353.2516,353.2517,355.7017,30.29045296,8654.415132,521.4285117,a,1,2.4349,,355.7018,355.9018,,,,,,,,14,-66,174,27,172,211,215,160,172,-20,-20,-220,-20,-79,-79,208,-220,80,-26,28,-78,-124,122,-120,77,90,90,360,180,180,270,360,90,90,180,180,,,,,,,,,,,355.9018,355.9019,,0,27,27,27,1,3,repeated,,,,,,,,,,,,,,,,,,,,,,,,,,,,,,,,,,,,,,,,,,,,,,,,,
,,12,6,${e://Field/PROLIFIC_PID,F,18,2023-11-03_04h34.29.833,MouseEye_CC,2023.2.2,Win32,60.07449237,1.081801891,,,1920,1080,45.519999999999996,3.79,"219.51, 229.44, 224.8, 223.31, 215.43, 220.12, 234.9",608.46,7.945545555,30.11361765,27.83653633,Passed,100.8806191,,,,,,,,,,,,,,,,,,,,training,2,13,0,left,a,,,,,355.9021,356.185,30.29045296,0,4,1,0,0,0.2829,fixationPoint,356.1851,356.285,356.285,358.785,30.29045296,8654.415132,521.4285117,a,1,2.4895,,358.7851,358.9849,,,,,,,,29,170,112,-66,174,-120,77,-219,220,-119,-79,-17,-216,-70,-221,120,-221,19,-169,174,-16,119,75,221,26,360,180,360,360,270,90,180,270,270,270,180,,,,,,,,,,,358.985,358.9851,,0,28,28,28,1,14,novel,,,,,,,,,,,,,,,,,,,,,,,,,,,,,,,,,,,,,,,,,,,,,,,,,
,,12,6,${e://Field/PROLIFIC_PID,F,18,2023-11-03_04h34.29.833,MouseEye_CC,2023.2.2,Win32,60.07449237,1.081801891,,,1920,1080,45.519999999999996,3.79,"219.51, 229.44, 224.8, 223.31, 215.43, 220.12, 234.9",608.46,7.945545555,30.11361765,27.83653633,Passed,100.8806191,,,,,,,,,,,,,,,,,,,,training,2,14,0,left,a,,,,,358.9854,359.2351,30.29045296,0,4,1,0,0,0.2495,fixationPoint,359.2351,359.3351,359.3351,365.1183,30.29045296,8654.415132,521.4285117,a,1,5.7658,,365.1183,365.3183,,,,,,,,4,-68,208,66,211,221,80,213,173,-116,-219,-79,-79,-167,-167,164,-113,163,-68,75,-164,-22,165,-26,123,90,270,360,360,90,180,360,180,180,180,90,,,,,,,,,,,365.3183,365.3184,,0,29,29,29,1,16,novel,,,,,,,,,,,,,,,,,,,,,,,,,,,,,,,,,,,,,,,,,,,,,,,,,
,,12,6,${e://Field/PROLIFIC_PID,F,18,2023-11-03_04h34.29.833,MouseEye_CC,2023.2.2,Win32,60.07449237,1.081801891,,,1920,1080,45.519999999999996,3.79,"219.51, 229.44, 224.8, 223.31, 215.43, 220.12, 234.9",608.46,7.945545555,30.11361765,27.83653633,Passed,100.8806191,,,,,,,,,,,,,,,,,,,,training,2,15,180,right,s,,,,,365.3187,365.5683,30.29045296,-2,2,1,0,0,0.2495,fixationPoint,365.5684,365.6682,365.6682,367.8016,30.29045296,8654.415132,521.4285117,s,1,2.1188,,367.8016,368.0016,,,,,,,,94,-70,-221,213,173,27,172,120,20,-122,219,-174,162,-73,124,173,-170,80,-26,213,-79,-74,-124,-116,-219,180,360,180,360,180,270,90,90,360,270,180,,,,,,,,,,,368.0017,368.0018,,0,30,30,30,1,5,repeated,,,,,,,,,,,,,,,,,,,,,,,,,,,,,,,,,,,,,,,,,,,,,,,,,
,,12,6,${e://Field/PROLIFIC_PID,F,18,2023-11-03_04h34.29.833,MouseEye_CC,2023.2.2,Win32,60.07449237,1.081801891,,,1920,1080,45.519999999999996,3.79,"219.51, 229.44, 224.8, 223.31, 215.43, 220.12, 234.9",608.46,7.945545555,30.11361765,27.83653633,Passed,100.8806191,,,,,,,,,,,,,,,,,,,,training,2,16,180,right,s,,,,,368.0021,368.2682,30.29045296,-1,7,1,0,0,0.2659,fixationPoint,368.2683,368.3682,368.3682,371.0683,30.29045296,8654.415132,521.4285117,s,1,2.6825,,371.0683,371.2682,,,,,,,,7,66,211,-174,162,-162,114,-66,174,-116,-219,-17,-70,-32,-112,221,-172,213,-79,120,-221,72,169,210,120,270,360,90,360,90,90,90,90,270,360,90,,,,,,,,,,,371.2682,374.1183,space,0,31,31,31,1,13,novel,2.84,,,,,,,,,,,,,,,,,,,,,,,,,,,,,,,,,,,,,,,,,,,,,,,,
,,12,6,${e://Field/PROLIFIC_PID,F,18,2023-11-03_04h34.29.833,MouseEye_CC,2023.2.2,Win32,60.07449237,1.081801891,,,1920,1080,45.519999999999996,3.79,"219.51, 229.44, 224.8, 223.31, 215.43, 220.12, 234.9",608.46,7.945545555,30.11361765,27.83653633,Passed,100.8806191,,,,,,,,,,,,,,,,,,,,training,3,1,180,right,s,,,,,374.1187,375.1015,30.29045296,-1,7,1,0,0,0.9827,fixationPoint,375.1015,375.2014,375.2014,376.8182,30.29045296,8654.415132,521.4285117,s,1,1.6002,,376.8183,377.018,,,,,,,,59,174,-16,163,22,116,209,73,71,-213,64,-161,70,-222,168,-20,-20,-167,-167,-116,-219,24,-19,175,-224,90,90,90,90,180,360,270,270,90,360,90,,,,,,,,,,,377.0181,377.0191,,0,32,32,32,1,12,novel,,,,,,,,,,,,,,,,,,,,,,,,,,,,,,,,,,,,,,,,,,,,,,,,,
,,12,6,${e://Field/PROLIFIC_PID,F,18,2023-11-03_04h34.29.833,MouseEye_CC,2023.2.2,Win32,60.07449237,1.081801891,,,1920,1080,45.519999999999996,3.79,"219.51, 229.44, 224.8, 223.31, 215.43, 220.12, 234.9",608.46,7.945545555,30.11361765,27.83653633,Passed,100.8806191,,,,,,,,,,,,,,,,,,,,training,3,2,180,right,s,,,,,377.0195,377.2848,30.29045296,-1,7,1,0,0,0.2652,fixationPoint,377.2848,377.3848,377.3849,379.3515,30.29045296,8654.415132,521.4285117,s,1,1.9523,,379.3516,379.5514,,,,,,,,7,66,211,-222,168,-122,219,-223,20,-116,-219,-79,-79,-32,-172,208,-28,115,-17,208,-220,21,65,32,120,360,90,360,180,180,90,90,90,270,90,180,,,,,,,,,,,379.5514,379.5515,,0,33,33,33,1,13,novel,,,,,,,,,,,,,,,,,,,,,,,,,,,,,,,,,,,,,,,,,,,,,,,,,
,,12,6,${e://Field/PROLIFIC_PID,F,18,2023-11-03_04h34.29.833,MouseEye_CC,2023.2.2,Win32,60.07449237,1.081801891,,,1920,1080,45.519999999999996,3.79,"219.51, 229.44, 224.8, 223.31, 215.43, 220.12, 234.9",608.46,7.945545555,30.11361765,27.83653633,Passed,100.8806191,,,,,,,,,,,,,,,,,,,,training,3,3,180,right,s,,,,,379.5517,379.8181,30.29045296,-1,7,1,0,0,0.2662,fixationPoint,379.8181,379.9181,379.9181,382.5016,30.29045296,8654.415132,521.4285117,s,1,2.5683,,382.5017,382.7014,,,,,,,,49,163,22,-127,21,-28,20,-32,72,-162,-215,-17,-216,-17,-70,80,-114,19,-169,221,-172,124,170,210,120,90,180,360,270,90,180,90,90,270,180,180,,,,,,,,,,,382.7014,382.7016,,0,34,34,34,1,1,repeated,,,,,,,,,,,,,,,,,,,,,,,,,,,,,,,,,,,,,,,,,,,,,,,,,
,,12,6,${e://Field/PROLIFIC_PID,F,18,2023-11-03_04h34.29.833,MouseEye_CC,2023.2.2,Win32,60.07449237,1.081801891,,,1920,1080,45.519999999999996,3.79,"219.51, 229.44, 224.8, 223.31, 215.43, 220.12, 234.9",608.46,7.945545555,30.11361765,27.83653633,Passed,100.8806191,,,,,,,,,,,,,,,,,,,,training,3,4,0,left,a,,,,,382.7019,382.968,30.29045296,-1,7,1,0,0,0.2661,fixationPoint,382.9681,383.0681,383.0681,386.6014,30.29045296,8654.415132,521.4285117,a,1,3.5188,,386.6014,386.8014,,,,,,,,4,-68,208,221,26,124,170,172,64,-124,-172,-167,-167,-166,-76,80,-26,28,-78,19,-169,-222,168,-213,64,360,270,180,90,270,180,90,180,360,180,180,,,,,,,,,,,386.8015,386.8016,,0,35,35,35,1,16,novel,,,,,,,,,,,,,,,,,,,,,,,,,,,,,,,,,,,,,,,,,,,,,,,,,
,,12,6,${e://Field/PROLIFIC_PID,F,18,2023-11-03_04h34.29.833,MouseEye_CC,2023.2.2,Win32,60.07449237,1.081801891,,,1920,1080,45.519999999999996,3.79,"219.51, 229.44, 224.8, 223.31, 215.43, 220.12, 234.9",608.46,7.945545555,30.11361765,27.83653633,Passed,100.8806191,,,,,,,,,,,,,,,,,,,,training,3,5,180,right,s,,,,,386.8019,387.1014,30.29045296,-1,7,1,0,0,0.2994,fixationPoint,387.1015,387.2013,387.2013,391.0681,30.29045296,8654.415132,521.4285117,s,1,3.849,,391.0681,391.2678,,,,,,,,52,-168,-29,221,26,27,172,213,173,-28,20,-222,168,-174,162,32,-113,71,-212,112,-125,-220,-128,-220,-80,90,360,360,90,270,360,270,180,270,270,90,,,,,,,,,,,391.2679,391.268,,0,36,36,36,1,9,novel,,,,,,,,,,,,,,,,,,,,,,,,,,,,,,,,,,,,,,,,,,,,,,,,,
,,12,6,${e://Field/PROLIFIC_PID,F,18,2023-11-03_04h34.29.833,MouseEye_CC,2023.2.2,Win32,60.07449237,1.081801891,,,1920,1080,45.519999999999996,3.79,"219.51, 229.44, 224.8, 223.31, 215.43, 220.12, 234.9",608.46,7.945545555,30.11361765,27.83653633,Passed,100.8806191,,,,,,,,,,,,,,,,,,,,training,3,6,180,right,s,,,,,391.2683,391.568,30.29045296,0,7,1,0,0,0.2997,fixationPoint,391.568,391.6679,391.6679,393.1847,30.29045296,8654.415132,521.4285117,s,1,1.507,,393.1847,393.3846,,,,,,,,84,-75,-165,221,26,221,80,21,65,-223,117,-122,168,-219,220,71,-212,32,-113,164,-113,-164,-114,-216,-168,90,90,360,90,270,270,90,360,180,360,90,,,,,,,,,,,393.3846,393.3848,,0,37,37,37,1,10,novel,,,,,,,,,,,,,,,,,,,,,,,,,,,,,,,,,,,,,,,,,,,,,,,,,
,,12,6,${e://Field/PROLIFIC_PID,F,18,2023-11-03_04h34.29.833,MouseEye_CC,2023.2.2,Win32,60.07449237,1.081801891,,,1920,1080,45.519999999999996,3.79,"219.51, 229.44, 224.8, 223.31, 215.43, 220.12, 234.9",608.46,7.945545555,30.11361765,27.83653633,Passed,100.8806191,,,,,,,,,,,,,,,,,,,,training,3,7,0,left,a,,,,,393.385,393.7179,30.29045296,0,7,1,0,0,0.3328,fixationPoint,393.718,393.8179,393.8179,396.0013,30.29045296,8654.415132,521.4285117,a,1,2.1646,,396.0013,396.2012,,,,,,,,17,72,169,-161,70,-166,31,-223,20,-220,-128,-17,-70,-70,-221,24,-19,80,-26,163,-68,211,215,221,26,270,270,270,180,270,360,180,180,360,360,90,,,,,,,,,,,396.2013,396.2014,,0,38,38,38,1,2,repeated,,,,,,,,,,,,,,,,,,,,,,,,,,,,,,,,,,,,,,,,,,,,,,,,,
,,12,6,${e://Field/PROLIFIC_PID,F,18,2023-11-03_04h34.29.833,MouseEye_CC,2023.2.2,Win32,60.07449237,1.081801891,,,1920,1080,45.519999999999996,3.79,"219.51, 229.44, 224.8, 223.31, 215.43, 220.12, 234.9",608.46,7.945545555,30.11361765,27.83653633,Passed,100.8806191,,,,,,,,,,,,,,,,,,,,training,3,8,0,left,a,,,,,396.2017,396.5179,30.29045296,0,7,1,0,0,0.3161,fixationPoint,396.5181,396.6179,396.6179,398.8013,30.29045296,8654.415132,521.4285117,a,1,2.1688,,398.8013,399.0013,,,,,,,,79,164,-113,21,65,210,120,73,126,-76,73,-161,70,-124,122,-166,-76,-124,-172,-119,-79,112,-70,175,-224,90,180,180,90,180,270,180,180,90,360,270,,,,,,,,,,,399.0014,399.0015,,0,39,39,39,1,7,repeated,,,,,,,,,,,,,,,,,,,,,,,,,,,,,,,,,,,,,,,,,,,,,,,,,
,,12,6,${e://Field/PROLIFIC_PID,F,18,2023-11-03_04h34.29.833,MouseEye_CC,2023.2.2,Win32,60.07449237,1.081801891,,,1920,1080,45.519999999999996,3.79,"219.51, 229.44, 224.8, 223.31, 215.43, 220.12, 234.9",608.46,7.945545555,30.11361765,27.83653633,Passed,100.8806191,,,,,,,,,,,,,,,,,,,,training,3,9,0,left,a,,,,,399.0018,399.2513,30.29045296,0,7,1,0,0,0.2493,fixationPoint,399.2513,399.3511,399.3512,402.9512,30.29045296,8654.415132,521.4285117,a,1,3.5859,,402.9513,403.1511,,,,,,,,14,-66,174,27,172,211,215,160,172,-20,-20,-220,-20,-79,-79,208,-220,80,-26,28,-78,-124,122,-120,77,90,360,90,360,360,360,360,270,270,90,90,,,,,,,,,,,403.1511,403.1513,,0,40,40,40,1,3,repeated,,,,,,,,,,,,,,,,,,,,,,,,,,,,,,,,,,,,,,,,,,,,,,,,,
,,12,6,${e://Field/PROLIFIC_PID,F,18,2023-11-03_04h34.29.833,MouseEye_CC,2023.2.2,Win32,60.07449237,1.081801891,,,1920,1080,45.519999999999996,3.79,"219.51, 229.44, 224.8, 223.31, 215.43, 220.12, 234.9",608.46,7.945545555,30.11361765,27.83653633,Passed,100.8806191,,,,,,,,,,,,,,,,,,,,training,3,10,180,right,s,,,,,403.1516,403.3846,30.29045296,0,7,1,0,0,0.2329,fixationPoint,403.3847,403.4846,403.4846,405.3678,30.29045296,8654.415132,521.4285117,s,1,1.8775,,405.3679,405.5677,,,,,,,,72,-164,-114,72,169,211,215,172,64,-20,220,-223,20,-66,174,32,-113,27,-211,174,-16,-20,-20,-220,-80,180,270,360,360,180,360,90,360,360,270,360,,,,,,,,,,,405.5678,405.568,,0,41,41,41,1,6,repeated,,,,,,,,,,,,,,,,,,,,,,,,,,,,,,,,,,,,,,,,,,,,,,,,,
,,12,6,${e://Field/PROLIFIC_PID,F,18,2023-11-03_04h34.29.833,MouseEye_CC,2023.2.2,Win32,60.07449237,1.081801891,,,1920,1080,45.519999999999996,3.79,"219.51, 229.44, 224.8, 223.31, 215.43, 220.12, 234.9",608.46,7.945545555,30.11361765,27.83653633,Passed,100.8806191,,,,,,,,,,,,,,,,,,,,training,3,11,180,right,s,,,,,405.5682,405.6845,30.29045296,0,9,1,0,0,0.1162,fixationPoint,405.6845,405.7845,405.7845,409.4178,30.29045296,8654.415132,521.4285117,s,1,3.6159,,409.4178,409.6179,,,,,,,,42,-166,31,163,22,32,24,174,222,-167,-167,-20,-20,-17,-216,115,-17,75,-164,112,-125,-26,123,-76,73,270,270,360,90,270,90,90,270,90,90,90,,,,,,,,,,,409.6179,409.618,,0,42,42,42,1,4,repeated,,,,,,,,,,,,,,,,,,,,,,,,,,,,,,,,,,,,,,,,,,,,,,,,,
,,12,6,${e://Field/PROLIFIC_PID,F,18,2023-11-03_04h34.29.833,MouseEye_CC,2023.2.2,Win32,60.07449237,1.081801891,,,1920,1080,45.519999999999996,3.79,"219.51, 229.44, 224.8, 223.31, 215.43, 220.12, 234.9",608.46,7.945545555,30.11361765,27.83653633,Passed,100.8806191,,,,,,,,,,,,,,,,,,,,training,3,12,0,left,a,,,,,409.6183,409.8678,30.29045296,0,9,1,0,0,0.2494,fixationPoint,409.8678,409.9677,409.9678,412.1178,30.29045296,8654.415132,521.4285117,a,1,2.143,,412.1179,412.3177,,,,,,,,94,-70,-221,213,173,27,172,120,20,-122,219,-174,162,-73,124,173,-170,80,-26,213,-79,-74,-124,-116,-219,360,270,270,180,90,270,180,90,180,360,360,,,,,,,,,,,412.3178,412.3179,,0,43,43,43,1,5,repeated,,,,,,,,,,,,,,,,,,,,,,,,,,,,,,,,,,,,,,,,,,,,,,,,,
,,12,6,${e://Field/PROLIFIC_PID,F,18,2023-11-03_04h34.29.833,MouseEye_CC,2023.2.2,Win32,60.07449237,1.081801891,,,1920,1080,45.519999999999996,3.79,"219.51, 229.44, 224.8, 223.31, 215.43, 220.12, 234.9",608.46,7.945545555,30.11361765,27.83653633,Passed,100.8806191,,,,,,,,,,,,,,,,,,,,training,3,13,0,left,a,,,,,412.3182,412.5678,30.29045296,0,9,1,0,0,0.2495,fixationPoint,412.5678,412.6678,412.6679,414.0011,30.29045296,8654.415132,521.4285117,a,1,1.3193,,414.0011,414.201,,,,,,,,87,75,-164,210,120,73,126,163,22,-32,72,-26,123,-22,165,-116,-219,-220,-20,-32,-112,24,-19,19,-169,360,90,360,180,270,360,360,270,360,180,360,,,,,,,,,,,414.201,414.2012,,0,44,44,44,1,11,novel,,,,,,,,,,,,,,,,,,,,,,,,,,,,,,,,,,,,,,,,,,,,,,,,,
,,12,6,${e://Field/PROLIFIC_PID,F,18,2023-11-03_04h34.29.833,MouseEye_CC,2023.2.2,Win32,60.07449237,1.081801891,,,1920,1080,45.519999999999996,3.79,"219.51, 229.44, 224.8, 223.31, 215.43, 220.12, 234.9",608.46,7.945545555,30.11361765,27.83653633,Passed,100.8806191,,,,,,,,,,,,,,,,,,,,training,3,14,180,right,s,,,,,414.2015,414.4344,30.29045296,0,9,1,0,0,0.2328,fixationPoint,414.4344,414.5344,414.5344,415.6678,30.29045296,8654.415132,521.4285117,s,1,1.1273,,415.6678,415.8678,,,,,,,,22,-162,114,27,172,211,215,174,222,-74,-124,-70,-221,-120,-32,221,-172,213,-79,112,-125,-66,174,-120,77,180,90,90,360,180,180,270,270,90,360,360,,,,,,,,,,,415.8678,415.8679,,0,45,45,45,1,15,novel,,,,,,,,,,,,,,,,,,,,,,,,,,,,,,,,,,,,,,,,,,,,,,,,,
,,12,6,${e://Field/PROLIFIC_PID,F,18,2023-11-03_04h34.29.833,MouseEye_CC,2023.2.2,Win32,60.07449237,1.081801891,,,1920,1080,45.519999999999996,3.79,"219.51, 229.44, 224.8, 223.31, 215.43, 220.12, 234.9",608.46,7.945545555,30.11361765,27.83653633,Passed,100.8806191,,,,,,,,,,,,,,,,,,,,training,3,15,0,left,a,,,,,415.8682,416.1511,30.29045296,0,9,1,0,0,0.2827,fixationPoint,416.1511,416.2509,416.251,419.7511,30.29045296,8654.415132,521.4285117,a,1,3.4858,,419.7511,419.9509,,,,,,,,97,71,-212,211,215,124,170,32,24,-28,20,-122,219,-223,20,-75,-165,-220,-128,-220,-20,173,-170,112,-125,90,180,360,180,90,180,90,270,180,90,90,,,,,,,,,,,419.9511,419.9512,,0,46,46,46,1,8,repeated,,,,,,,,,,,,,,,,,,,,,,,,,,,,,,,,,,,,,,,,,,,,,,,,,
,,12,6,${e://Field/PROLIFIC_PID,F,18,2023-11-03_04h34.29.833,MouseEye_CC,2023.2.2,Win32,60.07449237,1.081801891,,,1920,1080,45.519999999999996,3.79,"219.51, 229.44, 224.8, 223.31, 215.43, 220.12, 234.9",608.46,7.945545555,30.11361765,27.83653633,Passed,100.8806191,,,,,,,,,,,,,,,,,,,,training,3,16,0,left,a,,,,,419.9516,420.2343,30.29045296,0,9,1,0,0,0.2827,fixationPoint,420.2344,420.3344,420.3344,423.401,30.29045296,8654.415132,521.4285117,a,1,3.0523,,423.4011,423.601,,,,,,,,29,170,112,-26,123,-223,20,-174,162,-220,-128,-17,-70,-32,-112,120,-221,27,-211,115,-17,21,65,32,24,360,270,270,270,270,360,180,90,90,270,270,,,,,,,,,,,423.601,424.8843,space,0,47,47,47,1,14,novel,1.2697,,,,,,,,,,,,,,,,,,,,,,,,,,,,,,,,,,,,,,,,,,,,,,,,
,,12,6,${e://Field/PROLIFIC_PID,F,18,2023-11-03_04h34.29.833,MouseEye_CC,2023.2.2,Win32,60.07449237,1.081801891,,,1920,1080,45.519999999999996,3.79,"219.51, 229.44, 224.8, 223.31, 215.43, 220.12, 234.9",608.46,7.945545555,30.11361765,27.83653633,Passed,100.8806191,,,,,,,,,,,,,,,,,,,,training,4,1,180,right,s,,,,,424.8847,427.0842,30.29045296,0,9,1,0,0,2.1995,fixationPoint,427.0843,427.1842,427.1843,429.1843,30.29045296,8654.415132,521.4285117,s,1,1.9863,,429.1843,429.3842,,,,,,,,29,170,112,-20,220,-66,174,-65,27,-220,-128,-32,-112,-74,-124,80,-114,175,-224,220,-120,32,120,120,20,360,90,90,90,270,90,90,270,180,90,180,,,,,,,,,,,429.3843,429.385,,0,48,48,48,1,14,novel,,,,,,,,,,,,,,,,,,,,,,,,,,,,,,,,,,,,,,,,,,,,,,,,,
,,12,6,${e://Field/PROLIFIC_PID,F,18,2023-11-03_04h34.29.833,MouseEye_CC,2023.2.2,Win32,60.07449237,1.081801891,,,1920,1080,45.519999999999996,3.79,"219.51, 229.44, 224.8, 223.31, 215.43, 220.12, 234.9",608.46,7.945545555,30.11361765,27.83653633,Passed,100.8806191,,,,,,,,,,,,,,,,,,,,training,4,2,0,left,a,,,,,429.3854,429.6842,30.29045296,0,9,1,0,0,0.2987,fixationPoint,429.6843,429.7843,429.7844,430.7842,30.29045296,8654.415132,521.4285117,a,1,0.9861,,430.7843,430.9842,,,,,,,,22,-162,114,120,20,21,65,213,173,-32,-172,-17,-70,-220,-128,115,-17,163,-68,112,-125,-174,162,-213,64,90,180,180,180,360,360,270,90,180,90,180,,,,,,,,,,,430.9843,430.9843,,0,49,49,49,1,15,novel,,,,,,,,,,,,,,,,,,,,,,,,,,,,,,,,,,,,,,,,,,,,,,,,,
,,12,6,${e://Field/PROLIFIC_PID,F,18,2023-11-03_04h34.29.833,MouseEye_CC,2023.2.2,Win32,60.07449237,1.081801891,,,1920,1080,45.519999999999996,3.79,"219.51, 229.44, 224.8, 223.31, 215.43, 220.12, 234.9",608.46,7.945545555,30.11361765,27.83653633,Passed,100.8806191,,,,,,,,,,,,,,,,,,,,training,4,3,0,left,a,,,,,430.9846,431.2341,30.29045296,0,9,1,0,0,0.2494,fixationPoint,431.2342,431.3342,431.3342,436.4342,30.29045296,8654.415132,521.4285117,a,1,5.0865,,436.4342,436.6341,,,,,,,,17,72,169,-161,70,-166,31,-223,20,-220,-128,-17,-70,-70,-221,24,-19,80,-26,163,-68,211,215,221,26,90,270,270,270,90,270,270,180,90,360,90,,,,,,,,,,,436.6341,436.6343,,0,50,50,50,1,2,repeated,,,,,,,,,,,,,,,,,,,,,,,,,,,,,,,,,,,,,,,,,,,,,,,,,
,,12,6,${e://Field/PROLIFIC_PID,F,18,2023-11-03_04h34.29.833,MouseEye_CC,2023.2.2,Win32,60.07449237,1.081801891,,,1920,1080,45.519999999999996,3.79,"219.51, 229.44, 224.8, 223.31, 215.43, 220.12, 234.9",608.46,7.945545555,30.11361765,27.83653633,Passed,100.8806191,,,,,,,,,,,,,,,,,,,,training,4,4,180,right,s,,,,,436.6346,436.9841,30.29045296,-2,6,1,0,0,0.3494,fixationPoint,436.9841,437.0841,437.0842,439.7508,30.29045296,8654.415132,521.4285117,s,1,2.6547,,439.7508,439.9508,,,,,,,,87,75,-164,116,209,211,215,163,22,-73,124,-76,73,-32,72,-124,-172,-119,-79,-71,-32,173,-170,221,-172,180,180,180,270,180,360,180,180,90,180,360,,,,,,,,,,,439.9508,439.9509,,0,51,51,51,1,11,novel,,,,,,,,,,,,,,,,,,,,,,,,,,,,,,,,,,,,,,,,,,,,,,,,,
,,12,6,${e://Field/PROLIFIC_PID,F,18,2023-11-03_04h34.29.833,MouseEye_CC,2023.2.2,Win32,60.07449237,1.081801891,,,1920,1080,45.519999999999996,3.79,"219.51, 229.44, 224.8, 223.31, 215.43, 220.12, 234.9",608.46,7.945545555,30.11361765,27.83653633,Passed,100.8806191,,,,,,,,,,,,,,,,,,,,training,4,5,180,right,s,,,,,439.9512,440.1841,30.29045296,-1,6,1,0,0,0.2327,fixationPoint,440.1841,440.2841,440.2841,442.2675,30.29045296,8654.415132,521.4285117,s,1,1.9668,,442.2676,442.4674,,,,,,,,79,164,-113,21,65,210,120,73,126,-76,73,-161,70,-124,122,-166,-76,-124,-172,-119,-79,112,-70,175,-224,180,90,90,180,90,90,90,360,270,90,360,,,,,,,,,,,442.4674,442.4675,,0,52,52,52,1,7,repeated,,,,,,,,,,,,,,,,,,,,,,,,,,,,,,,,,,,,,,,,,,,,,,,,,
,,12,6,${e://Field/PROLIFIC_PID,F,18,2023-11-03_04h34.29.833,MouseEye_CC,2023.2.2,Win32,60.07449237,1.081801891,,,1920,1080,45.519999999999996,3.79,"219.51, 229.44, 224.8, 223.31, 215.43, 220.12, 234.9",608.46,7.945545555,30.11361765,27.83653633,Passed,100.8806191,,,,,,,,,,,,,,,,,,,,training,4,6,0,left,a,,,,,442.4678,442.6841,30.29045296,-1,6,1,0,0,0.2162,fixationPoint,442.6841,442.7841,442.7842,446.6008,30.29045296,8654.415132,521.4285117,a,1,3.8025,,446.6008,446.8006,,,,,,,,7,66,211,-223,20,-28,20,-223,117,-119,-79,-75,-165,-167,-167,27,-211,32,-113,112,-125,160,172,116,209,180,90,90,180,90,360,270,360,360,180,90,,,,,,,,,,,446.8007,446.8008,,0,53,53,53,1,13,novel,,,,,,,,,,,,,,,,,,,,,,,,,,,,,,,,,,,,,,,,,,,,,,,,,
,,12,6,${e://Field/PROLIFIC_PID,F,18,2023-11-03_04h34.29.833,MouseEye_CC,2023.2.2,Win32,60.07449237,1.081801891,,,1920,1080,45.519999999999996,3.79,"219.51, 229.44, 224.8, 223.31, 215.43, 220.12, 234.9",608.46,7.945545555,30.11361765,27.83653633,Passed,100.8806191,,,,,,,,,,,,,,,,,,,,training,4,7,0,left,a,,,,,446.8012,447.1008,30.29045296,-1,6,1,0,0,0.2995,fixationPoint,447.1008,447.2007,447.2008,448.4175,30.29045296,8654.415132,521.4285117,a,1,1.1994,,448.4175,448.6174,,,,,,,,49,163,22,-127,21,-28,20,-32,72,-162,-215,-17,-216,-17,-70,80,-114,19,-169,221,-172,124,170,210,120,90,360,360,270,180,360,270,360,270,360,180,,,,,,,,,,,448.6174,448.6175,,0,54,54,54,1,1,repeated,,,,,,,,,,,,,,,,,,,,,,,,,,,,,,,,,,,,,,,,,,,,,,,,,
,,12,6,${e://Field/PROLIFIC_PID,F,18,2023-11-03_04h34.29.833,MouseEye_CC,2023.2.2,Win32,60.07449237,1.081801891,,,1920,1080,45.519999999999996,3.79,"219.51, 229.44, 224.8, 223.31, 215.43, 220.12, 234.9",608.46,7.945545555,30.11361765,27.83653633,Passed,100.8806191,,,,,,,,,,,,,,,,,,,,training,4,8,180,right,s,,,,,448.6178,448.8507,30.29045296,-1,6,1,0,0,0.2328,fixationPoint,448.8508,448.9507,448.9507,451.6674,30.29045296,8654.415132,521.4285117,s,1,2.6992,,451.6675,451.8673,,,,,,,,97,71,-212,211,215,124,170,32,24,-28,20,-122,219,-223,20,-75,-165,-220,-128,-220,-20,173,-170,112,-125,270,360,90,270,90,90,360,270,180,180,270,,,,,,,,,,,451.8673,451.8674,,0,55,55,55,1,8,repeated,,,,,,,,,,,,,,,,,,,,,,,,,,,,,,,,,,,,,,,,,,,,,,,,,
,,12,6,${e://Field/PROLIFIC_PID,F,18,2023-11-03_04h34.29.833,MouseEye_CC,2023.2.2,Win32,60.07449237,1.081801891,,,1920,1080,45.519999999999996,3.79,"219.51, 229.44, 224.8, 223.31, 215.43, 220.12, 234.9",608.46,7.945545555,30.11361765,27.83653633,Passed,100.8806191,,,,,,,,,,,,,,,,,,,,training,4,9,0,left,a,,,,,451.8677,451.9507,30.29045296,-1,6,1,0,0,0.0829,fixationPoint,451.9507,452.0506,452.0507,454.1673,30.29045296,8654.415132,521.4285117,a,1,2.1106,,454.1673,454.3673,,,,,,,,14,-66,174,27,172,211,215,160,172,-20,-20,-220,-20,-79,-79,208,-220,80,-26,28,-78,-124,122,-120,77,270,360,270,270,360,360,90,360,90,360,360,,,,,,,,,,,454.3673,454.3675,,0,56,56,56,1,3,repeated,,,,,,,,,,,,,,,,,,,,,,,,,,,,,,,,,,,,,,,,,,,,,,,,,
,,12,6,${e://Field/PROLIFIC_PID,F,18,2023-11-03_04h34.29.833,MouseEye_CC,2023.2.2,Win32,60.07449237,1.081801891,,,1920,1080,45.519999999999996,3.79,"219.51, 229.44, 224.8, 223.31, 215.43, 220.12, 234.9",608.46,7.945545555,30.11361765,27.83653633,Passed,100.8806191,,,,,,,,,,,,,,,,,,,,training,4,10,0,left,a,,,,,454.3679,454.5674,30.29045296,-1,6,1,0,0,0.1994,fixationPoint,454.5674,454.6673,454.6673,456.8841,30.29045296,8654.415132,521.4285117,a,1,2.2026,,456.8841,457.084,,,,,,,,59,174,-16,112,128,213,173,211,215,-122,219,-73,124,-68,208,-121,-121,-124,-172,-168,-29,208,-220,28,-78,90,270,180,270,180,270,90,360,270,360,360,,,,,,,,,,,457.084,457.0841,,0,57,57,57,1,12,novel,,,,,,,,,,,,,,,,,,,,,,,,,,,,,,,,,,,,,,,,,,,,,,,,,
,,12,6,${e://Field/PROLIFIC_PID,F,18,2023-11-03_04h34.29.833,MouseEye_CC,2023.2.2,Win32,60.07449237,1.081801891,,,1920,1080,45.519999999999996,3.79,"219.51, 229.44, 224.8, 223.31, 215.43, 220.12, 234.9",608.46,7.945545555,30.11361765,27.83653633,Passed,100.8806191,,,,,,,,,,,,,,,,,,,,training,4,11,180,right,s,,,,,457.0844,457.3006,30.29045296,-1,6,1,0,0,0.2161,fixationPoint,457.3007,457.4006,457.4006,458.6675,30.29045296,8654.415132,521.4285117,s,1,1.2503,,458.6675,458.8672,,,,,,,,4,-68,208,32,24,27,172,72,169,-220,-80,-32,-112,-70,-221,120,-221,221,-172,213,-79,-219,220,-66,174,270,180,270,90,90,360,270,180,90,180,90,,,,,,,,,,,458.8673,458.8674,,0,58,58,58,1,16,novel,,,,,,,,,,,,,,,,,,,,,,,,,,,,,,,,,,,,,,,,,,,,,,,,,
,,12,6,${e://Field/PROLIFIC_PID,F,18,2023-11-03_04h34.29.833,MouseEye_CC,2023.2.2,Win32,60.07449237,1.081801891,,,1920,1080,45.519999999999996,3.79,"219.51, 229.44, 224.8, 223.31, 215.43, 220.12, 234.9",608.46,7.945545555,30.11361765,27.83653633,Passed,100.8806191,,,,,,,,,,,,,,,,,,,,training,4,12,0,left,a,,,,,458.8678,459.0672,30.29045296,-1,6,1,0,0,0.1993,fixationPoint,459.0673,459.1672,459.1673,461.7674,30.29045296,8654.415132,521.4285117,a,1,2.5826,,461.7674,461.9672,,,,,,,,52,-168,-29,66,211,210,120,213,173,-122,168,-124,122,-22,165,120,-221,27,-211,173,-170,-17,-216,-216,-224,360,90,180,360,180,90,90,270,360,360,180,,,,,,,,,,,461.9672,461.9674,,0,59,59,59,1,9,novel,,,,,,,,,,,,,,,,,,,,,,,,,,,,,,,,,,,,,,,,,,,,,,,,,
,,12,6,${e://Field/PROLIFIC_PID,F,18,2023-11-03_04h34.29.833,MouseEye_CC,2023.2.2,Win32,60.07449237,1.081801891,,,1920,1080,45.519999999999996,3.79,"219.51, 229.44, 224.8, 223.31, 215.43, 220.12, 234.9",608.46,7.945545555,30.11361765,27.83653633,Passed,100.8806191,,,,,,,,,,,,,,,,,,,,training,4,13,0,left,a,,,,,461.9677,462.1506,30.29045296,-1,6,1,0,0,0.1827,fixationPoint,462.1506,462.2505,462.2505,464.3339,30.29045296,8654.415132,521.4285117,a,1,2.073,,464.3339,464.5338,,,,,,,,94,-70,-221,213,173,27,172,120,20,-122,219,-174,162,-73,124,173,-170,80,-26,213,-79,-74,-124,-116,-219,360,360,90,180,360,180,270,270,180,180,270,,,,,,,,,,,464.5339,464.5339,,0,60,60,60,1,5,repeated,,,,,,,,,,,,,,,,,,,,,,,,,,,,,,,,,,,,,,,,,,,,,,,,,
,,12,6,${e://Field/PROLIFIC_PID,F,18,2023-11-03_04h34.29.833,MouseEye_CC,2023.2.2,Win32,60.07449237,1.081801891,,,1920,1080,45.519999999999996,3.79,"219.51, 229.44, 224.8, 223.31, 215.43, 220.12, 234.9",608.46,7.945545555,30.11361765,27.83653633,Passed,100.8806191,,,,,,,,,,,,,,,,,,,,training,4,14,180,right,s,,,,,464.5342,464.6338,30.29045296,-1,6,1,0,0,0.0996,fixationPoint,464.6339,464.7338,464.7339,465.9839,30.29045296,8654.415132,521.4285117,s,1,1.2403,,465.984,466.1838,,,,,,,,72,-164,-114,72,169,211,215,172,64,-20,220,-223,20,-66,174,32,-113,27,-211,174,-16,-20,-20,-220,-80,180,360,360,360,90,180,180,180,270,90,180,,,,,,,,,,,466.1838,466.1839,,0,61,61,61,1,6,repeated,,,,,,,,,,,,,,,,,,,,,,,,,,,,,,,,,,,,,,,,,,,,,,,,,
,,12,6,${e://Field/PROLIFIC_PID,F,18,2023-11-03_04h34.29.833,MouseEye_CC,2023.2.2,Win32,60.07449237,1.081801891,,,1920,1080,45.519999999999996,3.79,"219.51, 229.44, 224.8, 223.31, 215.43, 220.12, 234.9",608.46,7.945545555,30.11361765,27.83653633,Passed,100.8806191,,,,,,,,,,,,,,,,,,,,training,4,15,180,right,s,,,,,466.1842,466.3005,30.29045296,-1,6,1,0,0,0.1162,fixationPoint,466.3006,466.4005,466.4006,469.2338,30.29045296,8654.415132,521.4285117,s,1,2.8233,,469.2338,469.4338,,,,,,,,42,-166,31,163,22,32,24,174,222,-167,-167,-20,-20,-17,-216,115,-17,75,-164,112,-125,-26,123,-76,73,360,360,270,270,180,90,360,180,90,360,270,,,,,,,,,,,469.4338,469.434,,0,62,62,62,1,4,repeated,,,,,,,,,,,,,,,,,,,,,,,,,,,,,,,,,,,,,,,,,,,,,,,,,
,,12,6,${e://Field/PROLIFIC_PID,F,18,2023-11-03_04h34.29.833,MouseEye_CC,2023.2.2,Win32,60.07449237,1.081801891,,,1920,1080,45.519999999999996,3.79,"219.51, 229.44, 224.8, 223.31, 215.43, 220.12, 234.9",608.46,7.945545555,30.11361765,27.83653633,Passed,100.8806191,,,,,,,,,,,,,,,,,,,,training,4,16,180,right,s,,,,,469.4343,469.5171,30.29045296,-1,6,1,0,0,0.0827,fixationPoint,469.5171,469.6171,469.6171,470.7838,30.29045296,8654.415132,521.4285117,s,1,1.1568,,470.7839,470.9837,,,,,,,,84,-75,-165,174,222,18,215,213,173,-65,27,-32,72,-223,20,112,-125,115,-17,116,-161,-124,-172,-162,-215,360,90,180,360,90,90,270,90,180,360,360,,,,,,,,,,,470.9838,471.9672,space,0,63,63,63,1,10,novel,0.9738,,,,,,,,,,,,,,,,,,,,,,,,,,,,,,,,,,,,,,,,,,,,,,,,
,,12,6,${e://Field/PROLIFIC_PID,F,18,2023-11-03_04h34.29.833,MouseEye_CC,2023.2.2,Win32,60.07449237,1.081801891,,,1920,1080,45.519999999999996,3.79,"219.51, 229.44, 224.8, 223.31, 215.43, 220.12, 234.9",608.46,7.945545555,30.11361765,27.83653633,Passed,100.8806191,,,,,,,,,,,,,,,,,,,,training,5,1,180,right,s,,,,,471.9675,472.8004,30.29045296,-1,5,1,0,0,0.8328,fixationPoint,472.8004,472.9004,472.9004,475.5337,30.29045296,8654.415132,521.4285117,s,1,2.6233,,475.5338,475.7337,,,,,,,,29,170,112,-219,220,-22,165,-161,70,-216,-168,-20,-20,-166,-76,115,-17,175,-224,163,-68,160,172,32,24,360,270,360,270,180,90,270,270,270,360,270,,,,,,,,,,,475.7338,475.7348,,0,64,64,64,1,14,novel,,,,,,,,,,,,,,,,,,,,,,,,,,,,,,,,,,,,,,,,,,,,,,,,,
,,12,6,${e://Field/PROLIFIC_PID,F,18,2023-11-03_04h34.29.833,MouseEye_CC,2023.2.2,Win32,60.07449237,1.081801891,,,1920,1080,45.519999999999996,3.79,"219.51, 229.44, 224.8, 223.31, 215.43, 220.12, 234.9",608.46,7.945545555,30.11361765,27.83653633,Passed,100.8806191,,,,,,,,,,,,,,,,,,,,training,5,2,180,right,s,,,,,475.735,475.9004,30.29045296,-1,3,1,0,0,0.1653,fixationPoint,475.9004,476.0005,476.0005,478.2171,30.29045296,8654.415132,521.4285117,s,1,2.1993,,478.2171,478.4171,,,,,,,,84,-75,-165,73,71,163,22,174,222,-127,21,-222,168,-223,20,75,-71,75,-164,24,-19,-70,-221,-119,-79,270,90,360,360,270,180,360,360,90,270,90,,,,,,,,,,,478.4171,478.4172,,0,65,65,65,1,10,novel,,,,,,,,,,,,,,,,,,,,,,,,,,,,,,,,,,,,,,,,,,,,,,,,,
,,12,6,${e://Field/PROLIFIC_PID,F,18,2023-11-03_04h34.29.833,MouseEye_CC,2023.2.2,Win32,60.07449237,1.081801891,,,1920,1080,45.519999999999996,3.79,"219.51, 229.44, 224.8, 223.31, 215.43, 220.12, 234.9",608.46,7.945545555,30.11361765,27.83653633,Passed,100.8806191,,,,,,,,,,,,,,,,,,,,training,5,3,0,left,a,,,,,478.4175,478.5003,30.29045296,-1,3,1,0,0,0.0827,fixationPoint,478.5003,478.6004,478.6004,480.367,30.29045296,8654.415132,521.4285117,a,1,1.7492,,480.3671,480.567,,,,,,,,79,164,-113,21,65,210,120,73,126,-76,73,-161,70,-124,122,-166,-76,-124,-172,-119,-79,112,-70,175,-224,270,90,360,180,90,180,360,270,90,360,180,,,,,,,,,,,480.567,480.5671,,0,66,66,66,1,7,repeated,,,,,,,,,,,,,,,,,,,,,,,,,,,,,,,,,,,,,,,,,,,,,,,,,
,,12,6,${e://Field/PROLIFIC_PID,F,18,2023-11-03_04h34.29.833,MouseEye_CC,2023.2.2,Win32,60.07449237,1.081801891,,,1920,1080,45.519999999999996,3.79,"219.51, 229.44, 224.8, 223.31, 215.43, 220.12, 234.9",608.46,7.945545555,30.11361765,27.83653633,Passed,100.8806191,,,,,,,,,,,,,,,,,,,,training,5,4,180,right,s,,,,,480.5674,480.8003,30.29045296,-1,3,1,0,0,0.2328,fixationPoint,480.8004,480.9003,480.9004,482.7171,30.29045296,8654.415132,521.4285117,s,1,1.8096,,482.7171,482.917,,,,,,,,17,72,169,-161,70,-166,31,-223,20,-220,-128,-17,-70,-70,-221,24,-19,80,-26,163,-68,211,215,221,26,180,180,180,90,180,360,90,360,90,90,180,,,,,,,,,,,482.917,482.9171,,0,67,67,67,1,2,repeated,,,,,,,,,,,,,,,,,,,,,,,,,,,,,,,,,,,,,,,,,,,,,,,,,
,,12,6,${e://Field/PROLIFIC_PID,F,18,2023-11-03_04h34.29.833,MouseEye_CC,2023.2.2,Win32,60.07449237,1.081801891,,,1920,1080,45.519999999999996,3.79,"219.51, 229.44, 224.8, 223.31, 215.43, 220.12, 234.9",608.46,7.945545555,30.11361765,27.83653633,Passed,100.8806191,,,,,,,,,,,,,,,,,,,,training,5,5,180,right,s,,,,,482.9175,483.1003,30.29045296,-1,3,1,0,0,0.1828,fixationPoint,483.1003,483.2003,483.2003,487.117,30.29045296,8654.415132,521.4285117,s,1,3.9,,487.117,487.3172,,,,,,,,14,-66,174,27,172,211,215,160,172,-20,-20,-220,-20,-79,-79,208,-220,80,-26,28,-78,-124,122,-120,77,270,180,90,360,360,180,180,180,270,90,270,,,,,,,,,,,487.3172,487.3173,,0,68,68,68,1,3,repeated,,,,,,,,,,,,,,,,,,,,,,,,,,,,,,,,,,,,,,,,,,,,,,,,,
,,12,6,${e://Field/PROLIFIC_PID,F,18,2023-11-03_04h34.29.833,MouseEye_CC,2023.2.2,Win32,60.07449237,1.081801891,,,1920,1080,45.519999999999996,3.79,"219.51, 229.44, 224.8, 223.31, 215.43, 220.12, 234.9",608.46,7.945545555,30.11361765,27.83653633,Passed,100.8806191,,,,,,,,,,,,,,,,,,,,training,5,6,180,right,s,,,,,487.3175,487.567,30.29045296,1,-15,1,0,0,0.2494,fixationPoint,487.5671,487.6669,487.667,490.2171,30.29045296,8654.415132,521.4285117,s,1,2.544,,490.2171,490.4169,,,,,,,,49,163,22,-127,21,-28,20,-32,72,-162,-215,-17,-216,-17,-70,80,-114,19,-169,221,-172,124,170,210,120,360,360,180,180,180,360,90,360,180,90,180,,,,,,,,,,,490.4169,490.4171,,0,69,69,69,1,1,repeated,,,,,,,,,,,,,,,,,,,,,,,,,,,,,,,,,,,,,,,,,,,,,,,,,
,,12,6,${e://Field/PROLIFIC_PID,F,18,2023-11-03_04h34.29.833,MouseEye_CC,2023.2.2,Win32,60.07449237,1.081801891,,,1920,1080,45.519999999999996,3.79,"219.51, 229.44, 224.8, 223.31, 215.43, 220.12, 234.9",608.46,7.945545555,30.11361765,27.83653633,Passed,100.8806191,,,,,,,,,,,,,,,,,,,,training,5,7,0,left,a,,,,,490.4175,490.6837,30.29045296,0,-7,1,0,0,0.2661,fixationPoint,490.6838,490.7837,490.7837,496.8003,30.29045296,8654.415132,521.4285117,a,1,6.001,,496.8004,497.0001,,,,,,,,22,-162,114,221,80,210,120,221,26,-166,-76,-32,-112,-119,-79,80,-114,24,-19,112,-125,-73,124,-161,70,270,360,270,90,360,360,90,90,90,360,360,,,,,,,,,,,497.0002,497.0003,,0,70,70,70,1,15,novel,,,,,,,,,,,,,,,,,,,,,,,,,,,,,,,,,,,,,,,,,,,,,,,,,
,,12,6,${e://Field/PROLIFIC_PID,F,18,2023-11-03_04h34.29.833,MouseEye_CC,2023.2.2,Win32,60.07449237,1.081801891,,,1920,1080,45.519999999999996,3.79,"219.51, 229.44, 224.8, 223.31, 215.43, 220.12, 234.9",608.46,7.945545555,30.11361765,27.83653633,Passed,100.8806191,,,,,,,,,,,,,,,,,,,,training,5,8,0,left,a,,,,,497.0007,497.2668,30.29045296,0,-7,1,0,0,0.2661,fixationPoint,497.2668,497.3669,497.3669,499.1002,30.29045296,8654.415132,521.4285117,a,1,1.7194,,499.1003,499.3001,,,,,,,,94,-70,-221,213,173,27,172,120,20,-122,219,-174,162,-73,124,173,-170,80,-26,213,-79,-74,-124,-116,-219,90,180,180,360,180,90,90,360,360,360,270,,,,,,,,,,,499.3001,499.3003,,0,71,71,71,1,5,repeated,,,,,,,,,,,,,,,,,,,,,,,,,,,,,,,,,,,,,,,,,,,,,,,,,
,,12,6,${e://Field/PROLIFIC_PID,F,18,2023-11-03_04h34.29.833,MouseEye_CC,2023.2.2,Win32,60.07449237,1.081801891,,,1920,1080,45.519999999999996,3.79,"219.51, 229.44, 224.8, 223.31, 215.43, 220.12, 234.9",608.46,7.945545555,30.11361765,27.83653633,Passed,100.8806191,,,,,,,,,,,,,,,,,,,,training,5,9,0,left,a,,,,,499.3005,499.4169,30.29045296,0,-7,1,0,0,0.1162,fixationPoint,499.417,499.5168,499.5168,500.8003,30.29045296,8654.415132,521.4285117,a,1,1.2697,,500.8003,501.0002,,,,,,,,52,-168,-29,27,172,72,169,174,222,-26,123,-76,73,-223,117,27,-211,28,-78,19,-169,-32,-172,-166,-76,180,90,270,90,90,360,90,270,360,360,90,,,,,,,,,,,501.0003,501.0004,,0,72,72,72,1,9,novel,,,,,,,,,,,,,,,,,,,,,,,,,,,,,,,,,,,,,,,,,,,,,,,,,
,,12,6,${e://Field/PROLIFIC_PID,F,18,2023-11-03_04h34.29.833,MouseEye_CC,2023.2.2,Win32,60.07449237,1.081801891,,,1920,1080,45.519999999999996,3.79,"219.51, 229.44, 224.8, 223.31, 215.43, 220.12, 234.9",608.46,7.945545555,30.11361765,27.83653633,Passed,100.8806191,,,,,,,,,,,,,,,,,,,,training,5,10,0,left,a,,,,,501.0006,501.2834,30.29045296,0,-7,1,0,0,0.2828,fixationPoint,501.2834,501.3834,501.3835,502.4004,30.29045296,8654.415132,521.4285117,a,1,1.003,,502.4005,502.6001,,,,,,,,42,-166,31,163,22,32,24,174,222,-167,-167,-20,-20,-17,-216,115,-17,75,-164,112,-125,-26,123,-76,73,270,180,270,180,360,360,180,270,90,180,270,,,,,,,,,,,502.6001,502.6002,,0,73,73,73,1,4,repeated,,,,,,,,,,,,,,,,,,,,,,,,,,,,,,,,,,,,,,,,,,,,,,,,,
,,12,6,${e://Field/PROLIFIC_PID,F,18,2023-11-03_04h34.29.833,MouseEye_CC,2023.2.2,Win32,60.07449237,1.081801891,,,1920,1080,45.519999999999996,3.79,"219.51, 229.44, 224.8, 223.31, 215.43, 220.12, 234.9",608.46,7.945545555,30.11361765,27.83653633,Passed,100.8806191,,,,,,,,,,,,,,,,,,,,training,5,11,180,right,s,,,,,502.6005,502.717,30.29045296,0,-7,1,0,0,0.1163,fixationPoint,502.7171,502.8168,502.8168,504.2835,30.29045296,8654.415132,521.4285117,s,1,1.4522,,504.2836,504.4834,,,,,,,,7,66,211,-76,73,-174,162,-122,168,-20,-20,-70,-221,-167,-167,71,-212,163,-68,32,-113,124,170,27,172,360,90,180,360,180,90,270,180,360,90,270,,,,,,,,,,,504.4834,504.4835,,0,74,74,74,1,13,novel,,,,,,,,,,,,,,,,,,,,,,,,,,,,,,,,,,,,,,,,,,,,,,,,,
,,12,6,${e://Field/PROLIFIC_PID,F,18,2023-11-03_04h34.29.833,MouseEye_CC,2023.2.2,Win32,60.07449237,1.081801891,,,1920,1080,45.519999999999996,3.79,"219.51, 229.44, 224.8, 223.31, 215.43, 220.12, 234.9",608.46,7.945545555,30.11361765,27.83653633,Passed,100.8806191,,,,,,,,,,,,,,,,,,,,training,5,12,180,right,s,,,,,504.4839,504.7168,30.29045296,1,-7,1,0,0,0.2328,fixationPoint,504.7168,504.8169,504.817,505.7001,30.29045296,8654.415132,521.4285117,s,1,0.8713,,505.7002,505.9002,,,,,,,,4,-68,208,32,24,174,222,221,26,-116,-219,-220,-128,-124,-172,221,-172,80,-114,173,-170,-223,20,-28,20,360,90,180,270,270,270,360,90,90,90,90,,,,,,,,,,,505.9002,505.9003,,0,75,75,75,1,16,novel,,,,,,,,,,,,,,,,,,,,,,,,,,,,,,,,,,,,,,,,,,,,,,,,,
,,12,6,${e://Field/PROLIFIC_PID,F,18,2023-11-03_04h34.29.833,MouseEye_CC,2023.2.2,Win32,60.07449237,1.081801891,,,1920,1080,45.519999999999996,3.79,"219.51, 229.44, 224.8, 223.31, 215.43, 220.12, 234.9",608.46,7.945545555,30.11361765,27.83653633,Passed,100.8806191,,,,,,,,,,,,,,,,,,,,training,5,13,0,left,a,,,,,505.9007,506.1836,30.29045296,1,-7,1,0,0,0.2828,fixationPoint,506.1837,506.284,506.2841,507.9169,30.29045296,8654.415132,521.4285117,a,1,1.6122,,507.9169,508.1168,,,,,,,,72,-164,-114,72,169,211,215,172,64,-20,220,-223,20,-66,174,32,-113,27,-211,174,-16,-20,-20,-220,-80,180,270,90,90,270,90,270,180,90,270,270,,,,,,,,,,,508.1168,508.1169,,0,76,76,76,1,6,repeated,,,,,,,,,,,,,,,,,,,,,,,,,,,,,,,,,,,,,,,,,,,,,,,,,
,,12,6,${e://Field/PROLIFIC_PID,F,18,2023-11-03_04h34.29.833,MouseEye_CC,2023.2.2,Win32,60.07449237,1.081801891,,,1920,1080,45.519999999999996,3.79,"219.51, 229.44, 224.8, 223.31, 215.43, 220.12, 234.9",608.46,7.945545555,30.11361765,27.83653633,Passed,100.8806191,,,,,,,,,,,,,,,,,,,,training,5,14,0,left,a,,,,,508.1172,508.2502,30.29045296,1,-7,1,0,0,0.133,fixationPoint,508.2502,508.35,508.3501,513.3167,30.29045296,8654.415132,521.4285117,a,1,4.9493,,513.3168,513.5166,,,,,,,,59,174,-16,163,22,210,120,213,173,-219,220,-65,27,-127,21,-116,-219,-71,-32,-216,-224,28,-78,80,-114,90,360,90,90,180,90,270,90,360,90,90,,,,,,,,,,,513.5167,513.5168,,0,77,77,77,1,12,novel,,,,,,,,,,,,,,,,,,,,,,,,,,,,,,,,,,,,,,,,,,,,,,,,,
,,12,6,${e://Field/PROLIFIC_PID,F,18,2023-11-03_04h34.29.833,MouseEye_CC,2023.2.2,Win32,60.07449237,1.081801891,,,1920,1080,45.519999999999996,3.79,"219.51, 229.44, 224.8, 223.31, 215.43, 220.12, 234.9",608.46,7.945545555,30.11361765,27.83653633,Passed,100.8806191,,,,,,,,,,,,,,,,,,,,training,5,15,180,right,s,,,,,513.5171,513.75,30.29045296,1,-7,1,0,0,0.2328,fixationPoint,513.7501,513.8501,513.8502,516.1834,30.29045296,8654.415132,521.4285117,s,1,2.3202,,516.1834,516.3834,,,,,,,,87,75,-164,72,169,124,170,73,71,-122,219,-76,73,-26,123,-216,-224,-166,-76,-32,-112,208,-28,71,-212,270,90,270,90,90,90,180,270,360,90,360,,,,,,,,,,,516.3835,516.3836,,0,78,78,78,1,11,novel,,,,,,,,,,,,,,,,,,,,,,,,,,,,,,,,,,,,,,,,,,,,,,,,,
,,12,6,${e://Field/PROLIFIC_PID,F,18,2023-11-03_04h34.29.833,MouseEye_CC,2023.2.2,Win32,60.07449237,1.081801891,,,1920,1080,45.519999999999996,3.79,"219.51, 229.44, 224.8, 223.31, 215.43, 220.12, 234.9",608.46,7.945545555,30.11361765,27.83653633,Passed,100.8806191,,,,,,,,,,,,,,,,,,,,training,5,16,0,left,a,,,,,516.3839,516.4834,30.29045296,1,-7,1,0,0,0.0995,fixationPoint,516.4834,516.5834,516.5835,518.6,30.29045296,8654.415132,521.4285117,a,1,2.0026,,518.6002,518.8,,,,,,,,97,71,-212,211,215,124,170,32,24,-28,20,-122,219,-223,20,-75,-165,-220,-128,-220,-20,173,-170,112,-125,270,360,90,90,90,360,90,90,360,180,360,,,,,,,,,,,518.8,519.9001,space,0,79,79,79,1,8,repeated,1.082,,,,,,,,,,,,,,,,,,,,,,,,,,,,,,,,,,,,,,,,,,,,,,,,
,,12,6,${e://Field/PROLIFIC_PID,F,18,2023-11-03_04h34.29.833,MouseEye_CC,2023.2.2,Win32,60.07449237,1.081801891,,,1920,1080,45.519999999999996,3.79,"219.51, 229.44, 224.8, 223.31, 215.43, 220.12, 234.9",608.46,7.945545555,30.11361765,27.83653633,Passed,100.8806191,,,,,,,,,,,,,,,,,,,,training,6,1,180,right,s,,,,,519.9004,520.6166,30.29045296,1,-7,1,0,0,0.7161,fixationPoint,520.6167,520.7168,520.7168,523.2667,30.29045296,8654.415132,521.4285117,s,1,2.5442,,523.2667,523.4665,,,,,,,,49,163,22,-127,21,-28,20,-32,72,-162,-215,-17,-216,-17,-70,80,-114,19,-169,221,-172,124,170,210,120,90,180,90,360,360,180,90,360,180,360,90,,,,,,,,,,,523.4665,523.4674,,0,80,80,80,1,1,repeated,,,,,,,,,,,,,,,,,,,,,,,,,,,,,,,,,,,,,,,,,,,,,,,,,
,,12,6,${e://Field/PROLIFIC_PID,F,18,2023-11-03_04h34.29.833,MouseEye_CC,2023.2.2,Win32,60.07449237,1.081801891,,,1920,1080,45.519999999999996,3.79,"219.51, 229.44, 224.8, 223.31, 215.43, 220.12, 234.9",608.46,7.945545555,30.11361765,27.83653633,Passed,100.8806191,,,,,,,,,,,,,,,,,,,,training,6,2,0,left,a,,,,,523.4677,523.7666,30.29045296,0,-7,1,0,0,0.2988,fixationPoint,523.7666,523.8667,523.8668,526.4166,30.29045296,8654.415132,521.4285117,a,1,2.5442,,526.4167,526.6167,,,,,,,,4,-68,208,221,26,170,112,116,209,-116,-219,-167,-167,-74,-124,213,-79,75,-164,173,-170,-223,117,-219,220,180,270,270,270,180,270,90,90,90,360,180,,,,,,,,,,,526.6167,526.6168,,0,81,81,81,1,16,novel,,,,,,,,,,,,,,,,,,,,,,,,,,,,,,,,,,,,,,,,,,,,,,,,,
,,12,6,${e://Field/PROLIFIC_PID,F,18,2023-11-03_04h34.29.833,MouseEye_CC,2023.2.2,Win32,60.07449237,1.081801891,,,1920,1080,45.519999999999996,3.79,"219.51, 229.44, 224.8, 223.31, 215.43, 220.12, 234.9",608.46,7.945545555,30.11361765,27.83653633,Passed,100.8806191,,,,,,,,,,,,,,,,,,,,training,6,3,0,left,a,,,,,526.6171,526.8832,30.29045296,0,-7,1,0,0,0.2659,fixationPoint,526.8833,526.9832,526.9832,530.0332,30.29045296,8654.415132,521.4285117,a,1,3.0398,,530.0332,530.2332,,,,,,,,42,-166,31,163,22,32,24,174,222,-167,-167,-20,-20,-17,-216,115,-17,75,-164,112,-125,-26,123,-76,73,180,180,180,270,90,90,180,90,180,270,180,,,,,,,,,,,530.2332,530.2333,,0,82,82,82,1,4,repeated,,,,,,,,,,,,,,,,,,,,,,,,,,,,,,,,,,,,,,,,,,,,,,,,,
,,12,6,${e://Field/PROLIFIC_PID,F,18,2023-11-03_04h34.29.833,MouseEye_CC,2023.2.2,Win32,60.07449237,1.081801891,,,1920,1080,45.519999999999996,3.79,"219.51, 229.44, 224.8, 223.31, 215.43, 220.12, 234.9",608.46,7.945545555,30.11361765,27.83653633,Passed,100.8806191,,,,,,,,,,,,,,,,,,,,training,6,4,0,left,a,,,,,530.2337,530.5498,30.29045296,0,-7,1,0,0,0.316,fixationPoint,530.5499,530.6499,530.6499,538.0164,30.29045296,8654.415132,521.4285117,a,1,7.3603,,538.0165,538.2165,,,,,,,,52,-168,-29,211,215,72,169,32,24,-127,21,-20,220,-66,174,19,-169,213,-79,24,-19,-71,-32,-75,-165,180,270,90,360,180,270,180,270,180,90,270,,,,,,,,,,,538.2166,538.2166,,0,83,83,83,1,9,novel,,,,,,,,,,,,,,,,,,,,,,,,,,,,,,,,,,,,,,,,,,,,,,,,,
,,12,6,${e://Field/PROLIFIC_PID,F,18,2023-11-03_04h34.29.833,MouseEye_CC,2023.2.2,Win32,60.07449237,1.081801891,,,1920,1080,45.519999999999996,3.79,"219.51, 229.44, 224.8, 223.31, 215.43, 220.12, 234.9",608.46,7.945545555,30.11361765,27.83653633,Passed,100.8806191,,,,,,,,,,,,,,,,,,,,training,6,5,0,left,a,,,,,538.2169,538.4997,30.29045296,-2,-13,1,0,0,0.2827,fixationPoint,538.4997,538.5998,538.5999,541.5165,30.29045296,8654.415132,521.4285117,a,1,2.9111,,541.5165,541.7164,,,,,,,,87,75,-164,170,112,21,65,221,26,-66,174,-76,73,-219,220,-71,-32,-121,-121,-220,-20,112,-70,173,-170,90,90,270,180,90,360,180,90,90,90,360,,,,,,,,,,,541.7164,541.7167,,0,84,84,84,1,11,novel,,,,,,,,,,,,,,,,,,,,,,,,,,,,,,,,,,,,,,,,,,,,,,,,,
,,12,6,${e://Field/PROLIFIC_PID,F,18,2023-11-03_04h34.29.833,MouseEye_CC,2023.2.2,Win32,60.07449237,1.081801891,,,1920,1080,45.519999999999996,3.79,"219.51, 229.44, 224.8, 223.31, 215.43, 220.12, 234.9",608.46,7.945545555,30.11361765,27.83653633,Passed,100.8806191,,,,,,,,,,,,,,,,,,,,training,6,6,180,right,s,,,,,541.7169,541.8165,30.29045296,-2,-13,1,0,0,0.0993,fixationPoint,541.8165,541.9163,541.9164,544.2831,30.29045296,8654.415132,521.4285117,s,1,2.3567,,544.2831,544.483,,,,,,,,72,-164,-114,72,169,211,215,172,64,-20,220,-223,20,-66,174,32,-113,27,-211,174,-16,-20,-20,-220,-80,360,90,360,90,90,360,90,180,360,270,180,,,,,,,,,,,544.483,544.4831,,0,85,85,85,1,6,repeated,,,,,,,,,,,,,,,,,,,,,,,,,,,,,,,,,,,,,,,,,,,,,,,,,
,,12,6,${e://Field/PROLIFIC_PID,F,18,2023-11-03_04h34.29.833,MouseEye_CC,2023.2.2,Win32,60.07449237,1.081801891,,,1920,1080,45.519999999999996,3.79,"219.51, 229.44, 224.8, 223.31, 215.43, 220.12, 234.9",608.46,7.945545555,30.11361765,27.83653633,Passed,100.8806191,,,,,,,,,,,,,,,,,,,,training,6,7,180,right,s,,,,,544.4834,544.6998,30.29045296,-2,-13,1,0,0,0.2161,fixationPoint,544.6998,544.7997,544.7997,546.6163,30.29045296,8654.415132,521.4285117,s,1,1.7992,,546.6163,546.8163,,,,,,,,7,66,211,-122,168,-219,220,-20,220,-79,-79,-164,-114,-166,-76,75,-164,115,-17,75,-71,76,32,32,120,180,360,270,360,90,90,270,270,270,180,270,,,,,,,,,,,546.8163,546.8164,,0,86,86,86,1,13,novel,,,,,,,,,,,,,,,,,,,,,,,,,,,,,,,,,,,,,,,,,,,,,,,,,
,,12,6,${e://Field/PROLIFIC_PID,F,18,2023-11-03_04h34.29.833,MouseEye_CC,2023.2.2,Win32,60.07449237,1.081801891,,,1920,1080,45.519999999999996,3.79,"219.51, 229.44, 224.8, 223.31, 215.43, 220.12, 234.9",608.46,7.945545555,30.11361765,27.83653633,Passed,100.8806191,,,,,,,,,,,,,,,,,,,,training,6,8,0,left,a,,,,,546.8167,546.983,30.29045296,-2,-13,1,0,0,0.1661,fixationPoint,546.983,547.083,547.0831,549.433,30.29045296,8654.415132,521.4285117,a,1,2.3404,,549.4331,549.633,,,,,,,,97,71,-212,211,215,124,170,32,24,-28,20,-122,219,-223,20,-75,-165,-220,-128,-220,-20,173,-170,112,-125,360,90,360,270,360,270,270,90,270,360,270,,,,,,,,,,,549.633,549.6332,,0,87,87,87,1,8,repeated,,,,,,,,,,,,,,,,,,,,,,,,,,,,,,,,,,,,,,,,,,,,,,,,,
,,12,6,${e://Field/PROLIFIC_PID,F,18,2023-11-03_04h34.29.833,MouseEye_CC,2023.2.2,Win32,60.07449237,1.081801891,,,1920,1080,45.519999999999996,3.79,"219.51, 229.44, 224.8, 223.31, 215.43, 220.12, 234.9",608.46,7.945545555,30.11361765,27.83653633,Passed,100.8806191,,,,,,,,,,,,,,,,,,,,training,6,9,0,left,a,,,,,549.6334,549.8996,30.29045296,-2,-13,1,0,0,0.2661,fixationPoint,549.8997,549.9996,549.9996,554.933,30.29045296,8654.415132,521.4285117,a,1,4.9236,,554.9331,555.133,,,,,,,,22,-162,114,21,65,112,128,160,172,-167,-167,-71,-32,-75,-165,112,-125,173,-170,75,-71,-20,220,-73,124,270,360,360,360,180,180,360,90,180,180,360,,,,,,,,,,,555.1331,555.1332,,0,88,88,88,1,15,novel,,,,,,,,,,,,,,,,,,,,,,,,,,,,,,,,,,,,,,,,,,,,,,,,,
,,12,6,${e://Field/PROLIFIC_PID,F,18,2023-11-03_04h34.29.833,MouseEye_CC,2023.2.2,Win32,60.07449237,1.081801891,,,1920,1080,45.519999999999996,3.79,"219.51, 229.44, 224.8, 223.31, 215.43, 220.12, 234.9",608.46,7.945545555,30.11361765,27.83653633,Passed,100.8806191,,,,,,,,,,,,,,,,,,,,training,6,10,180,right,s,,,,,555.1335,555.233,30.29045296,-2,-13,1,0,0,0.0994,fixationPoint,555.2331,555.3329,555.3329,556.683,30.29045296,8654.415132,521.4285117,s,1,1.3397,,556.683,556.8829,,,,,,,,29,170,112,-32,72,-166,31,-76,73,-162,-215,-17,-70,-166,-76,75,-164,24,-19,115,-17,72,169,66,211,360,90,360,90,270,180,180,180,180,180,270,,,,,,,,,,,556.8829,556.883,,0,89,89,89,1,14,novel,,,,,,,,,,,,,,,,,,,,,,,,,,,,,,,,,,,,,,,,,,,,,,,,,
,,12,6,${e://Field/PROLIFIC_PID,F,18,2023-11-03_04h34.29.833,MouseEye_CC,2023.2.2,Win32,60.07449237,1.081801891,,,1920,1080,45.519999999999996,3.79,"219.51, 229.44, 224.8, 223.31, 215.43, 220.12, 234.9",608.46,7.945545555,30.11361765,27.83653633,Passed,100.8806191,,,,,,,,,,,,,,,,,,,,training,6,11,180,right,s,,,,,556.8833,557.033,30.29045296,-2,-13,1,0,0,0.1495,fixationPoint,557.033,557.1328,557.133,559.383,30.29045296,8654.415132,521.4285117,s,1,2.237,,559.383,559.5828,,,,,,,,59,174,-16,210,120,163,22,112,128,-73,124,-127,21,-162,114,-17,-216,-121,-121,-20,-20,173,-170,71,-212,360,270,180,360,270,90,270,360,270,90,270,,,,,,,,,,,559.5829,559.583,,0,90,90,90,1,12,novel,,,,,,,,,,,,,,,,,,,,,,,,,,,,,,,,,,,,,,,,,,,,,,,,,
,,12,6,${e://Field/PROLIFIC_PID,F,18,2023-11-03_04h34.29.833,MouseEye_CC,2023.2.2,Win32,60.07449237,1.081801891,,,1920,1080,45.519999999999996,3.79,"219.51, 229.44, 224.8, 223.31, 215.43, 220.12, 234.9",608.46,7.945545555,30.11361765,27.83653633,Passed,100.8806191,,,,,,,,,,,,,,,,,,,,training,6,12,180,right,s,,,,,559.5833,559.6996,30.29045296,-2,-13,1,0,0,0.1162,fixationPoint,559.6996,559.7995,559.7995,561.7995,30.29045296,8654.415132,521.4285117,s,1,1.986,,561.7996,561.9994,,,,,,,,79,164,-113,21,65,210,120,73,126,-76,73,-161,70,-124,122,-166,-76,-124,-172,-119,-79,112,-70,175,-224,270,270,180,360,180,360,90,270,360,360,360,,,,,,,,,,,561.9994,561.9996,,0,91,91,91,1,7,repeated,,,,,,,,,,,,,,,,,,,,,,,,,,,,,,,,,,,,,,,,,,,,,,,,,
,,12,6,${e://Field/PROLIFIC_PID,F,18,2023-11-03_04h34.29.833,MouseEye_CC,2023.2.2,Win32,60.07449237,1.081801891,,,1920,1080,45.519999999999996,3.79,"219.51, 229.44, 224.8, 223.31, 215.43, 220.12, 234.9",608.46,7.945545555,30.11361765,27.83653633,Passed,100.8806191,,,,,,,,,,,,,,,,,,,,training,6,13,180,right,s,,,,,561.9998,562.1329,30.29045296,-2,-13,1,0,0,0.1329,fixationPoint,562.1329,562.2328,562.2328,563.1162,30.29045296,8654.415132,521.4285117,s,1,0.8767,,563.1162,563.3162,,,,,,,,14,-66,174,27,172,211,215,160,172,-20,-20,-220,-20,-79,-79,208,-220,80,-26,28,-78,-124,122,-120,77,270,180,90,270,90,270,180,360,360,270,360,,,,,,,,,,,563.3162,563.3163,,0,92,92,92,1,3,repeated,,,,,,,,,,,,,,,,,,,,,,,,,,,,,,,,,,,,,,,,,,,,,,,,,
,,12,6,${e://Field/PROLIFIC_PID,F,18,2023-11-03_04h34.29.833,MouseEye_CC,2023.2.2,Win32,60.07449237,1.081801891,,,1920,1080,45.519999999999996,3.79,"219.51, 229.44, 224.8, 223.31, 215.43, 220.12, 234.9",608.46,7.945545555,30.11361765,27.83653633,Passed,100.8806191,,,,,,,,,,,,,,,,,,,,training,6,14,180,right,s,,,,,563.3166,563.6161,30.29045296,-2,-13,1,0,0,0.2994,fixationPoint,563.6161,563.7161,563.7162,565.3661,30.29045296,8654.415132,521.4285117,s,1,1.6339,,565.3661,565.5661,,,,,,,,94,-70,-221,213,173,27,172,120,20,-122,219,-174,162,-73,124,173,-170,80,-26,213,-79,-74,-124,-116,-219,90,270,270,270,360,180,360,90,270,270,270,,,,,,,,,,,565.5661,565.5662,,0,93,93,93,1,5,repeated,,,,,,,,,,,,,,,,,,,,,,,,,,,,,,,,,,,,,,,,,,,,,,,,,
,,12,6,${e://Field/PROLIFIC_PID,F,18,2023-11-03_04h34.29.833,MouseEye_CC,2023.2.2,Win32,60.07449237,1.081801891,,,1920,1080,45.519999999999996,3.79,"219.51, 229.44, 224.8, 223.31, 215.43, 220.12, 234.9",608.46,7.945545555,30.11361765,27.83653633,Passed,100.8806191,,,,,,,,,,,,,,,,,,,,training,6,15,0,left,a,,,,,565.5665,565.6161,30.29045296,-2,-13,1,0,0,0.0495,fixationPoint,565.6162,565.7161,565.7162,566.9329,30.29045296,8654.415132,521.4285117,a,1,1.2033,,566.933,567.1327,,,,,,,,84,-75,-165,116,209,221,80,76,32,-76,73,-127,21,-73,124,213,-79,28,-78,220,-120,-79,-79,-216,-224,270,90,180,90,90,90,270,360,90,180,90,,,,,,,,,,,567.1328,567.1328,,0,94,94,94,1,10,novel,,,,,,,,,,,,,,,,,,,,,,,,,,,,,,,,,,,,,,,,,,,,,,,,,
,,12,6,${e://Field/PROLIFIC_PID,F,18,2023-11-03_04h34.29.833,MouseEye_CC,2023.2.2,Win32,60.07449237,1.081801891,,,1920,1080,45.519999999999996,3.79,"219.51, 229.44, 224.8, 223.31, 215.43, 220.12, 234.9",608.46,7.945545555,30.11361765,27.83653633,Passed,100.8806191,,,,,,,,,,,,,,,,,,,,training,6,16,0,left,a,,,,,567.1331,567.2994,30.29045296,-2,-13,1,0,0,0.1662,fixationPoint,567.2995,567.3994,567.3995,571.2996,30.29045296,8654.415132,521.4285117,a,1,3.8867,,571.2997,571.4995,,,,,,,,17,72,169,-161,70,-166,31,-223,20,-220,-128,-17,-70,-70,-221,24,-19,80,-26,163,-68,211,215,221,26,270,90,90,270,180,360,180,90,360,180,90,,,,,,,,,,,571.4996,575.9328,space,0,95,95,95,1,2,repeated,4.4185,,,,,,,,,,,,,,,,,,,,,,,,,,,,,,,,,,,,,,,,,,,,,,,,
,,12,6,${e://Field/PROLIFIC_PID,F,18,2023-11-03_04h34.29.833,MouseEye_CC,2023.2.2,Win32,60.07449237,1.081801891,,,1920,1080,45.519999999999996,3.79,"219.51, 229.44, 224.8, 223.31, 215.43, 220.12, 234.9",608.46,7.945545555,30.11361765,27.83653633,Passed,100.8806191,,,,,,,,,,,,,,,,,,,,training,7,1,180,right,s,,,,,575.9383,576.9327,30.29045296,6,0,1,0,0,0.9943,fixationPoint,576.9328,577.0328,577.0328,578.6828,30.29045296,8654.415132,521.4285117,s,1,1.6399,,578.6828,578.8828,,,,,,,,87,75,-164,73,126,213,173,124,170,-161,70,-76,73,-68,208,-32,-112,-32,-172,-124,-172,71,-212,115,-17,360,270,360,180,360,270,180,180,180,360,90,,,,,,,,,,,578.8828,578.8836,,0,96,96,96,1,11,novel,,,,,,,,,,,,,,,,,,,,,,,,,,,,,,,,,,,,,,,,,,,,,,,,,
,,12,6,${e://Field/PROLIFIC_PID,F,18,2023-11-03_04h34.29.833,MouseEye_CC,2023.2.2,Win32,60.07449237,1.081801891,,,1920,1080,45.519999999999996,3.79,"219.51, 229.44, 224.8, 223.31, 215.43, 220.12, 234.9",608.46,7.945545555,30.11361765,27.83653633,Passed,100.8806191,,,,,,,,,,,,,,,,,,,,training,7,2,180,right,s,,,,,578.8838,578.9828,30.29045296,6,0,1,0,0,0.0989,fixationPoint,578.9829,579.0827,579.0827,581.066,30.29045296,8654.415132,521.4285117,s,1,1.9778,,581.0661,581.266,,,,,,,,49,163,22,-127,21,-28,20,-32,72,-162,-215,-17,-216,-17,-70,80,-114,19,-169,221,-172,124,170,210,120,270,360,180,90,360,90,180,90,270,270,360,,,,,,,,,,,581.2661,581.2662,,0,97,97,97,1,1,repeated,,,,,,,,,,,,,,,,,,,,,,,,,,,,,,,,,,,,,,,,,,,,,,,,,
,,12,6,${e://Field/PROLIFIC_PID,F,18,2023-11-03_04h34.29.833,MouseEye_CC,2023.2.2,Win32,60.07449237,1.081801891,,,1920,1080,45.519999999999996,3.79,"219.51, 229.44, 224.8, 223.31, 215.43, 220.12, 234.9",608.46,7.945545555,30.11361765,27.83653633,Passed,100.8806191,,,,,,,,,,,,,,,,,,,,training,7,3,0,left,a,,,,,581.2664,581.516,30.29045296,6,0,1,0,0,0.2494,fixationPoint,581.516,581.616,581.6161,585.0327,30.29045296,8654.415132,521.4285117,a,1,3.4025,,585.0328,585.2328,,,,,,,,59,174,-16,124,170,119,75,160,172,-213,64,-127,21,-219,220,-79,-79,-32,-172,-32,-112,28,-78,32,-113,180,180,270,270,270,360,360,180,360,180,90,,,,,,,,,,,585.2329,585.2331,,0,98,98,98,1,12,novel,,,,,,,,,,,,,,,,,,,,,,,,,,,,,,,,,,,,,,,,,,,,,,,,,
,,12,6,${e://Field/PROLIFIC_PID,F,18,2023-11-03_04h34.29.833,MouseEye_CC,2023.2.2,Win32,60.07449237,1.081801891,,,1920,1080,45.519999999999996,3.79,"219.51, 229.44, 224.8, 223.31, 215.43, 220.12, 234.9",608.46,7.945545555,30.11361765,27.83653633,Passed,100.8806191,,,,,,,,,,,,,,,,,,,,training,7,4,180,right,s,,,,,585.2334,585.416,30.29045296,6,0,1,0,0,0.1825,fixationPoint,585.416,585.5159,585.516,587.466,30.29045296,8654.415132,521.4285117,s,1,1.9325,,587.466,587.6659,,,,,,,,29,170,112,-120,77,-219,220,-169,216,-119,-79,-220,-20,-32,-172,115,-17,163,-68,208,-28,72,169,163,22,360,270,360,90,180,270,90,90,180,270,90,,,,,,,,,,,587.666,587.666,,0,99,99,99,1,14,novel,,,,,,,,,,,,,,,,,,,,,,,,,,,,,,,,,,,,,,,,,,,,,,,,,
,,12,6,${e://Field/PROLIFIC_PID,F,18,2023-11-03_04h34.29.833,MouseEye_CC,2023.2.2,Win32,60.07449237,1.081801891,,,1920,1080,45.519999999999996,3.79,"219.51, 229.44, 224.8, 223.31, 215.43, 220.12, 234.9",608.46,7.945545555,30.11361765,27.83653633,Passed,100.8806191,,,,,,,,,,,,,,,,,,,,training,7,5,0,left,a,,,,,587.6663,587.766,30.29045296,6,0,1,0,0,0.0995,fixationPoint,587.766,587.8659,587.8659,589.0327,30.29045296,8654.415132,521.4285117,a,1,1.1571,,589.0327,589.2326,,,,,,,,14,-66,174,27,172,211,215,160,172,-20,-20,-220,-20,-79,-79,208,-220,80,-26,28,-78,-124,122,-120,77,270,360,270,360,90,90,270,180,180,270,90,,,,,,,,,,,589.2326,589.2327,,0,100,100,100,1,3,repeated,,,,,,,,,,,,,,,,,,,,,,,,,,,,,,,,,,,,,,,,,,,,,,,,,
,,12,6,${e://Field/PROLIFIC_PID,F,18,2023-11-03_04h34.29.833,MouseEye_CC,2023.2.2,Win32,60.07449237,1.081801891,,,1920,1080,45.519999999999996,3.79,"219.51, 229.44, 224.8, 223.31, 215.43, 220.12, 234.9",608.46,7.945545555,30.11361765,27.83653633,Passed,100.8806191,,,,,,,,,,,,,,,,,,,,training,7,6,0,left,a,,,,,589.2329,589.4159,30.29045296,6,0,1,0,0,0.1828,fixationPoint,589.4159,589.5158,589.5158,590.4993,30.29045296,8654.415132,521.4285117,a,1,0.9697,,590.4993,590.6992,,,,,,,,4,-68,208,116,209,76,32,27,172,-79,-79,-74,-124,-220,-80,19,-169,175,-224,208,-28,-73,124,-127,21,360,180,270,270,270,180,180,270,180,360,270,,,,,,,,,,,590.6993,590.6995,,0,101,101,101,1,16,novel,,,,,,,,,,,,,,,,,,,,,,,,,,,,,,,,,,,,,,,,,,,,,,,,,
,,12,6,${e://Field/PROLIFIC_PID,F,18,2023-11-03_04h34.29.833,MouseEye_CC,2023.2.2,Win32,60.07449237,1.081801891,,,1920,1080,45.519999999999996,3.79,"219.51, 229.44, 224.8, 223.31, 215.43, 220.12, 234.9",608.46,7.945545555,30.11361765,27.83653633,Passed,100.8806191,,,,,,,,,,,,,,,,,,,,training,7,7,180,right,s,,,,,590.6997,590.8825,30.29045296,6,0,1,0,0,0.1827,fixationPoint,590.8826,590.9826,590.9826,591.8659,30.29045296,8654.415132,521.4285117,s,1,0.8669,,591.8659,592.0659,,,,,,,,7,66,211,-213,64,-32,72,-223,117,-167,-167,-220,-128,-168,-29,213,-79,112,-125,24,-19,213,173,76,32,270,270,270,270,180,90,270,180,270,90,270,,,,,,,,,,,592.0659,592.066,,0,102,102,102,1,13,novel,,,,,,,,,,,,,,,,,,,,,,,,,,,,,,,,,,,,,,,,,,,,,,,,,
,,12,6,${e://Field/PROLIFIC_PID,F,18,2023-11-03_04h34.29.833,MouseEye_CC,2023.2.2,Win32,60.07449237,1.081801891,,,1920,1080,45.519999999999996,3.79,"219.51, 229.44, 224.8, 223.31, 215.43, 220.12, 234.9",608.46,7.945545555,30.11361765,27.83653633,Passed,100.8806191,,,,,,,,,,,,,,,,,,,,training,7,8,180,right,s,,,,,592.0662,592.2325,30.29045296,6,0,1,0,0,0.1661,fixationPoint,592.2327,592.3325,592.3325,602.0162,30.29045296,8654.415132,521.4285117,s,1,9.6785,,602.0163,602.216,,,,,,,,84,-75,-165,18,215,76,32,116,209,-73,124,-66,174,-223,20,164,-113,80,-114,27,-211,-71,-32,-32,-172,180,270,90,90,360,360,270,360,270,360,270,,,,,,,,,,,602.216,602.2162,,0,103,103,103,1,10,novel,,,,,,,,,,,,,,,,,,,,,,,,,,,,,,,,,,,,,,,,,,,,,,,,,
,,12,6,${e://Field/PROLIFIC_PID,F,18,2023-11-03_04h34.29.833,MouseEye_CC,2023.2.2,Win32,60.07449237,1.081801891,,,1920,1080,45.519999999999996,3.79,"219.51, 229.44, 224.8, 223.31, 215.43, 220.12, 234.9",608.46,7.945545555,30.11361765,27.83653633,Passed,100.8806191,,,,,,,,,,,,,,,,,,,,training,7,9,0,left,a,,,,,602.2167,602.8492,30.29045296,22,17,1,0,0,0.2656,fixationPoint,602.8492,602.9493,602.9493,605.6659,30.29045296,8654.415132,521.4285117,a,1,2.711,,605.6659,605.8658,,,,,,,,22,-162,114,174,222,73,71,172,64,-32,-172,-220,-128,-124,-172,173,-170,28,-78,164,-113,-222,168,-76,73,270,270,180,90,180,270,90,270,270,90,360,,,,,,,,,,,605.8658,605.866,,0,104,104,104,1,15,novel,,,,,,,,,,,,,,,,,,,,,,,,,,,,,,,,,,,,,,,,,,,,,,,,,
,,12,6,${e://Field/PROLIFIC_PID,F,18,2023-11-03_04h34.29.833,MouseEye_CC,2023.2.2,Win32,60.07449237,1.081801891,,,1920,1080,45.519999999999996,3.79,"219.51, 229.44, 224.8, 223.31, 215.43, 220.12, 234.9",608.46,7.945545555,30.11361765,27.83653633,Passed,100.8806191,,,,,,,,,,,,,,,,,,,,training,7,10,0,left,a,,,,,605.8662,606.0491,30.29045296,6,-5,1,0,0,0.1827,fixationPoint,606.0492,606.1491,606.1491,608.1161,30.29045296,8654.415132,521.4285117,a,1,1.9491,,608.1162,608.3158,,,,,,,,94,-70,-221,213,173,27,172,120,20,-122,219,-174,162,-73,124,173,-170,80,-26,213,-79,-74,-124,-116,-219,360,180,360,90,180,270,180,90,360,90,180,,,,,,,,,,,608.3159,608.3162,,0,105,105,105,1,5,repeated,,,,,,,,,,,,,,,,,,,,,,,,,,,,,,,,,,,,,,,,,,,,,,,,,
,,12,6,${e://Field/PROLIFIC_PID,F,18,2023-11-03_04h34.29.833,MouseEye_CC,2023.2.2,Win32,60.07449237,1.081801891,,,1920,1080,45.519999999999996,3.79,"219.51, 229.44, 224.8, 223.31, 215.43, 220.12, 234.9",608.46,7.945545555,30.11361765,27.83653633,Passed,100.8806191,,,,,,,,,,,,,,,,,,,,training,7,11,180,right,s,,,,,608.3165,608.5824,30.29045296,6,-5,1,0,0,0.2657,fixationPoint,608.5824,608.6824,608.6825,609.4992,30.29045296,8654.415132,521.4285117,s,1,0.8022,,609.4992,609.699,,,,,,,,17,72,169,-161,70,-166,31,-223,20,-220,-128,-17,-70,-70,-221,24,-19,80,-26,163,-68,211,215,221,26,90,360,270,90,360,270,180,90,270,90,90,,,,,,,,,,,609.699,609.6992,,0,106,106,106,1,2,repeated,,,,,,,,,,,,,,,,,,,,,,,,,,,,,,,,,,,,,,,,,,,,,,,,,
,,12,6,${e://Field/PROLIFIC_PID,F,18,2023-11-03_04h34.29.833,MouseEye_CC,2023.2.2,Win32,60.07449237,1.081801891,,,1920,1080,45.519999999999996,3.79,"219.51, 229.44, 224.8, 223.31, 215.43, 220.12, 234.9",608.46,7.945545555,30.11361765,27.83653633,Passed,100.8806191,,,,,,,,,,,,,,,,,,,,training,7,12,0,left,a,,,,,609.6995,609.8324,30.29045296,3,-5,1,0,0,0.1328,fixationPoint,609.8325,609.9323,609.9323,612.4159,30.29045296,8654.415132,521.4285117,a,1,2.4781,,612.4159,612.6157,,,,,,,,79,164,-113,21,65,210,120,73,126,-76,73,-161,70,-124,122,-166,-76,-124,-172,-119,-79,112,-70,175,-224,180,180,270,270,180,360,180,180,360,270,90,,,,,,,,,,,612.6158,612.616,,0,107,107,107,1,7,repeated,,,,,,,,,,,,,,,,,,,,,,,,,,,,,,,,,,,,,,,,,,,,,,,,,
,,12,6,${e://Field/PROLIFIC_PID,F,18,2023-11-03_04h34.29.833,MouseEye_CC,2023.2.2,Win32,60.07449237,1.081801891,,,1920,1080,45.519999999999996,3.79,"219.51, 229.44, 224.8, 223.31, 215.43, 220.12, 234.9",608.46,7.945545555,30.11361765,27.83653633,Passed,100.8806191,,,,,,,,,,,,,,,,,,,,training,7,13,180,right,s,,,,,612.6162,612.7657,30.29045296,3,-5,1,0,0,0.1494,fixationPoint,612.7658,612.8658,612.8659,614.8992,30.29045296,8654.415132,521.4285117,s,1,2.0189,,614.8993,615.0993,,,,,,,,52,-168,-29,172,64,213,173,124,170,-223,20,-66,174,-28,20,75,-164,28,-78,112,-70,-20,-20,-166,-76,270,90,270,270,90,180,270,270,90,180,360,,,,,,,,,,,615.0993,615.0995,,0,108,108,108,1,9,novel,,,,,,,,,,,,,,,,,,,,,,,,,,,,,,,,,,,,,,,,,,,,,,,,,
,,12,6,${e://Field/PROLIFIC_PID,F,18,2023-11-03_04h34.29.833,MouseEye_CC,2023.2.2,Win32,60.07449237,1.081801891,,,1920,1080,45.519999999999996,3.79,"219.51, 229.44, 224.8, 223.31, 215.43, 220.12, 234.9",608.46,7.945545555,30.11361765,27.83653633,Passed,100.8806191,,,,,,,,,,,,,,,,,,,,training,7,14,0,left,a,,,,,615.0998,615.2491,30.29045296,2,-5,1,0,0,0.1491,fixationPoint,615.2492,615.349,615.3491,617.7657,30.29045296,8654.415132,521.4285117,a,1,2.4077,,617.7658,617.9657,,,,,,,,97,71,-212,211,215,124,170,32,24,-28,20,-122,219,-223,20,-75,-165,-220,-128,-220,-20,173,-170,112,-125,360,360,180,270,270,270,90,90,90,360,180,,,,,,,,,,,617.9657,617.9658,,0,109,109,109,1,8,repeated,,,,,,,,,,,,,,,,,,,,,,,,,,,,,,,,,,,,,,,,,,,,,,,,,
,,12,6,${e://Field/PROLIFIC_PID,F,18,2023-11-03_04h34.29.833,MouseEye_CC,2023.2.2,Win32,60.07449237,1.081801891,,,1920,1080,45.519999999999996,3.79,"219.51, 229.44, 224.8, 223.31, 215.43, 220.12, 234.9",608.46,7.945545555,30.11361765,27.83653633,Passed,100.8806191,,,,,,,,,,,,,,,,,,,,training,7,15,0,left,a,,,,,617.9661,618.0491,30.29045296,2,-6,1,0,0,0.0829,fixationPoint,618.0491,618.1491,618.1491,621.1322,30.29045296,8654.415132,521.4285117,a,1,2.9738,,621.1323,621.3322,,,,,,,,42,-166,31,163,22,32,24,174,222,-167,-167,-20,-20,-17,-216,115,-17,75,-164,112,-125,-26,123,-76,73,270,270,360,360,180,270,270,180,180,90,180,,,,,,,,,,,621.3323,621.3324,,0,110,110,110,1,4,repeated,,,,,,,,,,,,,,,,,,,,,,,,,,,,,,,,,,,,,,,,,,,,,,,,,
