InstrStartPage.started,InstrStartPage.stopped,participant,designid,prolificid,Gender,Age,date,expName,psychopyVersion,OS,frameRate,ratio_monitor2CRT,VirtualChinrest.started,VirtualChinrest.stopped,xRes,yRes,viewingdistance_cm,pixeldensity_px2mm,BallPos,squarePos,mm2degree,px2degree,CRT_px2degree,PassVirtualChinrest,foveaRadius_inPixel,InstrRedo.started,InstrRedo.stopped,VirtualChinrest_Redo.started,VirtualChinrest_Redo.stopped,Redo_virtualChinrest,Instruction1.started,Instruction1.stopped,keyPractice.started,keyPractice.stopped,key_keyprac.keys,key_keyprac.corr,key_keyprac.rt,key_keyprac.duration,keyPracFeedback.started,keyPracFeedback.stopped,keyPracLoop.thisRepN,keyPracLoop.thisTrialN,keyPracLoop.thisN,keyPracLoop.thisIndex,keyPracLoop.ran,phase,block,trial,targOrientdeg,targOrient,corrAnswer,Instruction2.started,Instruction2.stopped,Instruction3.started,Instruction3.stopped,fixation.started,fixation.stopped,fixationSize,mouseintial.x,mouseintial.y,mouseintial.leftButton,mouseintial.midButton,mouseintial.rightButton,mouseintial.time,mouseintial.clicked_name,greenFixation.started,greenFixation.stopped,trial.started,trial.stopped,letterSize,apertureSize,searchsize,key_respMain.keys,key_respMain.corr,key_respMain.rt,key_respMain.duration,trialFeedback.started,trialFeedback.stopped,trialsPractice.thisRepN,trialsPractice.thisTrialN,trialsPractice.thisN,trialsPractice.thisIndex,trialsPractice.ran,targetQuad,Tcondition,targcell,tlocx,tlocy,d1x,d1y,d2x,d2y,d3x,d3y,d4x,d4y,d5x,d5y,d6x,d6y,d7x,d7y,d8x,d8y,d9x,d9y,d10x,d10y,d11x,d11y,d1Orient,d2Orient,d3Orient,d4Orient,d5Orient,d6Orient,d7Orient,d8Orient,d9Orient,d10Orient,d11Orient,CheckInstr.started,CheckInstr.stopped,key_checkInstr.keys,key_checkInstr.corr,key_checkInstr.rt,key_checkInstr.duration,CheckInstr_FB.started,CheckInstr_FB.stopped,Instruction_MainExp.started,Instruction_MainExp.stopped,TakeABreak.started,TakeABreak.stopped,key_respBreak.keys,trials.thisRepN,trials.thisTrialN,trials.thisN,trials.thisIndex,trials.ran,configurationNumber,CCCondition,key_respBreak.rt,key_respBreak.duration,displayTestingPhase.started,displayTestingPhase.stopped,key_respTesting.keys,key_respTesting.corr,key_respTesting.rt,key_respTesting.duration,TakeABreak2.started,TakeABreak2.stopped,key_RespBreak.keys,Testingtrials.thisRepN,Testingtrials.thisTrialN,Testingtrials.thisN,Testingtrials.thisIndex,Testingtrials.ran,key_RespBreak.rt,key_RespBreak.duration,RecogQuestion.started,RecogQuestion.stopped,key_AnswerQues.keys,key_AnswerQues.rt,key_AnswerQues.duration,Disclose.started,Disclose.stopped,InstrRT.started,InstrRT.stopped,fixation_RT.started,fixation_RT.stopped,mouseInitial.x,mouseInitial.y,mouseInitial.leftButton,mouseInitial.midButton,mouseInitial.rightButton,mouseInitial.time,mouseInitial.clicked_name,displayRT.started,displayRT.stopped,key_respRT.keys,key_respRT.corr,key_respRT.rt,key_respRT.duration,RTtrials.thisRepN,RTtrials.thisTrialN,RTtrials.thisN,RTtrials.thisIndex,RTtrials.ran,EndOfExperiment.started,EndOfExperiment.stopped
0.0006,18.583,13,1,${e://Field/PROLIFIC_PID,F,18,2023-11-03_16h39.34.937,MouseEye_CC,2023.2.2,Win32,60.12867537,1,,,,,,,,,,,,,,,,,,,,,,,,,,,,,,,,,,,,,,,,,,,,,,,,,,,,,,,,,,,,,,,,,,,,,,,,,,,,,,,,,,,,,,,,,,,,,,,,,,,,,,,,,,,,,,,,,,,,,,,,,,,,,,,,,,,,,,,,,,,,,,,,,,,,,,,,,,,,,,,,,,,,,,,,,,,,,,,,,,
,,13,1,${e://Field/PROLIFIC_PID,F,18,2023-11-03_16h39.34.937,MouseEye_CC,2023.2.2,Win32,60.12867537,1.339218882,18.5832,138.0151,2195,1235,58.036,3.68,"387.45, 54.8, 34.81, 410.84, 61.05, 32.88, 35.1",627.38,10.13022148,37.27921505,27.83653633,Passed,124.8853704,,,,,,,,,,,,,,,,,,,,,,,,,,,,,,,,,,,,,,,,,,,,,,,,,,,,,,,,,,,,,,,,,,,,,,,,,,,,,,,,,,,,,,,,,,,,,,,,,,,,,,,,,,,,,,,,,,,,,,,,,,,,,,,,,,,,,,,,,,,,,,,,,,,,,,,,,,,,,,,,,,,,,
,,13,1,${e://Field/PROLIFIC_PID,F,18,2023-11-03_16h39.34.937,MouseEye_CC,2023.2.2,Win32,60.12867537,1.339218882,,,2195,1235,58.036,3.68,"387.45, 54.8, 34.81, 410.84, 61.05, 32.88, 35.1",627.38,10.13022148,37.27921505,27.83653633,Passed,124.8853704,138.0161,138.0178,,,,,,,,,,,,,,,,,,,,,,,,,,,,,,,,,,,,,,,,,,,,,,,,,,,,,,,,,,,,,,,,,,,,,,,,,,,,,,,,,,,,,,,,,,,,,,,,,,,,,,,,,,,,,,,,,,,,,,,,,,,,,,,,,,,,,,,,,,,,,,,,,,,,,,,,,,,,,,,,,,,
,,13,1,${e://Field/PROLIFIC_PID,F,18,2023-11-03_16h39.34.937,MouseEye_CC,2023.2.2,Win32,60.12867537,1.28,,,2195,1235,67.00800000000001,3.68,"387.45, 54.8, 34.81, 410.84, 61.05, 32.88, 35.1",627.38,11.69628991,43.04234686,27.83653633,Passed,144.191862,,,138.0178,220.1655,failed,,,,,,,,,,,,,,,,,,,,,,,,,,,,,,,,,,,,,,,,,,,,,,,,,,,,,,,,,,,,,,,,,,,,,,,,,,,,,,,,,,,,,,,,,,,,,,,,,,,,,,,,,,,,,,,,,,,,,,,,,,,,,,,,,,,,,,,,,,,,,,,,,,,,,,,,,,,,,,,,
,,13,1,${e://Field/PROLIFIC_PID,F,18,2023-11-03_16h39.34.937,MouseEye_CC,2023.2.2,Win32,60.12867537,1.28,,,2195,1235,67.00800000000001,3.68,"387.45, 54.8, 34.81, 410.84, 61.05, 32.88, 35.1",627.38,11.69628991,43.04234686,27.83653633,Passed,144.191862,,,,,,220.1656,264.6477,,,,,,,,,,,,,,,,,,,,,,,,,,,,,,,,,,,,,,,,,,,,,,,,,,,,,,,,,,,,,,,,,,,,,,,,,,,,,,,,,,,,,,,,,,,,,,,,,,,,,,,,,,,,,,,,,,,,,,,,,,,,,,,,,,,,,,,,,,,,,,,,,,,,,,,,,,,,,,
,,13,1,${e://Field/PROLIFIC_PID,F,18,2023-11-03_16h39.34.937,MouseEye_CC,2023.2.2,Win32,60.12867537,1.28,,,2195,1235,67.00800000000001,3.68,"387.45, 54.8, 34.81, 410.84, 61.05, 32.88, 35.1",627.38,11.69628991,43.04234686,27.83653633,Passed,144.191862,,,,,,,,264.6567,265.8642,s,0,0.6808,,265.8643,266.3641,0,0,0,0,1,practice,1,1,0,left,a,,,,,,,,,,,,,,,,,,,,,,,,,,,,,,,,,,,,,,,,,,,,,,,,,,,,,,,,,,,,,,,,,,,,,,,,,,,,,,,,,,,,,,,,,,,,,,,,,,,,,,,,,,,,,,,,,,,,,,,,,,,,,,,,,,,,,,,,,,,
,,13,1,${e://Field/PROLIFIC_PID,F,18,2023-11-03_16h39.34.937,MouseEye_CC,2023.2.2,Win32,60.12867537,1.28,,,2195,1235,67.00800000000001,3.68,"387.45, 54.8, 34.81, 410.84, 61.05, 32.88, 35.1",627.38,11.69628991,43.04234686,27.83653633,Passed,144.191862,,,,,,,,266.3646,267.9809,a,1,1.0872,,267.9809,268.4809,0,1,1,1,1,practice,1,2,0,left,a,,,,,,,,,,,,,,,,,,,,,,,,,,,,,,,,,,,,,,,,,,,,,,,,,,,,,,,,,,,,,,,,,,,,,,,,,,,,,,,,,,,,,,,,,,,,,,,,,,,,,,,,,,,,,,,,,,,,,,,,,,,,,,,,,,,,,,,,,,,
,,13,1,${e://Field/PROLIFIC_PID,F,18,2023-11-03_16h39.34.937,MouseEye_CC,2023.2.2,Win32,60.12867537,1.28,,,2195,1235,67.00800000000001,3.68,"387.45, 54.8, 34.81, 410.84, 61.05, 32.88, 35.1",627.38,11.69628991,43.04234686,27.83653633,Passed,144.191862,,,,,,,,268.4813,270.4144,a,1,1.4088,,270.4144,270.9144,0,2,2,2,1,practice,1,3,0,left,a,,,,,,,,,,,,,,,,,,,,,,,,,,,,,,,,,,,,,,,,,,,,,,,,,,,,,,,,,,,,,,,,,,,,,,,,,,,,,,,,,,,,,,,,,,,,,,,,,,,,,,,,,,,,,,,,,,,,,,,,,,,,,,,,,,,,,,,,,,,
,,13,1,${e://Field/PROLIFIC_PID,F,18,2023-11-03_16h39.34.937,MouseEye_CC,2023.2.2,Win32,60.12867537,1.28,,,2195,1235,67.00800000000001,3.68,"387.45, 54.8, 34.81, 410.84, 61.05, 32.88, 35.1",627.38,11.69628991,43.04234686,27.83653633,Passed,144.191862,,,,,,,,270.9146,272.0644,s,1,0.6086,,272.0644,272.5645,0,3,3,3,1,practice,1,4,180,right,s,,,,,,,,,,,,,,,,,,,,,,,,,,,,,,,,,,,,,,,,,,,,,,,,,,,,,,,,,,,,,,,,,,,,,,,,,,,,,,,,,,,,,,,,,,,,,,,,,,,,,,,,,,,,,,,,,,,,,,,,,,,,,,,,,,,,,,,,,,,
,,13,1,${e://Field/PROLIFIC_PID,F,18,2023-11-03_16h39.34.937,MouseEye_CC,2023.2.2,Win32,60.12867537,1.28,,,2195,1235,67.00800000000001,3.68,"387.45, 54.8, 34.81, 410.84, 61.05, 32.88, 35.1",627.38,11.69628991,43.04234686,27.83653633,Passed,144.191862,,,,,,,,272.5647,273.5145,s,1,0.4286,,273.5145,274.0146,0,4,4,4,1,practice,1,5,180,right,s,,,,,,,,,,,,,,,,,,,,,,,,,,,,,,,,,,,,,,,,,,,,,,,,,,,,,,,,,,,,,,,,,,,,,,,,,,,,,,,,,,,,,,,,,,,,,,,,,,,,,,,,,,,,,,,,,,,,,,,,,,,,,,,,,,,,,,,,,,,
,,13,1,${e://Field/PROLIFIC_PID,F,18,2023-11-03_16h39.34.937,MouseEye_CC,2023.2.2,Win32,60.12867537,1.28,,,2195,1235,67.00800000000001,3.68,"387.45, 54.8, 34.81, 410.84, 61.05, 32.88, 35.1",627.38,11.69628991,43.04234686,27.83653633,Passed,144.191862,,,,,,,,274.0148,275.0813,a,1,0.5443,,275.0813,275.5813,0,5,5,5,1,practice,1,6,0,left,a,,,,,,,,,,,,,,,,,,,,,,,,,,,,,,,,,,,,,,,,,,,,,,,,,,,,,,,,,,,,,,,,,,,,,,,,,,,,,,,,,,,,,,,,,,,,,,,,,,,,,,,,,,,,,,,,,,,,,,,,,,,,,,,,,,,,,,,,,,,
,,13,1,${e://Field/PROLIFIC_PID,F,18,2023-11-03_16h39.34.937,MouseEye_CC,2023.2.2,Win32,60.12867537,1.28,,,2195,1235,67.00800000000001,3.68,"387.45, 54.8, 34.81, 410.84, 61.05, 32.88, 35.1",627.38,11.69628991,43.04234686,27.83653633,Passed,144.191862,,,,,,,,275.5814,276.698,s,1,0.5883,,276.6981,277.1981,0,6,6,6,1,practice,1,7,180,right,s,,,,,,,,,,,,,,,,,,,,,,,,,,,,,,,,,,,,,,,,,,,,,,,,,,,,,,,,,,,,,,,,,,,,,,,,,,,,,,,,,,,,,,,,,,,,,,,,,,,,,,,,,,,,,,,,,,,,,,,,,,,,,,,,,,,,,,,,,,,
,,13,1,${e://Field/PROLIFIC_PID,F,18,2023-11-03_16h39.34.937,MouseEye_CC,2023.2.2,Win32,60.12867537,1.28,,,2195,1235,67.00800000000001,3.68,"387.45, 54.8, 34.81, 410.84, 61.05, 32.88, 35.1",627.38,11.69628991,43.04234686,27.83653633,Passed,144.191862,,,,,,,,,,,,,,,,,,,,,,,,,,,277.1986,298.7998,,,,,,,,,,,,,,,,,,,,,,,,,,,,,,,,,,,,,,,,,,,,,,,,,,,,,,,,,,,,,,,,,,,,,,,,,,,,,,,,,,,,,,,,,,,,,,,,,,,,,,,,,,,,,,,,,,,,,,,,,,,,,,,,,,,,,,,,,
,,13,1,${e://Field/PROLIFIC_PID,F,18,2023-11-03_16h39.34.937,MouseEye_CC,2023.2.2,Win32,60.12867537,1.28,,,2195,1235,67.00800000000001,3.68,"387.45, 54.8, 34.81, 410.84, 61.05, 32.88, 35.1",627.38,11.69628991,43.04234686,27.83653633,Passed,144.191862,,,,,,,,,,,,,,,,,,,,,,,,,,,,,298.7999,309.9172,,,,,,,,,,,,,,,,,,,,,,,,,,,,,,,,,,,,,,,,,,,,,,,,,,,,,,,,,,,,,,,,,,,,,,,,,,,,,,,,,,,,,,,,,,,,,,,,,,,,,,,,,,,,,,,,,,,,,,,,,,,,,,,,,,,,,,,
,,13,1,${e://Field/PROLIFIC_PID,F,18,2023-11-03_16h39.34.937,MouseEye_CC,2023.2.2,Win32,60.12867537,1.28,,,2195,1235,67.00800000000001,3.68,"387.45, 54.8, 34.81, 410.84, 61.05, 32.88, 35.1",627.38,11.69628991,43.04234686,27.83653633,Passed,144.191862,,,,,,,,,,,,,,,,,,,,,practice,0,1,0,left,a,,,,,309.9327,310.5336,35.84,2.5,-2.5,1,0,0,0.6007,fixationPoint,310.5338,310.6336,310.6339,313.8171,35.84,10240,616.96,a,1,3.1635,,313.8172,314.017,0,0,0,0,1,4,sparse,90,217,-164,68,123,222,26,214,216,-218,159,-120,223,-110,82,-115,-130,-224,-120,-68,-219,79,-175,19,-128,90,270,360,90,270,270,180,90,90,90,270,,,,,,,,,,,,,,,,,,,,,,,,,,,,,,,,,,,,,,,,,,,,,,,,,,,,,,,,,,,,,,,,,,,,,
,,13,1,${e://Field/PROLIFIC_PID,F,18,2023-11-03_16h39.34.937,MouseEye_CC,2023.2.2,Win32,60.12867537,1.28,,,2195,1235,67.00800000000001,3.68,"387.45, 54.8, 34.81, 410.84, 61.05, 32.88, 35.1",627.38,11.69628991,43.04234686,27.83653633,Passed,144.191862,,,,,,,,,,,,,,,,,,,,,practice,0,2,0,left,a,,,,,314.0172,314.867,35.84,2.5,-2.5,1,0,0,0.8497,fixationPoint,314.867,314.9669,314.967,316.7504,35.84,10240,616.96,a,1,1.7668,,316.7505,316.9504,0,1,1,1,1,1,rich,39,169,66,-126,125,-169,169,-130,19,-169,-116,-125,-167,-224,-216,218,-129,171,-218,18,-208,166,26,17,170,180,90,360,270,90,90,90,270,180,180,270,,,,,,,,,,,,,,,,,,,,,,,,,,,,,,,,,,,,,,,,,,,,,,,,,,,,,,,,,,,,,,,,,,,,,
,,13,1,${e://Field/PROLIFIC_PID,F,18,2023-11-03_16h39.34.937,MouseEye_CC,2023.2.2,Win32,60.12867537,1.28,,,2195,1235,67.00800000000001,3.68,"387.45, 54.8, 34.81, 410.84, 61.05, 32.88, 35.1",627.38,11.69628991,43.04234686,27.83653633,Passed,144.191862,,,,,,,,,,,,,,,,,,,,,practice,0,3,0,left,a,,,,,316.9507,317.3005,35.84,2.5,-2.5,1,0,0,0.3498,fixationPoint,317.3006,317.4003,317.4004,321.4173,35.84,10240,616.96,a,1,4.0131,,321.4174,321.6173,0,2,2,2,1,2,sparse,22,-162,126,222,26,17,170,126,172,-25,-117,-175,-206,-224,-216,116,-19,130,-174,217,-164,-218,159,-21,162,90,90,180,360,360,270,360,360,360,360,180,,,,,,,,,,,,,,,,,,,,,,,,,,,,,,,,,,,,,,,,,,,,,,,,,,,,,,,,,,,,,,,,,,,,,
,,13,1,${e://Field/PROLIFIC_PID,F,18,2023-11-03_16h39.34.937,MouseEye_CC,2023.2.2,Win32,60.12867537,1.28,,,2195,1235,67.00800000000001,3.68,"387.45, 54.8, 34.81, 410.84, 61.05, 32.88, 35.1",627.38,11.69628991,43.04234686,27.83653633,Passed,144.191862,,,,,,,,,,,,,,,,,,,,,practice,0,4,180,right,s,,,,,321.6175,321.9508,35.84,1.928588867,0.928405762,1,0,0,0.3332,fixationPoint,321.9509,322.0507,322.0507,324.4676,35.84,10240,616.96,s,1,2.4066,,324.4677,324.6677,0,3,3,3,1,4,sparse,76,19,-128,159,121,214,216,219,165,-218,159,-162,126,-219,119,-169,-116,-111,-31,-175,-206,18,-208,81,-114,90,270,180,180,270,180,360,360,360,270,360,,,,,,,,,,,,,,,,,,,,,,,,,,,,,,,,,,,,,,,,,,,,,,,,,,,,,,,,,,,,,,,,,,,,,
,,13,1,${e://Field/PROLIFIC_PID,F,18,2023-11-03_16h39.34.937,MouseEye_CC,2023.2.2,Win32,60.12867537,1.28,,,2195,1235,67.00800000000001,3.68,"387.45, 54.8, 34.81, 410.84, 61.05, 32.88, 35.1",627.38,11.69628991,43.04234686,27.83653633,Passed,144.191862,,,,,,,,,,,,,,,,,,,,,practice,0,5,180,right,s,,,,,324.668,325.0177,35.84,1.928588867,0.928405762,1,0,0,0.3496,fixationPoint,325.0177,325.1176,325.1176,328.4845,35.84,10240,616.96,s,1,3.3524,,328.4845,328.6845,0,4,4,4,1,3,sparse,85,-19,-173,219,165,68,123,214,216,-160,68,-64,120,-226,34,162,-21,224,-216,167,-163,-167,-74,-224,-216,360,360,360,90,180,270,90,360,270,270,360,,,,,,,,,,,,,,,,,,,,,,,,,,,,,,,,,,,,,,,,,,,,,,,,,,,,,,,,,,,,,,,,,,,,,
,,13,1,${e://Field/PROLIFIC_PID,F,18,2023-11-03_16h39.34.937,MouseEye_CC,2023.2.2,Win32,60.12867537,1.28,,,2195,1235,67.00800000000001,3.68,"387.45, 54.8, 34.81, 410.84, 61.05, 32.88, 35.1",627.38,11.69628991,43.04234686,27.83653633,Passed,144.191862,,,,,,,,,,,,,,,,,,,,,practice,0,6,180,right,s,,,,,328.6847,328.7844,35.84,1.928588867,2.642822266,1,0,0,0.0995,fixationPoint,328.7844,328.8845,328.8845,335.6849,35.84,10240,616.96,s,1,6.7933,,335.685,335.8848,0,5,5,5,1,3,sparse,95,-21,-224,126,172,219,165,166,26,-166,207,-223,206,-219,119,169,-75,18,-208,224,-216,-72,-121,-115,-130,180,180,360,180,360,180,270,180,90,180,360,,,,,,,,,,,,,,,,,,,,,,,,,,,,,,,,,,,,,,,,,,,,,,,,,,,,,,,,,,,,,,,,,,,,,
,,13,1,${e://Field/PROLIFIC_PID,F,18,2023-11-03_16h39.34.937,MouseEye_CC,2023.2.2,Win32,60.12867537,1.28,,,2195,1235,67.00800000000001,3.68,"387.45, 54.8, 34.81, 410.84, 61.05, 32.88, 35.1",627.38,11.69628991,43.04234686,27.83653633,Passed,144.191862,,,,,,,,,,,,,,,,,,,,,practice,0,7,0,left,a,,,,,335.8851,336.0849,35.84,1.928588867,4.928405762,1,0,0,0.1998,fixationPoint,336.0849,336.1849,336.1849,338.8685,35.84,10240,616.96,a,1,2.6687,,338.8685,339.0683,0,6,6,6,1,1,rich,7,62,223,-166,207,-226,34,-162,126,-169,-116,-168,-160,-161,-27,15,-162,162,-21,79,-175,219,165,219,129,180,180,360,180,270,360,180,360,270,180,360,,,,,,,,,,,,,,,,,,,,,,,,,,,,,,,,,,,,,,,,,,,,,,,,,,,,,,,,,,,,,,,,,,,,,
,,13,1,${e://Field/PROLIFIC_PID,F,18,2023-11-03_16h39.34.937,MouseEye_CC,2023.2.2,Win32,60.12867537,1.28,,,2195,1235,67.00800000000001,3.68,"387.45, 54.8, 34.81, 410.84, 61.05, 32.88, 35.1",627.38,11.69628991,43.04234686,27.83653633,Passed,144.191862,,,,,,,,,,,,,,,,,,,,,practice,0,8,180,right,s,,,,,339.0686,339.2518,35.84,1.928588867,4.928405762,1,0,0,0.1831,fixationPoint,339.2518,339.3517,339.3518,342.8686,35.84,10240,616.96,s,1,3.5102,,342.8686,343.0687,0,7,7,7,1,2,sparse,24,-64,120,18,215,126,172,33,121,-206,-170,-64,-162,-218,-78,130,-174,211,-74,168,-130,-164,32,-21,162,90,180,270,360,180,90,180,180,180,360,270,,,,,,,,,,,,,,,,,,,,,,,,,,,,,,,,,,,,,,,,,,,,,,,,,,,,,,,,,,,,,,,,,,,,,
,,13,1,${e://Field/PROLIFIC_PID,F,18,2023-11-03_16h39.34.937,MouseEye_CC,2023.2.2,Win32,60.12867537,1.28,,,2195,1235,67.00800000000001,3.68,"387.45, 54.8, 34.81, 410.84, 61.05, 32.88, 35.1",627.38,11.69628991,43.04234686,27.83653633,Passed,144.191862,,,,,,,,,,,,,,,,,,,,,practice,0,9,180,right,s,,,,,343.0689,343.1186,35.84,1.928588867,4.928405762,1,0,0,0.0497,fixationPoint,343.1187,343.2187,343.2187,346.1855,35.84,10240,616.96,s,1,2.9567,,346.1856,346.3855,0,8,8,8,1,3,sparse,85,-19,-173,127,30,62,223,217,67,-110,82,-21,162,-80,218,167,-163,126,-79,130,-174,-125,-167,-68,-219,360,360,360,180,360,360,180,270,90,360,180,,,,,,,,,,,,,,,,,,,,,,,,,,,,,,,,,,,,,,,,,,,,,,,,,,,,,,,,,,,,,,,,,,,,,
,,13,1,${e://Field/PROLIFIC_PID,F,18,2023-11-03_16h39.34.937,MouseEye_CC,2023.2.2,Win32,60.12867537,1.28,,,2195,1235,67.00800000000001,3.68,"387.45, 54.8, 34.81, 410.84, 61.05, 32.88, 35.1",627.38,11.69628991,43.04234686,27.83653633,Passed,144.191862,,,,,,,,,,,,,,,,,,,,,practice,0,10,180,right,s,,,,,346.3857,346.4689,35.84,1.928588867,4.928405762,1,0,0,0.0831,fixationPoint,346.4689,346.5688,346.5688,350.1025,35.84,10240,616.96,s,1,3.5169,,350.1025,350.3024,0,9,9,9,1,1,rich,9,160,209,-166,207,-226,34,-120,223,-224,-120,-118,-217,-218,-78,112,-209,126,-113,169,-75,178,160,110,129,180,90,90,270,360,270,360,180,360,180,360,,,,,,,,,,,,,,,,,,,,,,,,,,,,,,,,,,,,,,,,,,,,,,,,,,,,,,,,,,,,,,,,,,,,,
,,13,1,${e://Field/PROLIFIC_PID,F,18,2023-11-03_16h39.34.937,MouseEye_CC,2023.2.2,Win32,60.12867537,1.28,,,2195,1235,67.00800000000001,3.68,"387.45, 54.8, 34.81, 410.84, 61.05, 32.88, 35.1",627.38,11.69628991,43.04234686,27.83653633,Passed,144.191862,,,,,,,,,,,,,,,,,,,,,practice,0,11,180,right,s,,,,,350.3026,350.7868,35.84,-13.5,21.5,1,0,0,0.0331,fixationPoint,350.7868,350.8858,350.8858,355.8361,35.84,10240,616.96,s,1,4.944,,355.8361,356.0362,0,10,10,10,1,4,sparse,80,218,-129,62,223,159,121,110,129,-218,159,-223,206,-75,173,-169,-116,-118,-217,-125,-167,217,-164,169,-75,360,270,360,180,360,180,180,270,360,180,90,,,,,,,,,,,,,,,,,,,,,,,,,,,,,,,,,,,,,,,,,,,,,,,,,,,,,,,,,,,,,,,,,,,,,
,,13,1,${e://Field/PROLIFIC_PID,F,18,2023-11-03_16h39.34.937,MouseEye_CC,2023.2.2,Win32,60.12867537,1.28,,,2195,1235,67.00800000000001,3.68,"387.45, 54.8, 34.81, 410.84, 61.05, 32.88, 35.1",627.38,11.69628991,43.04234686,27.83653633,Passed,144.191862,,,,,,,,,,,,,,,,,,,,,practice,0,12,0,left,a,,,,,356.0365,356.2861,35.84,-6.071411133,1.5,1,0,0,0.2495,fixationPoint,356.2861,356.3862,356.3863,359.5862,35.84,10240,616.96,a,1,3.195,,359.5863,359.7863,0,11,11,11,1,3,sparse,75,-25,-117,110,129,125,63,214,216,-164,32,-27,117,-126,125,171,-218,126,-113,167,-163,-21,-224,-212,-21,270,180,180,360,180,270,360,270,360,180,270,,,,,,,,,,,,,,,,,,,,,,,,,,,,,,,,,,,,,,,,,,,,,,,,,,,,,,,,,,,,,,,,,,,,,
,,13,1,${e://Field/PROLIFIC_PID,F,18,2023-11-03_16h39.34.937,MouseEye_CC,2023.2.2,Win32,60.12867537,1.28,,,2195,1235,67.00800000000001,3.68,"387.45, 54.8, 34.81, 410.84, 61.05, 32.88, 35.1",627.38,11.69628991,43.04234686,27.83653633,Passed,144.191862,,,,,,,,,,,,,,,,,,,,,,,,,,,,,,,,,,,,,,,,,,,,,,,,,,,,,,,,,,,,,,,,,,,,,,,,,,,,,,,,,,,,,,,,,,,,,,,,,359.7867,366.8537,a,1,7.0468,,,,,,,,,,,,,,,,,,,,,,,,,,,,,,,,,,,,,,,,,,,,,,,,,,,,,,,,,,,,,,,,
,,13,1,${e://Field/PROLIFIC_PID,F,18,2023-11-03_16h39.34.937,MouseEye_CC,2023.2.2,Win32,60.12867537,1.28,,,2195,1235,67.00800000000001,3.68,"387.45, 54.8, 34.81, 410.84, 61.05, 32.88, 35.1",627.38,11.69628991,43.04234686,27.83653633,Passed,144.191862,,,,,,,,,,,,,,,,,,,,,,,,,,,,,,,,,,,,,,,,,,,,,,,,,,,,,,,,,,,,,,,,,,,,,,,,,,,,,,,,,,,,,,,,,,,,,,,,,,,,,,,366.8538,369.437,,,,,,,,,,,,,,,,,,,,,,,,,,,,,,,,,,,,,,,,,,,,,,,,,,,,,,,,,,,,,
,,13,1,${e://Field/PROLIFIC_PID,F,18,2023-11-03_16h39.34.937,MouseEye_CC,2023.2.2,Win32,60.12867537,1.28,,,2195,1235,67.00800000000001,3.68,"387.45, 54.8, 34.81, 410.84, 61.05, 32.88, 35.1",627.38,11.69628991,43.04234686,27.83653633,Passed,144.191862,,,,,,,,,,,,,,,,,,,,,,,,,,,,,,,,,,,,,,,,,,,,,,,,,,,,,,,,,,,,,,,,,,,,,,,,,,,,,,,,,,,,,,,,,,,,,,,,,,,,,,,,,369.4371,376.4544,,,,,,,,,,,,,,,,,,,,,,,,,,,,,,,,,,,,,,,,,,,,,,,,,,,,,,,,,,,
,,13,1,${e://Field/PROLIFIC_PID,F,18,2023-11-03_16h39.34.937,MouseEye_CC,2023.2.2,Win32,60.12867537,1.28,,,2195,1235,67.00800000000001,3.68,"387.45, 54.8, 34.81, 410.84, 61.05, 32.88, 35.1",627.38,11.69628991,43.04234686,27.83653633,Passed,144.191862,,,,,,,,,,,,,,,,,,,,,training,1,1,0,left,a,,,,,376.5116,377.3376,35.84,3.071655273,7.214111328,1,0,0,0.8258,fixationPoint,377.3376,377.4374,377.4374,380.3209,35.84,10240,616.96,a,1,2.8719,,380.3209,380.5209,,,,,,,,63,-117,-71,26,17,124,168,175,168,-164,224,-79,28,-75,120,80,-123,71,-73,165,-224,-22,-16,-29,-124,270,180,360,360,180,180,180,360,90,90,360,,,,,,,,,,,380.5212,380.5225,,0,0,0,0,1,10,novel,,,,,,,,,,,,,,,,,,,,,,,,,,,,,,,,,,,,,,,,,,,,,,,,,
,,13,1,${e://Field/PROLIFIC_PID,F,18,2023-11-03_16h39.34.937,MouseEye_CC,2023.2.2,Win32,60.12867537,1.28,,,2195,1235,67.00800000000001,3.68,"387.45, 54.8, 34.81, 410.84, 61.05, 32.88, 35.1",627.38,11.69628991,43.04234686,27.83653633,Passed,144.191862,,,,,,,,,,,,,,,,,,,,,training,1,2,180,right,s,,,,,380.5227,380.5542,35.84,2.5,7.214111328,1,0,0,0.0315,fixationPoint,380.5543,380.6542,380.6542,381.8044,35.84,10240,616.96,s,1,1.1285,,381.8044,382.0042,,,,,,,,24,-75,120,216,164,175,168,210,67,-222,-75,-22,-16,-117,-71,164,-18,127,-161,28,-168,-20,208,-120,24,360,270,180,180,90,270,360,180,360,270,360,,,,,,,,,,,382.0043,382.0044,,0,1,1,1,1,4,repeated,,,,,,,,,,,,,,,,,,,,,,,,,,,,,,,,,,,,,,,,,,,,,,,,,
,,13,1,${e://Field/PROLIFIC_PID,F,18,2023-11-03_16h39.34.937,MouseEye_CC,2023.2.2,Win32,60.12867537,1.28,,,2195,1235,67.00800000000001,3.68,"387.45, 54.8, 34.81, 410.84, 61.05, 32.88, 35.1",627.38,11.69628991,43.04234686,27.83653633,Passed,144.191862,,,,,,,,,,,,,,,,,,,,,training,1,3,180,right,s,,,,,382.0046,382.3709,35.84,1.928588867,7.785705566,1,0,0,0.3663,fixationPoint,382.3709,382.4709,382.471,384.7212,35.84,10240,616.96,s,1,2.2325,,384.7212,384.9211,,,,,,,,76,23,-119,127,78,126,209,175,168,-212,165,-77,64,-128,112,-176,-32,-29,-124,-170,-125,64,-26,174,-167,270,90,270,180,360,90,90,90,180,180,180,,,,,,,,,,,384.9211,384.9212,,0,2,2,2,1,8,repeated,,,,,,,,,,,,,,,,,,,,,,,,,,,,,,,,,,,,,,,,,,,,,,,,,
,,13,1,${e://Field/PROLIFIC_PID,F,18,2023-11-03_16h39.34.937,MouseEye_CC,2023.2.2,Win32,60.12867537,1.28,,,2195,1235,67.00800000000001,3.68,"387.45, 54.8, 34.81, 410.84, 61.05, 32.88, 35.1",627.38,11.69628991,43.04234686,27.83653633,Passed,144.191862,,,,,,,,,,,,,,,,,,,,,training,1,4,0,left,a,,,,,384.9215,385.1545,35.84,1.357177734,7.785705566,1,0,0,0.2328,fixationPoint,385.1545,385.2544,385.2544,388.4047,35.84,10240,616.96,a,1,3.1368,,388.4047,388.6047,,,,,,,,75,-29,-124,66,170,221,120,161,18,-128,212,-75,120,-79,28,80,-123,27,-73,164,-18,-116,-172,-220,-124,90,90,360,180,270,90,180,270,360,180,360,,,,,,,,,,,388.6047,388.6048,,0,3,3,3,1,5,repeated,,,,,,,,,,,,,,,,,,,,,,,,,,,,,,,,,,,,,,,,,,,,,,,,,
,,13,1,${e://Field/PROLIFIC_PID,F,18,2023-11-03_16h39.34.937,MouseEye_CC,2023.2.2,Win32,60.12867537,1.28,,,2195,1235,67.00800000000001,3.68,"387.45, 54.8, 34.81, 410.84, 61.05, 32.88, 35.1",627.38,11.69628991,43.04234686,27.83653633,Passed,144.191862,,,,,,,,,,,,,,,,,,,,,training,1,5,180,right,s,,,,,388.6051,388.9547,35.84,0.214355469,9.5,1,0,0,0.3496,fixationPoint,388.9547,389.0546,389.0547,393.9883,35.84,10240,616.96,s,1,4.9271,,393.9883,394.1884,,,,,,,,79,163,-116,216,164,76,120,124,168,-120,24,-20,208,-220,16,-163,-79,-211,-19,-220,-124,213,-128,79,-221,270,360,270,90,360,270,90,270,270,270,90,,,,,,,,,,,394.1884,394.1885,,0,4,4,4,1,11,novel,,,,,,,,,,,,,,,,,,,,,,,,,,,,,,,,,,,,,,,,,,,,,,,,,
,,13,1,${e://Field/PROLIFIC_PID,F,18,2023-11-03_16h39.34.937,MouseEye_CC,2023.2.2,Win32,60.12867537,1.28,,,2195,1235,67.00800000000001,3.68,"387.45, 54.8, 34.81, 410.84, 61.05, 32.88, 35.1",627.38,11.69628991,43.04234686,27.83653633,Passed,144.191862,,,,,,,,,,,,,,,,,,,,,training,1,6,0,left,a,,,,,394.1887,394.3717,35.84,-0.928344727,5.5,1,0,0,0.1829,fixationPoint,394.3717,394.4717,394.4717,396.0218,35.84,10240,616.96,a,1,1.5367,,396.0218,396.2218,,,,,,,,58,114,-25,124,168,73,79,126,209,-173,76,-166,28,-224,128,-20,-66,-176,-32,-26,-211,79,-221,127,-161,360,270,180,180,270,360,180,90,180,90,270,,,,,,,,,,,396.2219,396.222,,0,5,5,5,1,7,repeated,,,,,,,,,,,,,,,,,,,,,,,,,,,,,,,,,,,,,,,,,,,,,,,,,
,,13,1,${e://Field/PROLIFIC_PID,F,18,2023-11-03_16h39.34.937,MouseEye_CC,2023.2.2,Win32,60.12867537,1.28,,,2195,1235,67.00800000000001,3.68,"387.45, 54.8, 34.81, 410.84, 61.05, 32.88, 35.1",627.38,11.69628991,43.04234686,27.83653633,Passed,144.191862,,,,,,,,,,,,,,,,,,,,,training,1,7,180,right,s,,,,,396.2223,396.4052,35.84,-0.928344727,5.5,1,0,0,0.1828,fixationPoint,396.4052,396.5052,396.5052,399.7054,35.84,10240,616.96,s,1,3.1844,,399.7054,399.9053,,,,,,,,72,-170,-125,127,78,71,20,32,71,-223,221,-128,112,-27,74,28,-214,80,-123,23,-119,-167,-213,-124,-20,270,360,360,90,270,90,360,360,90,180,180,,,,,,,,,,,399.9054,399.9055,,0,6,6,6,1,6,repeated,,,,,,,,,,,,,,,,,,,,,,,,,,,,,,,,,,,,,,,,,,,,,,,,,
,,13,1,${e://Field/PROLIFIC_PID,F,18,2023-11-03_16h39.34.937,MouseEye_CC,2023.2.2,Win32,60.12867537,1.28,,,2195,1235,67.00800000000001,3.68,"387.45, 54.8, 34.81, 410.84, 61.05, 32.88, 35.1",627.38,11.69628991,43.04234686,27.83653633,Passed,144.191862,,,,,,,,,,,,,,,,,,,,,training,1,8,0,left,a,,,,,399.9058,400.2554,35.84,-0.928344727,5.5,1,0,0,0.3495,fixationPoint,400.2555,400.3553,400.3553,405.0723,35.84,10240,616.96,a,1,4.7036,,405.0724,405.2723,,,,,,,,43,-120,24,221,120,66,170,210,67,-176,-32,-21,-172,-20,-66,116,-125,224,-30,165,-224,-18,28,-166,28,360,270,270,360,360,90,270,180,270,180,270,,,,,,,,,,,405.2724,405.2725,,0,7,7,7,1,15,novel,,,,,,,,,,,,,,,,,,,,,,,,,,,,,,,,,,,,,,,,,,,,,,,,,
,,13,1,${e://Field/PROLIFIC_PID,F,18,2023-11-03_16h39.34.937,MouseEye_CC,2023.2.2,Win32,60.12867537,1.28,,,2195,1235,67.00800000000001,3.68,"387.45, 54.8, 34.81, 410.84, 61.05, 32.88, 35.1",627.38,11.69628991,43.04234686,27.83653633,Passed,144.191862,,,,,,,,,,,,,,,,,,,,,training,1,9,180,right,s,,,,,405.2727,405.3556,35.84,-0.928344727,5.5,1,0,0,0.0828,fixationPoint,405.3556,405.4556,405.4557,409.9226,35.84,10240,616.96,s,1,4.4542,,409.9227,410.1226,,,,,,,,77,80,-123,124,168,26,17,212,22,-27,74,-174,169,-118,65,-80,-18,-29,-124,-68,-172,27,-73,118,-211,360,270,270,360,90,180,360,360,90,360,90,,,,,,,,,,,410.1226,410.1227,,0,8,8,8,1,12,novel,,,,,,,,,,,,,,,,,,,,,,,,,,,,,,,,,,,,,,,,,,,,,,,,,
,,13,1,${e://Field/PROLIFIC_PID,F,18,2023-11-03_16h39.34.937,MouseEye_CC,2023.2.2,Win32,60.12867537,1.28,,,2195,1235,67.00800000000001,3.68,"387.45, 54.8, 34.81, 410.84, 61.05, 32.88, 35.1",627.38,11.69628991,43.04234686,27.83653633,Passed,144.191862,,,,,,,,,,,,,,,,,,,,,training,1,10,0,left,a,,,,,410.1229,410.3225,35.84,-0.928344727,5.5,1,0,0,0.1996,fixationPoint,410.3227,410.4227,410.4227,413.0229,35.84,10240,616.96,a,1,2.5766,,413.0229,413.2227,,,,,,,,29,168,114,-77,64,-220,16,-27,162,-21,-172,-124,-20,-20,-66,127,-161,164,-18,212,-67,66,170,216,164,90,90,180,90,360,180,180,360,270,90,360,,,,,,,,,,,413.2227,413.2228,,0,9,9,9,1,14,novel,,,,,,,,,,,,,,,,,,,,,,,,,,,,,,,,,,,,,,,,,,,,,,,,,
,,13,1,${e://Field/PROLIFIC_PID,F,18,2023-11-03_16h39.34.937,MouseEye_CC,2023.2.2,Win32,60.12867537,1.28,,,2195,1235,67.00800000000001,3.68,"387.45, 54.8, 34.81, 410.84, 61.05, 32.88, 35.1",627.38,11.69628991,43.04234686,27.83653633,Passed,144.191862,,,,,,,,,,,,,,,,,,,,,training,1,11,0,left,a,,,,,413.223,413.2395,35.84,-5.5,2.071411133,1,0,0,0.0162,fixationPoint,413.2395,413.3395,413.3395,418.5732,35.84,10240,616.96,a,1,5.2171,,418.5732,418.773,,,,,,,,26,25,128,-27,162,-224,128,-112,162,-80,-76,-67,-117,-167,-213,23,-119,79,-221,127,-161,25,215,216,164,270,360,270,90,180,360,360,360,270,270,360,,,,,,,,,,,418.773,418.7732,,0,10,10,10,1,13,novel,,,,,,,,,,,,,,,,,,,,,,,,,,,,,,,,,,,,,,,,,,,,,,,,,
,,13,1,${e://Field/PROLIFIC_PID,F,18,2023-11-03_16h39.34.937,MouseEye_CC,2023.2.2,Win32,60.12867537,1.28,,,2195,1235,67.00800000000001,3.68,"387.45, 54.8, 34.81, 410.84, 61.05, 32.88, 35.1",627.38,11.69628991,43.04234686,27.83653633,Passed,144.191862,,,,,,,,,,,,,,,,,,,,,training,1,12,0,left,a,,,,,418.7735,418.8064,35.84,-5.5,2.071411133,1,0,0,0.0328,fixationPoint,418.8065,418.9065,418.9065,422.0234,35.84,10240,616.96,a,1,3.1009,,422.0234,422.2233,,,,,,,,38,127,78,-27,162,-120,24,-216,70,-163,-79,-116,-172,-211,-19,163,-116,127,-161,216,-164,25,128,32,71,180,360,180,270,90,180,270,180,270,90,180,,,,,,,,,,,422.2233,422.2235,,0,11,11,11,1,2,repeated,,,,,,,,,,,,,,,,,,,,,,,,,,,,,,,,,,,,,,,,,,,,,,,,,
,,13,1,${e://Field/PROLIFIC_PID,F,18,2023-11-03_16h39.34.937,MouseEye_CC,2023.2.2,Win32,60.12867537,1.28,,,2195,1235,67.00800000000001,3.68,"387.45, 54.8, 34.81, 410.84, 61.05, 32.88, 35.1",627.38,11.69628991,43.04234686,27.83653633,Passed,144.191862,,,,,,,,,,,,,,,,,,,,,training,1,13,180,right,s,,,,,422.2238,422.5733,35.84,-5.5,2.071411133,1,0,0,0.3495,fixationPoint,422.5734,422.6733,422.6733,423.7735,35.84,10240,616.96,s,1,1.0847,,423.7736,423.9735,,,,,,,,27,76,120,-223,221,-18,28,-24,126,-121,-208,-117,-71,-121,-123,27,-73,168,-72,165,-224,25,128,175,168,360,270,90,180,270,180,360,360,90,360,180,,,,,,,,,,,423.9735,423.9736,,0,12,12,12,1,1,repeated,,,,,,,,,,,,,,,,,,,,,,,,,,,,,,,,,,,,,,,,,,,,,,,,,
,,13,1,${e://Field/PROLIFIC_PID,F,18,2023-11-03_16h39.34.937,MouseEye_CC,2023.2.2,Win32,60.12867537,1.28,,,2195,1235,67.00800000000001,3.68,"387.45, 54.8, 34.81, 410.84, 61.05, 32.88, 35.1",627.38,11.69628991,43.04234686,27.83653633,Passed,144.191862,,,,,,,,,,,,,,,,,,,,,training,1,14,180,right,s,,,,,423.9738,424.1402,35.84,-5.5,2.071411133,1,0,0,0.1664,fixationPoint,424.1403,424.2402,424.2402,427.4404,35.84,10240,616.96,s,1,3.1892,,427.4404,427.6402,,,,,,,,22,-175,118,32,71,126,209,169,74,-172,-167,-22,-16,-176,-32,224,-30,68,-164,30,-24,-212,165,-24,126,360,270,180,180,180,180,360,90,180,90,180,,,,,,,,,,,427.6402,427.6403,,0,13,13,13,1,3,repeated,,,,,,,,,,,,,,,,,,,,,,,,,,,,,,,,,,,,,,,,,,,,,,,,,
,,13,1,${e://Field/PROLIFIC_PID,F,18,2023-11-03_16h39.34.937,MouseEye_CC,2023.2.2,Win32,60.12867537,1.28,,,2195,1235,67.00800000000001,3.68,"387.45, 54.8, 34.81, 410.84, 61.05, 32.88, 35.1",627.38,11.69628991,43.04234686,27.83653633,Passed,144.191862,,,,,,,,,,,,,,,,,,,,,training,1,15,0,left,a,,,,,427.6406,427.8237,35.84,-5.5,2.071411133,1,0,0,0.1831,fixationPoint,427.8237,427.9237,427.9237,434.4574,35.84,10240,616.96,a,1,6.5233,,434.4574,434.6574,,,,,,,,25,-24,126,127,78,120,127,25,215,-80,-76,-121,-208,-220,-224,219,-219,79,-221,116,-125,-77,161,-220,16,270,90,360,90,360,270,360,360,360,360,270,,,,,,,,,,,434.6575,434.6584,,0,14,14,14,1,16,novel,,,,,,,,,,,,,,,,,,,,,,,,,,,,,,,,,,,,,,,,,,,,,,,,,
,,13,1,${e://Field/PROLIFIC_PID,F,18,2023-11-03_16h39.34.937,MouseEye_CC,2023.2.2,Win32,60.12867537,1.28,,,2195,1235,67.00800000000001,3.68,"387.45, 54.8, 34.81, 410.84, 61.05, 32.88, 35.1",627.38,11.69628991,43.04234686,27.83653633,Passed,144.191862,,,,,,,,,,,,,,,,,,,,,training,1,16,180,right,s,,,,,434.6586,434.8075,35.84,-5.5,2.071411133,1,0,0,0.1489,fixationPoint,434.8075,434.9074,434.9074,437.1076,35.84,10240,616.96,s,1,2.1862,,437.1076,437.3075,,,,,,,,74,-67,-117,26,17,25,215,161,18,-224,128,-77,64,-77,161,174,-167,165,-224,127,-161,-74,-213,-68,-172,360,360,360,180,270,180,270,180,90,360,90,,,,,,,,,,,437.3076,444.0248,space,0,15,15,15,1,9,novel,6.6956,,,,,,,,,,,,,,,,,,,,,,,,,,,,,,,,,,,,,,,,,,,,,,,,
,,13,1,${e://Field/PROLIFIC_PID,F,18,2023-11-03_16h39.34.937,MouseEye_CC,2023.2.2,Win32,60.12867537,1.28,,,2195,1235,67.00800000000001,3.68,"387.45, 54.8, 34.81, 410.84, 61.05, 32.88, 35.1",627.38,11.69628991,43.04234686,27.83653633,Passed,144.191862,,,,,,,,,,,,,,,,,,,,,training,2,1,180,right,s,,,,,444.0307,445.0083,35.84,-0.357055664,12.92840576,1,0,0,0.9775,fixationPoint,445.0084,445.108,445.108,446.1415,35.84,10240,616.96,s,1,1.0118,,446.1415,446.3414,,,,,,,,25,-24,126,76,120,26,17,127,78,-222,-75,-220,-224,-117,-71,120,-80,174,-167,64,-26,-224,128,-120,24,180,90,360,360,180,180,270,360,270,180,270,,,,,,,,,,,446.3414,446.3423,,0,16,16,16,1,16,novel,,,,,,,,,,,,,,,,,,,,,,,,,,,,,,,,,,,,,,,,,,,,,,,,,
,,13,1,${e://Field/PROLIFIC_PID,F,18,2023-11-03_16h39.34.937,MouseEye_CC,2023.2.2,Win32,60.12867537,1.28,,,2195,1235,67.00800000000001,3.68,"387.45, 54.8, 34.81, 410.84, 61.05, 32.88, 35.1",627.38,11.69628991,43.04234686,27.83653633,Passed,144.191862,,,,,,,,,,,,,,,,,,,,,training,2,2,180,right,s,,,,,446.343,446.5081,35.84,0.214355469,12.3571167,1,0,0,0.1651,fixationPoint,446.5081,446.6081,446.6081,449.0916,35.84,10240,616.96,s,1,2.469,,449.0917,449.2917,,,,,,,,76,23,-119,127,78,126,209,175,168,-212,165,-77,64,-128,112,-176,-32,-29,-124,-170,-125,64,-26,174,-167,270,360,180,90,180,360,90,90,360,180,360,,,,,,,,,,,449.2918,449.2919,,0,17,17,17,1,8,repeated,,,,,,,,,,,,,,,,,,,,,,,,,,,,,,,,,,,,,,,,,,,,,,,,,
,,13,1,${e://Field/PROLIFIC_PID,F,18,2023-11-03_16h39.34.937,MouseEye_CC,2023.2.2,Win32,60.12867537,1.28,,,2195,1235,67.00800000000001,3.68,"387.45, 54.8, 34.81, 410.84, 61.05, 32.88, 35.1",627.38,11.69628991,43.04234686,27.83653633,Passed,144.191862,,,,,,,,,,,,,,,,,,,,,training,2,3,180,right,s,,,,,449.2922,449.6584,35.84,0.214355469,10.07141113,1,0,0,0.366,fixationPoint,449.6584,449.7582,449.7582,451.9585,35.84,10240,616.96,s,1,2.1842,,451.9585,452.1585,,,,,,,,74,-67,-117,212,22,123,27,216,164,-20,208,-128,212,-212,165,213,-128,165,-224,79,-221,-74,-213,-208,-176,360,90,270,180,360,270,270,360,90,90,90,,,,,,,,,,,452.1585,452.1586,,0,18,18,18,1,9,novel,,,,,,,,,,,,,,,,,,,,,,,,,,,,,,,,,,,,,,,,,,,,,,,,,
,,13,1,${e://Field/PROLIFIC_PID,F,18,2023-11-03_16h39.34.937,MouseEye_CC,2023.2.2,Win32,60.12867537,1.28,,,2195,1235,67.00800000000001,3.68,"387.45, 54.8, 34.81, 410.84, 61.05, 32.88, 35.1",627.38,11.69628991,43.04234686,27.83653633,Passed,144.191862,,,,,,,,,,,,,,,,,,,,,training,2,4,0,left,a,,,,,452.1589,452.2752,35.84,0.214355469,10.07141113,1,0,0,0.1162,fixationPoint,452.2752,452.3751,452.3751,454.642,35.84,10240,616.96,a,1,2.2548,,454.6421,454.8419,,,,,,,,75,-29,-124,66,170,221,120,161,18,-128,212,-75,120,-79,28,80,-123,27,-73,164,-18,-116,-172,-220,-124,180,360,270,180,270,90,90,90,180,360,180,,,,,,,,,,,454.842,454.8421,,0,19,19,19,1,5,repeated,,,,,,,,,,,,,,,,,,,,,,,,,,,,,,,,,,,,,,,,,,,,,,,,,
,,13,1,${e://Field/PROLIFIC_PID,F,18,2023-11-03_16h39.34.937,MouseEye_CC,2023.2.2,Win32,60.12867537,1.28,,,2195,1235,67.00800000000001,3.68,"387.45, 54.8, 34.81, 410.84, 61.05, 32.88, 35.1",627.38,11.69628991,43.04234686,27.83653633,Passed,144.191862,,,,,,,,,,,,,,,,,,,,,training,2,5,0,left,a,,,,,454.8423,455.0419,35.84,0.214355469,8.928405762,1,0,0,0.1996,fixationPoint,455.0419,455.1419,455.1419,456.5087,35.84,10240,616.96,a,1,1.3597,,456.5087,456.7086,,,,,,,,27,76,120,-223,221,-18,28,-24,126,-121,-208,-117,-71,-121,-123,27,-73,168,-72,165,-224,25,128,175,168,90,180,180,90,180,90,360,180,360,180,360,,,,,,,,,,,456.7087,456.7087,,0,20,20,20,1,1,repeated,,,,,,,,,,,,,,,,,,,,,,,,,,,,,,,,,,,,,,,,,,,,,,,,,
,,13,1,${e://Field/PROLIFIC_PID,F,18,2023-11-03_16h39.34.937,MouseEye_CC,2023.2.2,Win32,60.12867537,1.28,,,2195,1235,67.00800000000001,3.68,"387.45, 54.8, 34.81, 410.84, 61.05, 32.88, 35.1",627.38,11.69628991,43.04234686,27.83653633,Passed,144.191862,,,,,,,,,,,,,,,,,,,,,training,2,6,180,right,s,,,,,456.709,457.0753,35.84,0.214355469,8.928405762,1,0,0,0.3663,fixationPoint,457.0754,457.1754,457.1754,459.0089,35.84,10240,616.96,s,1,1.8224,,459.0089,459.2088,,,,,,,,63,-117,-71,70,223,221,120,161,18,-77,161,-164,224,-77,64,212,-67,116,-125,68,-164,-20,-66,-80,-76,360,270,90,90,90,270,180,180,90,360,180,,,,,,,,,,,459.2089,459.209,,0,21,21,21,1,10,novel,,,,,,,,,,,,,,,,,,,,,,,,,,,,,,,,,,,,,,,,,,,,,,,,,
,,13,1,${e://Field/PROLIFIC_PID,F,18,2023-11-03_16h39.34.937,MouseEye_CC,2023.2.2,Win32,60.12867537,1.28,,,2195,1235,67.00800000000001,3.68,"387.45, 54.8, 34.81, 410.84, 61.05, 32.88, 35.1",627.38,11.69628991,43.04234686,27.83653633,Passed,144.191862,,,,,,,,,,,,,,,,,,,,,training,2,7,180,right,s,,,,,459.2092,459.2589,35.84,0.214355469,8.928405762,1,0,0,0.0497,fixationPoint,459.259,459.3588,459.3588,461.9424,35.84,10240,616.96,s,1,2.5601,,461.9424,462.1423,,,,,,,,58,114,-25,124,168,73,79,126,209,-173,76,-166,28,-224,128,-20,-66,-176,-32,-26,-211,79,-221,127,-161,270,270,90,180,270,90,180,90,90,270,360,,,,,,,,,,,462.1424,462.1424,,0,22,22,22,1,7,repeated,,,,,,,,,,,,,,,,,,,,,,,,,,,,,,,,,,,,,,,,,,,,,,,,,
,,13,1,${e://Field/PROLIFIC_PID,F,18,2023-11-03_16h39.34.937,MouseEye_CC,2023.2.2,Win32,60.12867537,1.28,,,2195,1235,67.00800000000001,3.68,"387.45, 54.8, 34.81, 410.84, 61.05, 32.88, 35.1",627.38,11.69628991,43.04234686,27.83653633,Passed,144.191862,,,,,,,,,,,,,,,,,,,,,training,2,8,0,left,a,,,,,462.1427,462.1758,35.84,0.214355469,8.928405762,1,0,0,0.033,fixationPoint,462.1758,462.2757,462.2757,464.3258,35.84,10240,616.96,a,1,2.033,,464.3258,464.5258,,,,,,,,43,-120,24,71,20,123,27,25,128,-163,-79,-67,-117,-116,-172,168,-72,165,-224,79,-221,-118,65,-77,64,180,180,90,270,180,360,270,180,90,90,270,,,,,,,,,,,464.5259,464.5259,,0,23,23,23,1,15,novel,,,,,,,,,,,,,,,,,,,,,,,,,,,,,,,,,,,,,,,,,,,,,,,,,
,,13,1,${e://Field/PROLIFIC_PID,F,18,2023-11-03_16h39.34.937,MouseEye_CC,2023.2.2,Win32,60.12867537,1.28,,,2195,1235,67.00800000000001,3.68,"387.45, 54.8, 34.81, 410.84, 61.05, 32.88, 35.1",627.38,11.69628991,43.04234686,27.83653633,Passed,144.191862,,,,,,,,,,,,,,,,,,,,,training,2,9,180,right,s,,,,,464.5261,464.5425,35.84,0.214355469,8.928405762,1,0,0,0.0164,fixationPoint,464.5425,464.6424,464.6424,468.4927,35.84,10240,616.96,s,1,3.8427,,468.4928,468.6927,,,,,,,,38,127,78,-27,162,-120,24,-216,70,-163,-79,-116,-172,-211,-19,163,-116,127,-161,216,-164,25,128,32,71,180,90,180,180,90,180,270,360,90,180,360,,,,,,,,,,,468.6928,468.6929,,0,24,24,24,1,2,repeated,,,,,,,,,,,,,,,,,,,,,,,,,,,,,,,,,,,,,,,,,,,,,,,,,
,,13,1,${e://Field/PROLIFIC_PID,F,18,2023-11-03_16h39.34.937,MouseEye_CC,2023.2.2,Win32,60.12867537,1.28,,,2195,1235,67.00800000000001,3.68,"387.45, 54.8, 34.81, 410.84, 61.05, 32.88, 35.1",627.38,11.69628991,43.04234686,27.83653633,Passed,144.191862,,,,,,,,,,,,,,,,,,,,,training,2,10,0,left,a,,,,,468.6931,468.8928,35.84,0.785888672,11.21411133,1,0,0,0.1995,fixationPoint,468.8928,468.9928,468.9928,472.6097,35.84,10240,616.96,a,1,3.6047,,472.6097,472.8096,,,,,,,,77,80,-123,169,74,120,127,124,168,-166,28,-220,16,-128,112,-172,-167,-68,-172,-121,-208,64,-26,114,-25,180,180,270,180,270,270,90,360,90,270,360,,,,,,,,,,,472.8097,472.8098,,0,25,25,25,1,12,novel,,,,,,,,,,,,,,,,,,,,,,,,,,,,,,,,,,,,,,,,,,,,,,,,,
,,13,1,${e://Field/PROLIFIC_PID,F,18,2023-11-03_16h39.34.937,MouseEye_CC,2023.2.2,Win32,60.12867537,1.28,,,2195,1235,67.00800000000001,3.68,"387.45, 54.8, 34.81, 410.84, 61.05, 32.88, 35.1",627.38,11.69628991,43.04234686,27.83653633,Passed,144.191862,,,,,,,,,,,,,,,,,,,,,training,2,11,0,left,a,,,,,472.8101,472.993,35.84,0.785888672,11.21411133,1,0,0,0.1829,fixationPoint,472.9931,473.093,473.093,474.8933,35.84,10240,616.96,a,1,1.7921,,474.8933,475.0932,,,,,,,,22,-175,118,32,71,126,209,169,74,-172,-167,-22,-16,-176,-32,224,-30,68,-164,30,-24,-212,165,-24,126,180,90,90,270,360,180,270,360,180,270,180,,,,,,,,,,,475.0932,475.0933,,0,26,26,26,1,3,repeated,,,,,,,,,,,,,,,,,,,,,,,,,,,,,,,,,,,,,,,,,,,,,,,,,
,,13,1,${e://Field/PROLIFIC_PID,F,18,2023-11-03_16h39.34.937,MouseEye_CC,2023.2.2,Win32,60.12867537,1.28,,,2195,1235,67.00800000000001,3.68,"387.45, 54.8, 34.81, 410.84, 61.05, 32.88, 35.1",627.38,11.69628991,43.04234686,27.83653633,Passed,144.191862,,,,,,,,,,,,,,,,,,,,,training,2,12,180,right,s,,,,,475.0935,475.1433,35.84,0.785888672,11.21411133,1,0,0,0.0497,fixationPoint,475.1433,475.2431,475.2432,477.1599,35.84,10240,616.96,s,1,1.8996,,477.16,477.3599,,,,,,,,72,-170,-125,127,78,71,20,32,71,-223,221,-128,112,-27,74,28,-214,80,-123,23,-119,-167,-213,-124,-20,270,270,90,270,360,90,90,360,180,270,90,,,,,,,,,,,477.3599,477.36,,0,27,27,27,1,6,repeated,,,,,,,,,,,,,,,,,,,,,,,,,,,,,,,,,,,,,,,,,,,,,,,,,
,,13,1,${e://Field/PROLIFIC_PID,F,18,2023-11-03_16h39.34.937,MouseEye_CC,2023.2.2,Win32,60.12867537,1.28,,,2195,1235,67.00800000000001,3.68,"387.45, 54.8, 34.81, 410.84, 61.05, 32.88, 35.1",627.38,11.69628991,43.04234686,27.83653633,Passed,144.191862,,,,,,,,,,,,,,,,,,,,,training,2,13,180,right,s,,,,,477.3602,477.7433,35.84,0.785888672,11.21411133,1,0,0,0.3829,fixationPoint,477.7433,477.8433,477.8433,480.7434,35.84,10240,616.96,s,1,2.8907,,480.7435,480.9434,,,,,,,,79,163,-116,70,223,124,168,32,71,-27,74,-20,208,-223,221,-121,-123,-121,-208,-74,-213,224,-30,64,-26,90,90,270,180,360,270,90,270,90,360,180,,,,,,,,,,,480.9434,480.9435,,0,28,28,28,1,11,novel,,,,,,,,,,,,,,,,,,,,,,,,,,,,,,,,,,,,,,,,,,,,,,,,,
,,13,1,${e://Field/PROLIFIC_PID,F,18,2023-11-03_16h39.34.937,MouseEye_CC,2023.2.2,Win32,60.12867537,1.28,,,2195,1235,67.00800000000001,3.68,"387.45, 54.8, 34.81, 410.84, 61.05, 32.88, 35.1",627.38,11.69628991,43.04234686,27.83653633,Passed,144.191862,,,,,,,,,,,,,,,,,,,,,training,2,14,0,left,a,,,,,480.9437,481.06,35.84,0.785888672,10.64282227,1,0,0,0.1162,fixationPoint,481.0601,481.1601,481.1601,483.427,35.84,10240,616.96,a,1,2.253,,483.427,483.627,,,,,,,,29,168,114,-224,128,-112,162,-75,120,-167,-213,-222,-75,-26,-211,116,-125,213,-128,28,-214,175,168,66,170,270,180,270,270,90,90,270,90,90,90,360,,,,,,,,,,,483.6271,483.6271,,0,29,29,29,1,14,novel,,,,,,,,,,,,,,,,,,,,,,,,,,,,,,,,,,,,,,,,,,,,,,,,,
,,13,1,${e://Field/PROLIFIC_PID,F,18,2023-11-03_16h39.34.937,MouseEye_CC,2023.2.2,Win32,60.12867537,1.28,,,2195,1235,67.00800000000001,3.68,"387.45, 54.8, 34.81, 410.84, 61.05, 32.88, 35.1",627.38,11.69628991,43.04234686,27.83653633,Passed,144.191862,,,,,,,,,,,,,,,,,,,,,training,2,15,0,left,a,,,,,483.6274,483.7103,35.84,0.785888672,10.64282227,1,0,0,0.0828,fixationPoint,483.7103,483.8103,483.8104,485.6104,35.84,10240,616.96,a,1,1.7954,,485.6105,485.8103,,,,,,,,24,-75,120,216,164,175,168,210,67,-222,-75,-22,-16,-117,-71,164,-18,127,-161,28,-168,-20,208,-120,24,90,360,90,270,270,270,360,90,270,90,360,,,,,,,,,,,485.8104,485.8104,,0,30,30,30,1,4,repeated,,,,,,,,,,,,,,,,,,,,,,,,,,,,,,,,,,,,,,,,,,,,,,,,,
,,13,1,${e://Field/PROLIFIC_PID,F,18,2023-11-03_16h39.34.937,MouseEye_CC,2023.2.2,Win32,60.12867537,1.28,,,2195,1235,67.00800000000001,3.68,"387.45, 54.8, 34.81, 410.84, 61.05, 32.88, 35.1",627.38,11.69628991,43.04234686,27.83653633,Passed,144.191862,,,,,,,,,,,,,,,,,,,,,training,2,16,0,left,a,,,,,485.8108,485.9604,35.84,0.785888672,10.64282227,1,0,0,0.1496,fixationPoint,485.9605,486.0605,486.0605,487.0105,35.84,10240,616.96,a,1,0.9371,,487.0106,487.2105,,,,,,,,26,25,128,-175,118,-118,65,-166,28,-68,-172,-121,-208,-74,-213,114,-25,219,-219,116,-125,161,18,30,163,360,180,360,180,270,360,180,180,180,270,90,,,,,,,,,,,487.2105,488.944,space,0,31,31,31,1,13,novel,1.7289,,,,,,,,,,,,,,,,,,,,,,,,,,,,,,,,,,,,,,,,,,,,,,,,
,,13,1,${e://Field/PROLIFIC_PID,F,18,2023-11-03_16h39.34.937,MouseEye_CC,2023.2.2,Win32,60.12867537,1.28,,,2195,1235,67.00800000000001,3.68,"387.45, 54.8, 34.81, 410.84, 61.05, 32.88, 35.1",627.38,11.69628991,43.04234686,27.83653633,Passed,144.191862,,,,,,,,,,,,,,,,,,,,,training,3,1,0,left,a,,,,,488.9442,489.4272,35.84,3.071655273,3.785705566,1,0,0,0.4829,fixationPoint,489.4273,489.5273,489.5273,490.2607,35.84,10240,616.96,a,1,0.7262,,490.2607,490.4608,,,,,,,,25,-24,126,127,78,126,209,66,170,-117,-71,-80,-18,-116,-172,80,-123,168,-72,219,-219,-173,76,-77,161,360,270,270,180,270,270,360,360,90,360,360,,,,,,,,,,,490.4608,490.4617,,0,32,32,32,1,16,novel,,,,,,,,,,,,,,,,,,,,,,,,,,,,,,,,,,,,,,,,,,,,,,,,,
,,13,1,${e://Field/PROLIFIC_PID,F,18,2023-11-03_16h39.34.937,MouseEye_CC,2023.2.2,Win32,60.12867537,1.28,,,2195,1235,67.00800000000001,3.68,"387.45, 54.8, 34.81, 410.84, 61.05, 32.88, 35.1",627.38,11.69628991,43.04234686,27.83653633,Passed,144.191862,,,,,,,,,,,,,,,,,,,,,training,3,2,0,left,a,,,,,490.4619,490.8441,35.84,-0.357055664,4.928405762,1,0,0,0.3821,fixationPoint,490.8441,490.9441,490.9442,493.0443,35.84,10240,616.96,a,1,2.0867,,493.0443,493.2443,,,,,,,,58,114,-25,124,168,73,79,126,209,-173,76,-166,28,-224,128,-20,-66,-176,-32,-26,-211,79,-221,127,-161,90,360,270,180,180,180,360,270,360,360,180,,,,,,,,,,,493.2443,493.2445,,0,33,33,33,1,7,repeated,,,,,,,,,,,,,,,,,,,,,,,,,,,,,,,,,,,,,,,,,,,,,,,,,
,,13,1,${e://Field/PROLIFIC_PID,F,18,2023-11-03_16h39.34.937,MouseEye_CC,2023.2.2,Win32,60.12867537,1.28,,,2195,1235,67.00800000000001,3.68,"387.45, 54.8, 34.81, 410.84, 61.05, 32.88, 35.1",627.38,11.69628991,43.04234686,27.83653633,Passed,144.191862,,,,,,,,,,,,,,,,,,,,,training,3,3,0,left,a,,,,,493.2447,493.3942,35.84,-7.785644531,3.785705566,1,0,0,0.1494,fixationPoint,493.3942,493.4942,493.4942,495.1109,35.84,10240,616.96,a,1,1.5941,,495.111,495.311,,,,,,,,22,-175,118,32,71,126,209,169,74,-172,-167,-22,-16,-176,-32,224,-30,68,-164,30,-24,-212,165,-24,126,180,270,90,90,90,360,180,270,90,270,360,,,,,,,,,,,495.311,495.3111,,0,34,34,34,1,3,repeated,,,,,,,,,,,,,,,,,,,,,,,,,,,,,,,,,,,,,,,,,,,,,,,,,
,,13,1,${e://Field/PROLIFIC_PID,F,18,2023-11-03_16h39.34.937,MouseEye_CC,2023.2.2,Win32,60.12867537,1.28,,,2195,1235,67.00800000000001,3.68,"387.45, 54.8, 34.81, 410.84, 61.05, 32.88, 35.1",627.38,11.69628991,43.04234686,27.83653633,Passed,144.191862,,,,,,,,,,,,,,,,,,,,,training,3,4,0,left,a,,,,,495.3113,495.7445,35.84,-7.785644531,3.785705566,1,0,0,0.4331,fixationPoint,495.7445,495.8443,495.8444,498.3279,35.84,10240,616.96,a,1,2.4664,,498.3279,498.5277,,,,,,,,77,80,-123,26,17,127,78,212,22,-77,64,-173,76,-164,224,-167,-213,-26,-211,-208,-176,116,-125,118,-211,360,180,270,270,360,360,90,270,360,360,180,,,,,,,,,,,498.5278,498.5279,,0,35,35,35,1,12,novel,,,,,,,,,,,,,,,,,,,,,,,,,,,,,,,,,,,,,,,,,,,,,,,,,
,,13,1,${e://Field/PROLIFIC_PID,F,18,2023-11-03_16h39.34.937,MouseEye_CC,2023.2.2,Win32,60.12867537,1.28,,,2195,1235,67.00800000000001,3.68,"387.45, 54.8, 34.81, 410.84, 61.05, 32.88, 35.1",627.38,11.69628991,43.04234686,27.83653633,Passed,144.191862,,,,,,,,,,,,,,,,,,,,,training,3,5,180,right,s,,,,,498.5281,498.6278,35.84,-8.928344727,0.928405762,1,0,0,0.0997,fixationPoint,498.6279,498.7279,498.7279,500.628,35.84,10240,616.96,s,1,1.8859,,500.628,500.828,,,,,,,,76,23,-119,127,78,126,209,175,168,-212,165,-77,64,-128,112,-176,-32,-29,-124,-170,-125,64,-26,174,-167,360,360,270,90,90,180,90,360,270,180,360,,,,,,,,,,,500.828,500.828,,0,36,36,36,1,8,repeated,,,,,,,,,,,,,,,,,,,,,,,,,,,,,,,,,,,,,,,,,,,,,,,,,
,,13,1,${e://Field/PROLIFIC_PID,F,18,2023-11-03_16h39.34.937,MouseEye_CC,2023.2.2,Win32,60.12867537,1.28,,,2195,1235,67.00800000000001,3.68,"387.45, 54.8, 34.81, 410.84, 61.05, 32.88, 35.1",627.38,11.69628991,43.04234686,27.83653633,Passed,144.191862,,,,,,,,,,,,,,,,,,,,,training,3,6,180,right,s,,,,,500.8283,501.0113,35.84,-8.928344727,0.928405762,1,0,0,0.183,fixationPoint,501.0113,501.1114,501.1114,504.3616,35.84,10240,616.96,s,1,3.246,,504.3617,504.5615,,,,,,,,72,-170,-125,127,78,71,20,32,71,-223,221,-128,112,-27,74,28,-214,80,-123,23,-119,-167,-213,-124,-20,90,270,360,270,180,360,360,360,90,90,180,,,,,,,,,,,504.5616,504.5616,,0,37,37,37,1,6,repeated,,,,,,,,,,,,,,,,,,,,,,,,,,,,,,,,,,,,,,,,,,,,,,,,,
,,13,1,${e://Field/PROLIFIC_PID,F,18,2023-11-03_16h39.34.937,MouseEye_CC,2023.2.2,Win32,60.12867537,1.28,,,2195,1235,67.00800000000001,3.68,"387.45, 54.8, 34.81, 410.84, 61.05, 32.88, 35.1",627.38,11.69628991,43.04234686,27.83653633,Passed,144.191862,,,,,,,,,,,,,,,,,,,,,training,3,7,0,left,a,,,,,504.5618,504.7949,35.84,-10.07141113,-1.357177734,1,0,0,0.2331,fixationPoint,504.795,504.8949,504.8949,508.1451,35.84,10240,616.96,a,1,3.2318,,508.1451,508.3451,,,,,,,,74,-67,-117,168,114,175,168,127,78,-223,221,-216,70,-80,219,216,-164,28,-168,27,-73,-124,-20,-163,-79,360,90,90,90,360,270,360,270,270,90,360,,,,,,,,,,,508.3451,508.3452,,0,38,38,38,1,9,novel,,,,,,,,,,,,,,,,,,,,,,,,,,,,,,,,,,,,,,,,,,,,,,,,,
,,13,1,${e://Field/PROLIFIC_PID,F,18,2023-11-03_16h39.34.937,MouseEye_CC,2023.2.2,Win32,60.12867537,1.28,,,2195,1235,67.00800000000001,3.68,"387.45, 54.8, 34.81, 410.84, 61.05, 32.88, 35.1",627.38,11.69628991,43.04234686,27.83653633,Passed,144.191862,,,,,,,,,,,,,,,,,,,,,training,3,8,180,right,s,,,,,508.3454,508.7284,35.84,-10.07141113,-1.357177734,1,0,0,0.383,fixationPoint,508.7284,508.8284,508.8285,512.6454,35.84,10240,616.96,s,1,3.8007,,512.6455,512.8453,,,,,,,,38,127,78,-27,162,-120,24,-216,70,-163,-79,-116,-172,-211,-19,163,-116,127,-161,216,-164,25,128,32,71,90,90,180,360,90,180,360,360,360,90,180,,,,,,,,,,,512.8454,512.8455,,0,39,39,39,1,2,repeated,,,,,,,,,,,,,,,,,,,,,,,,,,,,,,,,,,,,,,,,,,,,,,,,,
,,13,1,${e://Field/PROLIFIC_PID,F,18,2023-11-03_16h39.34.937,MouseEye_CC,2023.2.2,Win32,60.12867537,1.28,,,2195,1235,67.00800000000001,3.68,"387.45, 54.8, 34.81, 410.84, 61.05, 32.88, 35.1",627.38,11.69628991,43.04234686,27.83653633,Passed,144.191862,,,,,,,,,,,,,,,,,,,,,training,3,9,0,left,a,,,,,512.8457,512.9787,35.84,-10.07141113,-1.357177734,1,0,0,0.1329,fixationPoint,512.9787,513.0787,513.0787,514.1455,35.84,10240,616.96,a,1,1.0623,,514.1455,514.3454,,,,,,,,27,76,120,-223,221,-18,28,-24,126,-121,-208,-117,-71,-121,-123,27,-73,168,-72,165,-224,25,128,175,168,270,360,270,180,360,180,180,270,270,180,180,,,,,,,,,,,514.3454,514.3455,,0,40,40,40,1,1,repeated,,,,,,,,,,,,,,,,,,,,,,,,,,,,,,,,,,,,,,,,,,,,,,,,,
,,13,1,${e://Field/PROLIFIC_PID,F,18,2023-11-03_16h39.34.937,MouseEye_CC,2023.2.2,Win32,60.12867537,1.28,,,2195,1235,67.00800000000001,3.68,"387.45, 54.8, 34.81, 410.84, 61.05, 32.88, 35.1",627.38,11.69628991,43.04234686,27.83653633,Passed,144.191862,,,,,,,,,,,,,,,,,,,,,training,3,10,180,right,s,,,,,514.3458,514.4622,35.84,-10.07141113,-1.357177734,1,0,0,0.1164,fixationPoint,514.4622,514.5622,514.5622,515.9956,35.84,10240,616.96,s,1,1.4192,,515.9956,516.1955,,,,,,,,43,-120,24,73,79,175,168,169,74,-163,-79,-222,-75,-121,-208,163,-116,28,-214,224,-30,-18,28,-75,120,270,90,90,360,270,180,180,270,360,270,270,,,,,,,,,,,516.1955,516.1956,,0,41,41,41,1,15,novel,,,,,,,,,,,,,,,,,,,,,,,,,,,,,,,,,,,,,,,,,,,,,,,,,
,,13,1,${e://Field/PROLIFIC_PID,F,18,2023-11-03_16h39.34.937,MouseEye_CC,2023.2.2,Win32,60.12867537,1.28,,,2195,1235,67.00800000000001,3.68,"387.45, 54.8, 34.81, 410.84, 61.05, 32.88, 35.1",627.38,11.69628991,43.04234686,27.83653633,Passed,144.191862,,,,,,,,,,,,,,,,,,,,,training,3,11,0,left,a,,,,,516.1958,516.3456,35.84,-10.07141113,-1.357177734,1,0,0,0.1496,fixationPoint,516.3456,516.4455,516.4455,519.579,35.84,10240,616.96,a,1,3.1199,,519.5791,519.779,,,,,,,,63,-117,-71,76,120,127,78,175,168,-173,76,-24,126,-77,161,68,-164,71,-73,174,-167,-22,-16,-80,-76,360,90,90,360,180,270,270,180,180,180,180,,,,,,,,,,,519.7791,519.7792,,0,42,42,42,1,10,novel,,,,,,,,,,,,,,,,,,,,,,,,,,,,,,,,,,,,,,,,,,,,,,,,,
,,13,1,${e://Field/PROLIFIC_PID,F,18,2023-11-03_16h39.34.937,MouseEye_CC,2023.2.2,Win32,60.12867537,1.28,,,2195,1235,67.00800000000001,3.68,"387.45, 54.8, 34.81, 410.84, 61.05, 32.88, 35.1",627.38,11.69628991,43.04234686,27.83653633,Passed,144.191862,,,,,,,,,,,,,,,,,,,,,training,3,12,180,right,s,,,,,519.7794,519.8958,35.84,-10.07141113,-1.357177734,1,0,0,0.1163,fixationPoint,519.8958,519.9958,519.9958,525.7795,35.84,10240,616.96,s,1,5.7716,,525.7795,525.9795,,,,,,,,29,168,114,-20,208,-166,28,-77,64,-29,-124,-121,-208,-121,-123,80,-123,23,-119,30,-24,25,215,169,74,360,270,180,270,180,180,360,270,270,270,90,,,,,,,,,,,525.9796,525.9796,,0,43,43,43,1,14,novel,,,,,,,,,,,,,,,,,,,,,,,,,,,,,,,,,,,,,,,,,,,,,,,,,
,,13,1,${e://Field/PROLIFIC_PID,F,18,2023-11-03_16h39.34.937,MouseEye_CC,2023.2.2,Win32,60.12867537,1.28,,,2195,1235,67.00800000000001,3.68,"387.45, 54.8, 34.81, 410.84, 61.05, 32.88, 35.1",627.38,11.69628991,43.04234686,27.83653633,Passed,144.191862,,,,,,,,,,,,,,,,,,,,,training,3,13,180,right,s,,,,,525.9799,526.3795,35.84,-10.07141113,-1.357177734,1,0,0,0.3995,fixationPoint,526.3795,526.4797,526.4797,528.5297,35.84,10240,616.96,s,1,2.0377,,528.5297,528.7295,,,,,,,,79,163,-116,32,71,70,223,169,74,-173,76,-175,118,-77,161,-220,-224,-20,-66,-172,-167,68,-164,79,-221,90,360,270,270,270,270,180,360,270,180,90,,,,,,,,,,,528.7296,528.7297,,0,44,44,44,1,11,novel,,,,,,,,,,,,,,,,,,,,,,,,,,,,,,,,,,,,,,,,,,,,,,,,,
,,13,1,${e://Field/PROLIFIC_PID,F,18,2023-11-03_16h39.34.937,MouseEye_CC,2023.2.2,Win32,60.12867537,1.28,,,2195,1235,67.00800000000001,3.68,"387.45, 54.8, 34.81, 410.84, 61.05, 32.88, 35.1",627.38,11.69628991,43.04234686,27.83653633,Passed,144.191862,,,,,,,,,,,,,,,,,,,,,training,3,14,180,right,s,,,,,528.7298,528.8631,35.84,3.071655273,7.785705566,1,0,0,0.1331,fixationPoint,528.8631,528.9629,528.9629,531.6799,35.84,10240,616.96,s,1,2.7135,,531.68,531.88,,,,,,,,75,-29,-124,66,170,221,120,161,18,-128,212,-75,120,-79,28,80,-123,27,-73,164,-18,-116,-172,-220,-124,180,270,180,180,180,90,90,90,270,90,90,,,,,,,,,,,531.88,531.8801,,0,45,45,45,1,5,repeated,,,,,,,,,,,,,,,,,,,,,,,,,,,,,,,,,,,,,,,,,,,,,,,,,
,,13,1,${e://Field/PROLIFIC_PID,F,18,2023-11-03_16h39.34.937,MouseEye_CC,2023.2.2,Win32,60.12867537,1.28,,,2195,1235,67.00800000000001,3.68,"387.45, 54.8, 34.81, 410.84, 61.05, 32.88, 35.1",627.38,11.69628991,43.04234686,27.83653633,Passed,144.191862,,,,,,,,,,,,,,,,,,,,,training,3,15,0,left,a,,,,,531.8803,532.3965,35.84,4.785888672,7.214111328,1,0,0,0.5161,fixationPoint,532.3965,532.4965,532.4965,536.0635,35.84,10240,616.96,a,1,3.5509,,536.0635,536.2633,,,,,,,,26,25,128,-27,74,-128,212,-223,221,-21,-172,-116,-172,-211,-19,114,-25,118,-211,213,-128,161,214,30,163,180,270,270,360,180,180,90,180,180,180,90,,,,,,,,,,,536.2634,536.2635,,0,46,46,46,1,13,novel,,,,,,,,,,,,,,,,,,,,,,,,,,,,,,,,,,,,,,,,,,,,,,,,,
,,13,1,${e://Field/PROLIFIC_PID,F,18,2023-11-03_16h39.34.937,MouseEye_CC,2023.2.2,Win32,60.12867537,1.28,,,2195,1235,67.00800000000001,3.68,"387.45, 54.8, 34.81, 410.84, 61.05, 32.88, 35.1",627.38,11.69628991,43.04234686,27.83653633,Passed,144.191862,,,,,,,,,,,,,,,,,,,,,training,3,16,180,right,s,,,,,536.2638,536.3634,35.84,4.785888672,7.214111328,1,0,0,0.0995,fixationPoint,536.3635,536.4634,536.4634,538.9136,35.84,10240,616.96,s,1,2.4299,,538.9136,539.1136,,,,,,,,24,-75,120,216,164,175,168,210,67,-222,-75,-22,-16,-117,-71,164,-18,127,-161,28,-168,-20,208,-120,24,360,360,90,180,360,270,360,360,90,90,180,,,,,,,,,,,539.1136,540.8305,space,0,47,47,47,1,4,repeated,1.7055,,,,,,,,,,,,,,,,,,,,,,,,,,,,,,,,,,,,,,,,,,,,,,,,
,,13,1,${e://Field/PROLIFIC_PID,F,18,2023-11-03_16h39.34.937,MouseEye_CC,2023.2.2,Win32,60.12867537,1.28,,,2195,1235,67.00800000000001,3.68,"387.45, 54.8, 34.81, 410.84, 61.05, 32.88, 35.1",627.38,11.69628991,43.04234686,27.83653633,Passed,144.191862,,,,,,,,,,,,,,,,,,,,,training,4,1,0,left,a,,,,,540.8307,541.247,35.84,11.07165527,-7.642883301,1,0,0,0.4163,fixationPoint,541.247,541.3471,541.3471,543.3139,35.84,10240,616.96,a,1,1.9551,,543.3139,543.5138,,,,,,,,58,114,-25,124,168,73,79,126,209,-173,76,-166,28,-224,128,-20,-66,-176,-32,-26,-211,79,-221,127,-161,180,90,360,180,360,360,270,90,180,270,180,,,,,,,,,,,543.5139,543.5147,,0,48,48,48,1,7,repeated,,,,,,,,,,,,,,,,,,,,,,,,,,,,,,,,,,,,,,,,,,,,,,,,,
,,13,1,${e://Field/PROLIFIC_PID,F,18,2023-11-03_16h39.34.937,MouseEye_CC,2023.2.2,Win32,60.12867537,1.28,,,2195,1235,67.00800000000001,3.68,"387.45, 54.8, 34.81, 410.84, 61.05, 32.88, 35.1",627.38,11.69628991,43.04234686,27.83653633,Passed,144.191862,,,,,,,,,,,,,,,,,,,,,training,4,2,180,right,s,,,,,543.515,543.6305,35.84,7.642944336,6.071411133,1,0,0,0.1154,fixationPoint,543.6305,543.7305,543.7306,546.864,35.84,10240,616.96,s,1,3.1229,,546.8641,547.0641,,,,,,,,24,-75,120,216,164,175,168,210,67,-222,-75,-22,-16,-117,-71,164,-18,127,-161,28,-168,-20,208,-120,24,90,90,90,270,270,180,270,360,270,90,180,,,,,,,,,,,547.0642,547.0642,,0,49,49,49,1,4,repeated,,,,,,,,,,,,,,,,,,,,,,,,,,,,,,,,,,,,,,,,,,,,,,,,,
,,13,1,${e://Field/PROLIFIC_PID,F,18,2023-11-03_16h39.34.937,MouseEye_CC,2023.2.2,Win32,60.12867537,1.28,,,2195,1235,67.00800000000001,3.68,"387.45, 54.8, 34.81, 410.84, 61.05, 32.88, 35.1",627.38,11.69628991,43.04234686,27.83653633,Passed,144.191862,,,,,,,,,,,,,,,,,,,,,training,4,3,180,right,s,,,,,547.0644,547.3973,35.84,13.92858887,-1.928588867,1,0,0,0.3328,fixationPoint,547.3974,547.4974,547.4975,548.6977,35.84,10240,616.96,s,1,1.1811,,548.6977,548.8975,,,,,,,,27,76,120,-223,221,-18,28,-24,126,-121,-208,-117,-71,-121,-123,27,-73,168,-72,165,-224,25,128,175,168,180,180,90,90,360,270,90,90,90,270,180,,,,,,,,,,,548.8976,548.8977,,0,50,50,50,1,1,repeated,,,,,,,,,,,,,,,,,,,,,,,,,,,,,,,,,,,,,,,,,,,,,,,,,
,,13,1,${e://Field/PROLIFIC_PID,F,18,2023-11-03_16h39.34.937,MouseEye_CC,2023.2.2,Win32,60.12867537,1.28,,,2195,1235,67.00800000000001,3.68,"387.45, 54.8, 34.81, 410.84, 61.05, 32.88, 35.1",627.38,11.69628991,43.04234686,27.83653633,Passed,144.191862,,,,,,,,,,,,,,,,,,,,,training,4,4,0,left,a,,,,,548.8979,549.0808,35.84,13.92858887,-1.928588867,1,0,0,0.1829,fixationPoint,549.0809,549.1809,549.1809,551.2645,35.84,10240,616.96,a,1,2.0808,,551.2645,551.4642,,,,,,,,74,-67,-117,169,74,120,127,161,18,-164,224,-20,208,-118,65,168,-72,71,-73,174,-167,-211,-19,-116,-172,270,90,270,180,360,360,270,270,180,90,180,,,,,,,,,,,551.4643,551.4643,,0,51,51,51,1,9,novel,,,,,,,,,,,,,,,,,,,,,,,,,,,,,,,,,,,,,,,,,,,,,,,,,
,,13,1,${e://Field/PROLIFIC_PID,F,18,2023-11-03_16h39.34.937,MouseEye_CC,2023.2.2,Win32,60.12867537,1.28,,,2195,1235,67.00800000000001,3.68,"387.45, 54.8, 34.81, 410.84, 61.05, 32.88, 35.1",627.38,11.69628991,43.04234686,27.83653633,Passed,144.191862,,,,,,,,,,,,,,,,,,,,,training,4,5,180,right,s,,,,,551.4645,551.6811,35.84,13.92858887,-1.928588867,1,0,0,0.2164,fixationPoint,551.6811,551.781,551.781,554.5478,35.84,10240,616.96,s,1,2.7605,,554.5478,554.7478,,,,,,,,29,168,114,-24,126,-173,76,-18,28,-21,-172,-220,-124,-29,-124,212,-67,68,-164,165,-224,73,79,127,78,270,90,270,360,90,180,180,360,270,360,180,,,,,,,,,,,554.7478,554.7479,,0,52,52,52,1,14,novel,,,,,,,,,,,,,,,,,,,,,,,,,,,,,,,,,,,,,,,,,,,,,,,,,
,,13,1,${e://Field/PROLIFIC_PID,F,18,2023-11-03_16h39.34.937,MouseEye_CC,2023.2.2,Win32,60.12867537,1.28,,,2195,1235,67.00800000000001,3.68,"387.45, 54.8, 34.81, 410.84, 61.05, 32.88, 35.1",627.38,11.69628991,43.04234686,27.83653633,Passed,144.191862,,,,,,,,,,,,,,,,,,,,,training,4,6,180,right,s,,,,,554.7481,555.4147,35.84,16.21435547,-5.357177734,1,0,0,0.6666,fixationPoint,555.4148,555.5145,555.5145,558.7147,35.84,10240,616.96,s,1,3.1903,,558.7148,558.9146,,,,,,,,77,80,-123,70,223,168,114,216,164,-174,169,-77,64,-224,128,-80,-18,-222,-75,-117,-71,71,-73,64,-26,180,270,90,360,180,180,90,180,180,90,360,,,,,,,,,,,558.9147,558.9148,,0,53,53,53,1,12,novel,,,,,,,,,,,,,,,,,,,,,,,,,,,,,,,,,,,,,,,,,,,,,,,,,
,,13,1,${e://Field/PROLIFIC_PID,F,18,2023-11-03_16h39.34.937,MouseEye_CC,2023.2.2,Win32,60.12867537,1.28,,,2195,1235,67.00800000000001,3.68,"387.45, 54.8, 34.81, 410.84, 61.05, 32.88, 35.1",627.38,11.69628991,43.04234686,27.83653633,Passed,144.191862,,,,,,,,,,,,,,,,,,,,,training,4,7,0,left,a,,,,,558.915,559.2814,35.84,3.071655273,2.642822266,1,0,0,0.3663,fixationPoint,559.2815,559.3816,559.3817,563.4318,35.84,10240,616.96,a,1,4.0414,,563.4318,563.6317,,,,,,,,72,-170,-125,127,78,71,20,32,71,-223,221,-128,112,-27,74,28,-214,80,-123,23,-119,-167,-213,-124,-20,270,180,180,360,270,360,90,360,270,180,360,,,,,,,,,,,563.6317,563.6319,,0,54,54,54,1,6,repeated,,,,,,,,,,,,,,,,,,,,,,,,,,,,,,,,,,,,,,,,,,,,,,,,,
,,13,1,${e://Field/PROLIFIC_PID,F,18,2023-11-03_16h39.34.937,MouseEye_CC,2023.2.2,Win32,60.12867537,1.28,,,2195,1235,67.00800000000001,3.68,"387.45, 54.8, 34.81, 410.84, 61.05, 32.88, 35.1",627.38,11.69628991,43.04234686,27.83653633,Passed,144.191862,,,,,,,,,,,,,,,,,,,,,training,4,8,0,left,a,,,,,563.632,563.7484,35.84,1.928588867,1.5,1,0,0,0.1163,fixationPoint,563.7484,563.8484,563.8484,566.9819,35.84,10240,616.96,a,1,3.1251,,566.982,567.1819,,,,,,,,75,-29,-124,66,170,221,120,161,18,-128,212,-75,120,-79,28,80,-123,27,-73,164,-18,-116,-172,-220,-124,180,90,360,270,270,180,360,90,360,180,90,,,,,,,,,,,567.182,567.182,,0,55,55,55,1,5,repeated,,,,,,,,,,,,,,,,,,,,,,,,,,,,,,,,,,,,,,,,,,,,,,,,,
,,13,1,${e://Field/PROLIFIC_PID,F,18,2023-11-03_16h39.34.937,MouseEye_CC,2023.2.2,Win32,60.12867537,1.28,,,2195,1235,67.00800000000001,3.68,"387.45, 54.8, 34.81, 410.84, 61.05, 32.88, 35.1",627.38,11.69628991,43.04234686,27.83653633,Passed,144.191862,,,,,,,,,,,,,,,,,,,,,training,4,9,0,left,a,,,,,567.1822,567.6152,35.84,1.928588867,-3.642883301,1,0,0,0.4329,fixationPoint,567.6153,567.7153,567.7153,570.0987,35.84,10240,616.96,a,1,2.3709,,570.0988,570.2988,,,,,,,,25,-24,126,25,128,32,71,169,74,-167,-213,-124,-20,-176,-32,79,-221,213,-128,165,-224,-27,162,-220,16,180,360,270,270,90,360,360,270,90,90,360,,,,,,,,,,,570.2988,570.2989,,0,56,56,56,1,16,novel,,,,,,,,,,,,,,,,,,,,,,,,,,,,,,,,,,,,,,,,,,,,,,,,,
,,13,1,${e://Field/PROLIFIC_PID,F,18,2023-11-03_16h39.34.937,MouseEye_CC,2023.2.2,Win32,60.12867537,1.28,,,2195,1235,67.00800000000001,3.68,"387.45, 54.8, 34.81, 410.84, 61.05, 32.88, 35.1",627.38,11.69628991,43.04234686,27.83653633,Passed,144.191862,,,,,,,,,,,,,,,,,,,,,training,4,10,180,right,s,,,,,570.2991,570.3821,35.84,1.928588867,-3.642883301,1,0,0,0.0829,fixationPoint,570.3821,570.4822,570.4822,573.6989,35.84,10240,616.96,s,1,3.1971,,573.699,573.899,,,,,,,,79,163,-116,25,128,161,18,32,71,-128,112,-223,221,-118,65,-29,-124,-124,-20,-80,-76,174,-167,219,-219,360,360,90,180,360,270,270,180,360,270,270,,,,,,,,,,,573.899,573.8991,,0,57,57,57,1,11,novel,,,,,,,,,,,,,,,,,,,,,,,,,,,,,,,,,,,,,,,,,,,,,,,,,
,,13,1,${e://Field/PROLIFIC_PID,F,18,2023-11-03_16h39.34.937,MouseEye_CC,2023.2.2,Win32,60.12867537,1.28,,,2195,1235,67.00800000000001,3.68,"387.45, 54.8, 34.81, 410.84, 61.05, 32.88, 35.1",627.38,11.69628991,43.04234686,27.83653633,Passed,144.191862,,,,,,,,,,,,,,,,,,,,,training,4,11,180,right,s,,,,,573.8993,574.1491,35.84,1.928588867,-4.785888672,1,0,0,0.2497,fixationPoint,574.1491,574.2491,574.2491,576.3825,35.84,10240,616.96,s,1,2.118,,576.3825,576.5824,,,,,,,,76,23,-119,127,78,126,209,175,168,-212,165,-77,64,-128,112,-176,-32,-29,-124,-170,-125,64,-26,174,-167,360,360,90,270,180,180,360,270,270,360,270,,,,,,,,,,,576.5824,576.5826,,0,58,58,58,1,8,repeated,,,,,,,,,,,,,,,,,,,,,,,,,,,,,,,,,,,,,,,,,,,,,,,,,
,,13,1,${e://Field/PROLIFIC_PID,F,18,2023-11-03_16h39.34.937,MouseEye_CC,2023.2.2,Win32,60.12867537,1.28,,,2195,1235,67.00800000000001,3.68,"387.45, 54.8, 34.81, 410.84, 61.05, 32.88, 35.1",627.38,11.69628991,43.04234686,27.83653633,Passed,144.191862,,,,,,,,,,,,,,,,,,,,,training,4,12,0,left,a,,,,,576.5828,576.7158,35.84,3.642944336,-8.785888672,1,0,0,0.133,fixationPoint,576.7158,576.8157,576.8158,581.0827,35.84,10240,616.96,a,1,4.2604,,581.0827,581.2827,,,,,,,,63,-117,-71,76,120,124,168,66,170,-220,16,-24,126,-118,65,80,-123,216,-164,23,-119,-20,-66,-26,-211,270,270,270,90,180,180,270,270,180,270,90,,,,,,,,,,,581.2828,581.2829,,0,59,59,59,1,10,novel,,,,,,,,,,,,,,,,,,,,,,,,,,,,,,,,,,,,,,,,,,,,,,,,,
,,13,1,${e://Field/PROLIFIC_PID,F,18,2023-11-03_16h39.34.937,MouseEye_CC,2023.2.2,Win32,60.12867537,1.28,,,2195,1235,67.00800000000001,3.68,"387.45, 54.8, 34.81, 410.84, 61.05, 32.88, 35.1",627.38,11.69628991,43.04234686,27.83653633,Passed,144.191862,,,,,,,,,,,,,,,,,,,,,training,4,13,0,left,a,,,,,581.2831,581.3494,35.84,3.642944336,-8.785888672,1,0,0,0.0663,fixationPoint,581.3494,581.4494,581.4494,586.5998,35.84,10240,616.96,a,1,5.1401,,586.5999,586.7998,,,,,,,,43,-120,24,123,27,161,214,175,168,-74,-213,-220,-224,-121,-123,164,-18,127,-161,224,-30,-77,161,-27,162,180,360,270,90,180,270,270,180,270,270,360,,,,,,,,,,,586.7998,586.7999,,0,60,60,60,1,15,novel,,,,,,,,,,,,,,,,,,,,,,,,,,,,,,,,,,,,,,,,,,,,,,,,,
,,13,1,${e://Field/PROLIFIC_PID,F,18,2023-11-03_16h39.34.937,MouseEye_CC,2023.2.2,Win32,60.12867537,1.28,,,2195,1235,67.00800000000001,3.68,"387.45, 54.8, 34.81, 410.84, 61.05, 32.88, 35.1",627.38,11.69628991,43.04234686,27.83653633,Passed,144.191862,,,,,,,,,,,,,,,,,,,,,training,4,14,180,right,s,,,,,586.8001,586.8997,35.84,3.642944336,-9.357177734,1,0,0,0.0994,fixationPoint,586.8998,586.9997,586.9998,591.2166,35.84,10240,616.96,s,1,4.2135,,591.2167,591.4167,,,,,,,,26,25,128,-174,169,-128,212,-223,221,-211,-19,-163,-79,-170,-125,168,-72,224,-30,120,-80,212,22,169,74,90,270,270,90,180,180,360,270,180,360,180,,,,,,,,,,,591.4168,591.417,,0,61,61,61,1,13,novel,,,,,,,,,,,,,,,,,,,,,,,,,,,,,,,,,,,,,,,,,,,,,,,,,
,,13,1,${e://Field/PROLIFIC_PID,F,18,2023-11-03_16h39.34.937,MouseEye_CC,2023.2.2,Win32,60.12867537,1.28,,,2195,1235,67.00800000000001,3.68,"387.45, 54.8, 34.81, 410.84, 61.05, 32.88, 35.1",627.38,11.69628991,43.04234686,27.83653633,Passed,144.191862,,,,,,,,,,,,,,,,,,,,,training,4,15,0,left,a,,,,,591.4172,591.5167,35.84,5.928588867,0.928405762,1,0,0,0.0995,fixationPoint,591.5167,591.6167,591.6168,595.6503,35.84,10240,616.96,a,1,4.0212,,595.6503,595.8503,,,,,,,,38,127,78,-27,162,-120,24,-216,70,-163,-79,-116,-172,-211,-19,163,-116,127,-161,216,-164,25,128,32,71,270,180,90,360,90,360,270,360,360,90,360,,,,,,,,,,,595.8503,595.8504,,0,62,62,62,1,2,repeated,,,,,,,,,,,,,,,,,,,,,,,,,,,,,,,,,,,,,,,,,,,,,,,,,
,,13,1,${e://Field/PROLIFIC_PID,F,18,2023-11-03_16h39.34.937,MouseEye_CC,2023.2.2,Win32,60.12867537,1.28,,,2195,1235,67.00800000000001,3.68,"387.45, 54.8, 34.81, 410.84, 61.05, 32.88, 35.1",627.38,11.69628991,43.04234686,27.83653633,Passed,144.191862,,,,,,,,,,,,,,,,,,,,,training,4,16,180,right,s,,,,,595.8506,596.0003,35.84,5.928588867,0.928405762,1,0,0,0.1496,fixationPoint,596.0003,596.1002,596.1003,597.417,35.84,10240,616.96,s,1,1.3049,,597.4171,597.6171,,,,,,,,22,-175,118,32,71,126,209,169,74,-172,-167,-22,-16,-176,-32,224,-30,68,-164,30,-24,-212,165,-24,126,270,180,360,180,90,360,180,90,270,180,360,,,,,,,,,,,597.6172,599.9173,space,0,63,63,63,1,3,repeated,2.2856,,,,,,,,,,,,,,,,,,,,,,,,,,,,,,,,,,,,,,,,,,,,,,,,
,,13,1,${e://Field/PROLIFIC_PID,F,18,2023-11-03_16h39.34.937,MouseEye_CC,2023.2.2,Win32,60.12867537,1.28,,,2195,1235,67.00800000000001,3.68,"387.45, 54.8, 34.81, 410.84, 61.05, 32.88, 35.1",627.38,11.69628991,43.04234686,27.83653633,Passed,144.191862,,,,,,,,,,,,,,,,,,,,,training,5,1,0,left,a,,,,,599.9175,601.2173,35.84,-16.92834473,26.07141113,1,0,0,0.7498,fixationPoint,601.2173,601.3173,601.3173,602.2006,35.84,10240,616.96,a,1,0.8798,,602.2006,602.4008,,,,,,,,24,-75,120,216,164,175,168,210,67,-222,-75,-22,-16,-117,-71,164,-18,127,-161,28,-168,-20,208,-120,24,360,180,180,90,270,180,270,90,270,270,270,,,,,,,,,,,602.4008,602.4019,,0,64,64,64,1,4,repeated,,,,,,,,,,,,,,,,,,,,,,,,,,,,,,,,,,,,,,,,,,,,,,,,,
,,13,1,${e://Field/PROLIFIC_PID,F,18,2023-11-03_16h39.34.937,MouseEye_CC,2023.2.2,Win32,60.12867537,1.28,,,2195,1235,67.00800000000001,3.68,"387.45, 54.8, 34.81, 410.84, 61.05, 32.88, 35.1",627.38,11.69628991,43.04234686,27.83653633,Passed,144.191862,,,,,,,,,,,,,,,,,,,,,training,5,2,180,right,s,,,,,602.402,602.484,35.84,2.5,-1.357177734,1,0,0,0.082,fixationPoint,602.4841,602.584,602.584,603.9674,35.84,10240,616.96,s,1,1.361,,603.9674,604.1675,,,,,,,,22,-175,118,32,71,126,209,169,74,-172,-167,-22,-16,-176,-32,224,-30,68,-164,30,-24,-212,165,-24,126,90,90,270,270,180,360,180,180,180,180,270,,,,,,,,,,,604.1675,604.1676,,0,65,65,65,1,3,repeated,,,,,,,,,,,,,,,,,,,,,,,,,,,,,,,,,,,,,,,,,,,,,,,,,
,,13,1,${e://Field/PROLIFIC_PID,F,18,2023-11-03_16h39.34.937,MouseEye_CC,2023.2.2,Win32,60.12867537,1.28,,,2195,1235,67.00800000000001,3.68,"387.45, 54.8, 34.81, 410.84, 61.05, 32.88, 35.1",627.38,11.69628991,43.04234686,27.83653633,Passed,144.191862,,,,,,,,,,,,,,,,,,,,,training,5,3,180,right,s,,,,,604.1679,604.3007,35.84,2.5,-1.357177734,1,0,0,0.1327,fixationPoint,604.3007,604.4008,604.4008,605.4009,35.84,10240,616.96,s,1,0.9888,,605.4009,605.6008,,,,,,,,27,76,120,-223,221,-18,28,-24,126,-121,-208,-117,-71,-121,-123,27,-73,168,-72,165,-224,25,128,175,168,180,180,270,270,270,270,360,90,90,270,90,,,,,,,,,,,605.6008,605.601,,0,66,66,66,1,1,repeated,,,,,,,,,,,,,,,,,,,,,,,,,,,,,,,,,,,,,,,,,,,,,,,,,
,,13,1,${e://Field/PROLIFIC_PID,F,18,2023-11-03_16h39.34.937,MouseEye_CC,2023.2.2,Win32,60.12867537,1.28,,,2195,1235,67.00800000000001,3.68,"387.45, 54.8, 34.81, 410.84, 61.05, 32.88, 35.1",627.38,11.69628991,43.04234686,27.83653633,Passed,144.191862,,,,,,,,,,,,,,,,,,,,,training,5,4,180,right,s,,,,,605.6013,605.7509,35.84,2.5,-1.928588867,1,0,0,0.1495,fixationPoint,605.751,605.8508,605.8508,606.651,35.84,10240,616.96,s,1,0.7786,,606.651,606.8509,,,,,,,,25,-24,126,168,114,32,71,216,164,-20,-66,-29,-124,-167,-213,219,-219,28,-214,120,-80,-112,162,-164,224,360,90,270,270,90,360,270,270,90,360,360,,,,,,,,,,,606.8509,606.852,,0,67,67,67,1,16,novel,,,,,,,,,,,,,,,,,,,,,,,,,,,,,,,,,,,,,,,,,,,,,,,,,
,,13,1,${e://Field/PROLIFIC_PID,F,18,2023-11-03_16h39.34.937,MouseEye_CC,2023.2.2,Win32,60.12867537,1.28,,,2195,1235,67.00800000000001,3.68,"387.45, 54.8, 34.81, 410.84, 61.05, 32.88, 35.1",627.38,11.69628991,43.04234686,27.83653633,Passed,144.191862,,,,,,,,,,,,,,,,,,,,,training,5,5,0,left,a,,,,,606.8522,606.9844,35.84,2.5,-1.357177734,1,0,0,0.1321,fixationPoint,606.9844,607.0843,607.0844,609.5012,35.84,10240,616.96,a,1,2.4024,,609.5012,609.7012,,,,,,,,76,23,-119,127,78,126,209,175,168,-212,165,-77,64,-128,112,-176,-32,-29,-124,-170,-125,64,-26,174,-167,360,180,360,180,90,270,90,90,360,90,90,,,,,,,,,,,609.7012,609.7012,,0,68,68,68,1,8,repeated,,,,,,,,,,,,,,,,,,,,,,,,,,,,,,,,,,,,,,,,,,,,,,,,,
,,13,1,${e://Field/PROLIFIC_PID,F,18,2023-11-03_16h39.34.937,MouseEye_CC,2023.2.2,Win32,60.12867537,1.28,,,2195,1235,67.00800000000001,3.68,"387.45, 54.8, 34.81, 410.84, 61.05, 32.88, 35.1",627.38,11.69628991,43.04234686,27.83653633,Passed,144.191862,,,,,,,,,,,,,,,,,,,,,training,5,6,180,right,s,,,,,609.7015,609.7177,35.84,3.071655273,0.357116699,1,0,0,0.0162,fixationPoint,609.7177,609.8178,609.8178,610.9679,35.84,10240,616.96,s,1,1.1405,,610.9679,611.1678,,,,,,,,29,168,114,-128,212,-166,28,-24,126,-20,-66,-68,-172,-124,-20,28,-214,212,-67,224,-30,221,120,124,168,90,270,90,90,180,90,270,180,180,360,180,,,,,,,,,,,611.1679,611.168,,0,69,69,69,1,14,novel,,,,,,,,,,,,,,,,,,,,,,,,,,,,,,,,,,,,,,,,,,,,,,,,,
,,13,1,${e://Field/PROLIFIC_PID,F,18,2023-11-03_16h39.34.937,MouseEye_CC,2023.2.2,Win32,60.12867537,1.28,,,2195,1235,67.00800000000001,3.68,"387.45, 54.8, 34.81, 410.84, 61.05, 32.88, 35.1",627.38,11.69628991,43.04234686,27.83653633,Passed,144.191862,,,,,,,,,,,,,,,,,,,,,training,5,7,180,right,s,,,,,611.1682,611.218,35.84,3.642944336,0.357116699,1,0,0,0.0497,fixationPoint,611.218,611.3178,611.3179,614.2347,35.84,10240,616.96,s,1,2.9012,,614.2348,614.4347,,,,,,,,79,163,-116,26,17,212,22,127,78,-128,212,-164,224,-77,64,-211,-19,-222,-75,-163,-79,64,-26,224,-30,180,180,270,180,180,360,360,360,360,90,360,,,,,,,,,,,614.4348,614.4348,,0,70,70,70,1,11,novel,,,,,,,,,,,,,,,,,,,,,,,,,,,,,,,,,,,,,,,,,,,,,,,,,
,,13,1,${e://Field/PROLIFIC_PID,F,18,2023-11-03_16h39.34.937,MouseEye_CC,2023.2.2,Win32,60.12867537,1.28,,,2195,1235,67.00800000000001,3.68,"387.45, 54.8, 34.81, 410.84, 61.05, 32.88, 35.1",627.38,11.69628991,43.04234686,27.83653633,Passed,144.191862,,,,,,,,,,,,,,,,,,,,,training,5,8,180,right,s,,,,,614.435,614.518,35.84,5.357177734,0.357116699,1,0,0,0.0828,fixationPoint,614.518,614.6181,614.6181,616.5349,35.84,10240,616.96,s,1,1.9071,,616.535,616.7348,,,,,,,,74,-67,-117,127,78,221,220,76,120,-224,128,-175,118,-20,208,219,-219,23,-119,28,-168,-220,-224,-208,-176,180,180,180,180,90,180,360,270,360,180,90,,,,,,,,,,,616.7348,616.735,,0,71,71,71,1,9,novel,,,,,,,,,,,,,,,,,,,,,,,,,,,,,,,,,,,,,,,,,,,,,,,,,
,,13,1,${e://Field/PROLIFIC_PID,F,18,2023-11-03_16h39.34.937,MouseEye_CC,2023.2.2,Win32,60.12867537,1.28,,,2195,1235,67.00800000000001,3.68,"387.45, 54.8, 34.81, 410.84, 61.05, 32.88, 35.1",627.38,11.69628991,43.04234686,27.83653633,Passed,144.191862,,,,,,,,,,,,,,,,,,,,,training,5,9,180,right,s,,,,,616.7352,616.9682,35.84,5.357177734,0.357116699,1,0,0,0.2329,fixationPoint,616.9682,617.0682,617.0683,618.3683,35.84,10240,616.96,s,1,1.2892,,618.3683,618.5682,,,,,,,,26,25,128,-128,112,-79,28,-220,16,-124,-20,-80,-76,-208,-176,164,-18,118,-211,80,-123,26,17,73,79,90,270,360,360,360,270,360,180,90,180,270,,,,,,,,,,,618.5683,618.5684,,0,72,72,72,1,13,novel,,,,,,,,,,,,,,,,,,,,,,,,,,,,,,,,,,,,,,,,,,,,,,,,,
,,13,1,${e://Field/PROLIFIC_PID,F,18,2023-11-03_16h39.34.937,MouseEye_CC,2023.2.2,Win32,60.12867537,1.28,,,2195,1235,67.00800000000001,3.68,"387.45, 54.8, 34.81, 410.84, 61.05, 32.88, 35.1",627.38,11.69628991,43.04234686,27.83653633,Passed,144.191862,,,,,,,,,,,,,,,,,,,,,training,5,10,180,right,s,,,,,618.5685,618.6351,35.84,5.357177734,0.357116699,1,0,0,0.0664,fixationPoint,618.6351,618.735,618.7351,620.7685,35.84,10240,616.96,s,1,2.03,,620.7685,620.9684,,,,,,,,72,-170,-125,127,78,71,20,32,71,-223,221,-128,112,-27,74,28,-214,80,-123,23,-119,-167,-213,-124,-20,180,90,90,360,360,270,360,180,360,360,90,,,,,,,,,,,620.9684,620.9685,,0,73,73,73,1,6,repeated,,,,,,,,,,,,,,,,,,,,,,,,,,,,,,,,,,,,,,,,,,,,,,,,,
,,13,1,${e://Field/PROLIFIC_PID,F,18,2023-11-03_16h39.34.937,MouseEye_CC,2023.2.2,Win32,60.12867537,1.28,,,2195,1235,67.00800000000001,3.68,"387.45, 54.8, 34.81, 410.84, 61.05, 32.88, 35.1",627.38,11.69628991,43.04234686,27.83653633,Passed,144.191862,,,,,,,,,,,,,,,,,,,,,training,5,11,0,left,a,,,,,620.9688,621.235,35.84,7.071655273,0.928405762,1,0,0,0.2662,fixationPoint,621.235,621.3351,621.3351,623.5186,35.84,10240,616.96,a,1,2.1668,,623.5186,623.7185,,,,,,,,38,127,78,-27,162,-120,24,-216,70,-163,-79,-116,-172,-211,-19,163,-116,127,-161,216,-164,25,128,32,71,270,360,180,270,270,360,270,270,270,90,90,,,,,,,,,,,623.7186,623.7187,,0,74,74,74,1,2,repeated,,,,,,,,,,,,,,,,,,,,,,,,,,,,,,,,,,,,,,,,,,,,,,,,,
,,13,1,${e://Field/PROLIFIC_PID,F,18,2023-11-03_16h39.34.937,MouseEye_CC,2023.2.2,Win32,60.12867537,1.28,,,2195,1235,67.00800000000001,3.68,"387.45, 54.8, 34.81, 410.84, 61.05, 32.88, 35.1",627.38,11.69628991,43.04234686,27.83653633,Passed,144.191862,,,,,,,,,,,,,,,,,,,,,training,5,12,0,left,a,,,,,623.7189,623.8186,35.84,7.071655273,0.928405762,1,0,0,0.0997,fixationPoint,623.8187,623.9186,623.9186,625.1354,35.84,10240,616.96,a,1,1.2074,,625.1354,625.3354,,,,,,,,43,-120,24,32,71,123,27,120,127,-220,-124,-124,-20,-67,-117,71,-73,168,-72,23,-119,-20,208,-80,219,90,360,360,90,90,180,180,180,360,360,180,,,,,,,,,,,625.3354,625.3355,,0,75,75,75,1,15,novel,,,,,,,,,,,,,,,,,,,,,,,,,,,,,,,,,,,,,,,,,,,,,,,,,
,,13,1,${e://Field/PROLIFIC_PID,F,18,2023-11-03_16h39.34.937,MouseEye_CC,2023.2.2,Win32,60.12867537,1.28,,,2195,1235,67.00800000000001,3.68,"387.45, 54.8, 34.81, 410.84, 61.05, 32.88, 35.1",627.38,11.69628991,43.04234686,27.83653633,Passed,144.191862,,,,,,,,,,,,,,,,,,,,,training,5,13,0,left,a,,,,,625.3357,625.402,35.84,7.642944336,0.928405762,1,0,0,0.0662,fixationPoint,625.402,625.5021,625.5021,627.7856,35.84,10240,616.96,a,1,2.272,,627.7856,627.9855,,,,,,,,77,80,-123,161,214,25,128,212,22,-120,24,-112,162,-27,162,-21,-172,-67,-117,-80,-76,163,-116,114,-25,360,270,360,270,270,90,180,270,360,180,180,,,,,,,,,,,627.9855,627.9856,,0,76,76,76,1,12,novel,,,,,,,,,,,,,,,,,,,,,,,,,,,,,,,,,,,,,,,,,,,,,,,,,
,,13,1,${e://Field/PROLIFIC_PID,F,18,2023-11-03_16h39.34.937,MouseEye_CC,2023.2.2,Win32,60.12867537,1.28,,,2195,1235,67.00800000000001,3.68,"387.45, 54.8, 34.81, 410.84, 61.05, 32.88, 35.1",627.38,11.69628991,43.04234686,27.83653633,Passed,144.191862,,,,,,,,,,,,,,,,,,,,,training,5,14,0,left,a,,,,,627.9859,628.0355,35.84,7.642944336,0.357116699,1,0,0,0.0496,fixationPoint,628.0355,628.1356,628.1356,630.5024,35.84,10240,616.96,a,1,2.3439,,630.5024,630.7024,,,,,,,,75,-29,-124,66,170,221,120,161,18,-128,212,-75,120,-79,28,80,-123,27,-73,164,-18,-116,-172,-220,-124,270,360,360,360,270,360,360,360,360,270,270,,,,,,,,,,,630.7024,630.7025,,0,77,77,77,1,5,repeated,,,,,,,,,,,,,,,,,,,,,,,,,,,,,,,,,,,,,,,,,,,,,,,,,
,,13,1,${e://Field/PROLIFIC_PID,F,18,2023-11-03_16h39.34.937,MouseEye_CC,2023.2.2,Win32,60.12867537,1.28,,,2195,1235,67.00800000000001,3.68,"387.45, 54.8, 34.81, 410.84, 61.05, 32.88, 35.1",627.38,11.69628991,43.04234686,27.83653633,Passed,144.191862,,,,,,,,,,,,,,,,,,,,,training,5,15,0,left,a,,,,,630.7027,630.719,35.84,7.642944336,0.357116699,1,0,0,0.0162,fixationPoint,630.719,630.819,630.819,632.886,35.84,10240,616.96,a,1,2.0518,,632.8861,633.086,,,,,,,,58,114,-25,124,168,73,79,126,209,-173,76,-166,28,-224,128,-20,-66,-176,-32,-26,-211,79,-221,127,-161,270,180,270,270,90,270,90,90,90,90,180,,,,,,,,,,,633.086,633.0862,,0,78,78,78,1,7,repeated,,,,,,,,,,,,,,,,,,,,,,,,,,,,,,,,,,,,,,,,,,,,,,,,,
,,13,1,${e://Field/PROLIFIC_PID,F,18,2023-11-03_16h39.34.937,MouseEye_CC,2023.2.2,Win32,60.12867537,1.28,,,2195,1235,67.00800000000001,3.68,"387.45, 54.8, 34.81, 410.84, 61.05, 32.88, 35.1",627.38,11.69628991,43.04234686,27.83653633,Passed,144.191862,,,,,,,,,,,,,,,,,,,,,training,5,16,0,left,a,,,,,633.0864,633.1191,35.84,8.214355469,-3.071594238,1,0,0,0.0327,fixationPoint,633.1192,633.2192,633.2192,635.2861,35.84,10240,616.96,a,1,2.0583,,635.2861,635.486,,,,,,,,63,-117,-71,169,74,66,170,25,215,-79,28,-224,128,-75,120,219,-219,120,-80,68,-164,-80,-76,-26,-211,360,360,360,360,270,180,90,90,270,270,180,,,,,,,,,,,635.486,636.7861,space,0,79,79,79,1,10,novel,1.2844,,,,,,,,,,,,,,,,,,,,,,,,,,,,,,,,,,,,,,,,,,,,,,,,
,,13,1,${e://Field/PROLIFIC_PID,F,18,2023-11-03_16h39.34.937,MouseEye_CC,2023.2.2,Win32,60.12867537,1.28,,,2195,1235,67.00800000000001,3.68,"387.45, 54.8, 34.81, 410.84, 61.05, 32.88, 35.1",627.38,11.69628991,43.04234686,27.83653633,Passed,144.191862,,,,,,,,,,,,,,,,,,,,,training,6,1,180,right,s,,,,,636.7864,637.1027,35.84,8.785888672,-3.071594238,1,0,0,0.3161,fixationPoint,637.1027,637.2028,637.2028,639.3195,35.84,10240,616.96,s,1,2.1009,,639.3195,639.5195,,,,,,,,74,-67,-117,168,114,221,120,212,22,-24,126,-223,221,-77,64,30,-24,120,-80,28,-214,-80,-76,-68,-172,270,180,360,180,90,180,360,360,270,180,180,,,,,,,,,,,639.5195,639.5205,,0,80,80,80,1,9,novel,,,,,,,,,,,,,,,,,,,,,,,,,,,,,,,,,,,,,,,,,,,,,,,,,
,,13,1,${e://Field/PROLIFIC_PID,F,18,2023-11-03_16h39.34.937,MouseEye_CC,2023.2.2,Win32,60.12867537,1.28,,,2195,1235,67.00800000000001,3.68,"387.45, 54.8, 34.81, 410.84, 61.05, 32.88, 35.1",627.38,11.69628991,43.04234686,27.83653633,Passed,144.191862,,,,,,,,,,,,,,,,,,,,,training,6,2,180,right,s,,,,,639.5207,639.7027,35.84,9.928588867,-4.214294434,1,0,0,0.182,fixationPoint,639.7028,639.8028,639.8029,641.6531,35.84,10240,616.96,s,1,1.8275,,641.6531,641.853,,,,,,,,76,23,-119,127,78,126,209,175,168,-212,165,-77,64,-128,112,-176,-32,-29,-124,-170,-125,64,-26,174,-167,90,360,90,180,90,90,270,360,270,180,270,,,,,,,,,,,641.853,641.8531,,0,81,81,81,1,8,repeated,,,,,,,,,,,,,,,,,,,,,,,,,,,,,,,,,,,,,,,,,,,,,,,,,
,,13,1,${e://Field/PROLIFIC_PID,F,18,2023-11-03_16h39.34.937,MouseEye_CC,2023.2.2,Win32,60.12867537,1.28,,,2195,1235,67.00800000000001,3.68,"387.45, 54.8, 34.81, 410.84, 61.05, 32.88, 35.1",627.38,11.69628991,43.04234686,27.83653633,Passed,144.191862,,,,,,,,,,,,,,,,,,,,,training,6,3,0,left,a,,,,,641.8533,641.903,35.84,9.928588867,-4.214294434,1,0,0,0.0497,fixationPoint,641.903,642.003,642.003,645.5699,35.84,10240,616.96,a,1,3.5544,,645.57,645.77,,,,,,,,24,-75,120,216,164,175,168,210,67,-222,-75,-22,-16,-117,-71,164,-18,127,-161,28,-168,-20,208,-120,24,360,360,270,360,90,180,270,90,270,270,270,,,,,,,,,,,645.77,645.7701,,0,82,82,82,1,4,repeated,,,,,,,,,,,,,,,,,,,,,,,,,,,,,,,,,,,,,,,,,,,,,,,,,
,,13,1,${e://Field/PROLIFIC_PID,F,18,2023-11-03_16h39.34.937,MouseEye_CC,2023.2.2,Win32,60.12867537,1.28,,,2195,1235,67.00800000000001,3.68,"387.45, 54.8, 34.81, 410.84, 61.05, 32.88, 35.1",627.38,11.69628991,43.04234686,27.83653633,Passed,144.191862,,,,,,,,,,,,,,,,,,,,,training,6,4,0,left,a,,,,,645.7703,645.8199,35.84,10.5,-4.214294434,1,0,0,0.0496,fixationPoint,645.82,645.92,645.92,647.9035,35.84,10240,616.96,a,1,1.9672,,647.9035,648.1033,,,,,,,,77,80,-123,73,79,66,170,70,223,-220,16,-173,76,-118,65,-68,-172,-21,-172,-80,-76,213,-128,28,-214,270,90,90,360,90,270,180,180,360,180,360,,,,,,,,,,,648.1034,648.1035,,0,83,83,83,1,12,novel,,,,,,,,,,,,,,,,,,,,,,,,,,,,,,,,,,,,,,,,,,,,,,,,,
,,13,1,${e://Field/PROLIFIC_PID,F,18,2023-11-03_16h39.34.937,MouseEye_CC,2023.2.2,Win32,60.12867537,1.28,,,2195,1235,67.00800000000001,3.68,"387.45, 54.8, 34.81, 410.84, 61.05, 32.88, 35.1",627.38,11.69628991,43.04234686,27.83653633,Passed,144.191862,,,,,,,,,,,,,,,,,,,,,training,6,5,180,right,s,,,,,648.1037,648.1201,35.84,10.5,-4.214294434,1,0,0,0.0162,fixationPoint,648.1201,648.2201,648.2201,650.0035,35.84,10240,616.96,s,1,1.7771,,650.0036,650.2035,,,,,,,,29,168,114,-175,118,-166,28,-27,74,-172,-167,-26,-211,-29,-124,28,-214,127,-161,30,-24,126,209,216,164,90,270,180,360,90,90,90,180,360,270,90,,,,,,,,,,,650.2036,650.2037,,0,84,84,84,1,14,novel,,,,,,,,,,,,,,,,,,,,,,,,,,,,,,,,,,,,,,,,,,,,,,,,,
,,13,1,${e://Field/PROLIFIC_PID,F,18,2023-11-03_16h39.34.937,MouseEye_CC,2023.2.2,Win32,60.12867537,1.28,,,2195,1235,67.00800000000001,3.68,"387.45, 54.8, 34.81, 410.84, 61.05, 32.88, 35.1",627.38,11.69628991,43.04234686,27.83653633,Passed,144.191862,,,,,,,,,,,,,,,,,,,,,training,6,6,180,right,s,,,,,650.204,650.2702,35.84,10.5,-4.214294434,1,0,0,0.0662,fixationPoint,650.2702,650.3702,650.3702,652.3371,35.84,10240,616.96,s,1,1.9554,,652.3371,652.537,,,,,,,,43,-120,24,175,168,161,214,30,163,-220,-124,-220,-224,-21,-172,27,-73,79,-221,118,-211,-18,28,-220,16,90,270,90,360,360,180,360,90,270,360,270,,,,,,,,,,,652.5372,652.5372,,0,85,85,85,1,15,novel,,,,,,,,,,,,,,,,,,,,,,,,,,,,,,,,,,,,,,,,,,,,,,,,,
,,13,1,${e://Field/PROLIFIC_PID,F,18,2023-11-03_16h39.34.937,MouseEye_CC,2023.2.2,Win32,60.12867537,1.28,,,2195,1235,67.00800000000001,3.68,"387.45, 54.8, 34.81, 410.84, 61.05, 32.88, 35.1",627.38,11.69628991,43.04234686,27.83653633,Passed,144.191862,,,,,,,,,,,,,,,,,,,,,training,6,7,0,left,a,,,,,652.5375,652.5703,35.84,10.5,-4.214294434,1,0,0,0.0328,fixationPoint,652.5704,652.6703,652.6703,654.3705,35.84,10240,616.96,a,1,1.6889,,654.3706,654.5704,,,,,,,,38,127,78,-27,162,-120,24,-216,70,-163,-79,-116,-172,-211,-19,163,-116,127,-161,216,-164,25,128,32,71,270,270,90,360,360,360,360,360,180,360,360,,,,,,,,,,,654.5705,654.5705,,0,86,86,86,1,2,repeated,,,,,,,,,,,,,,,,,,,,,,,,,,,,,,,,,,,,,,,,,,,,,,,,,
,,13,1,${e://Field/PROLIFIC_PID,F,18,2023-11-03_16h39.34.937,MouseEye_CC,2023.2.2,Win32,60.12867537,1.28,,,2195,1235,67.00800000000001,3.68,"387.45, 54.8, 34.81, 410.84, 61.05, 32.88, 35.1",627.38,11.69628991,43.04234686,27.83653633,Passed,144.191862,,,,,,,,,,,,,,,,,,,,,training,6,8,0,left,a,,,,,654.5707,654.5871,35.84,10.5,-4.214294434,1,0,0,0.0162,fixationPoint,654.5871,654.687,654.6871,656.8706,35.84,10240,616.96,a,1,2.1664,,656.8706,657.0705,,,,,,,,63,-117,-71,32,71,123,27,127,78,-166,28,-118,65,-212,165,164,-18,216,-164,127,-161,-74,-213,-170,-125,270,180,270,180,180,360,270,270,90,360,90,,,,,,,,,,,657.0706,657.0707,,0,87,87,87,1,10,novel,,,,,,,,,,,,,,,,,,,,,,,,,,,,,,,,,,,,,,,,,,,,,,,,,
,,13,1,${e://Field/PROLIFIC_PID,F,18,2023-11-03_16h39.34.937,MouseEye_CC,2023.2.2,Win32,60.12867537,1.28,,,2195,1235,67.00800000000001,3.68,"387.45, 54.8, 34.81, 410.84, 61.05, 32.88, 35.1",627.38,11.69628991,43.04234686,27.83653633,Passed,144.191862,,,,,,,,,,,,,,,,,,,,,training,6,9,180,right,s,,,,,657.0709,657.5373,35.84,10.5,-4.214294434,1,0,0,0.4664,fixationPoint,657.5373,657.6373,657.6374,659.4541,35.84,10240,616.96,s,1,1.8073,,659.4541,659.654,,,,,,,,75,-29,-124,66,170,221,120,161,18,-128,212,-75,120,-79,28,80,-123,27,-73,164,-18,-116,-172,-220,-124,360,360,360,270,180,360,180,270,360,90,360,,,,,,,,,,,659.654,659.6542,,0,88,88,88,1,5,repeated,,,,,,,,,,,,,,,,,,,,,,,,,,,,,,,,,,,,,,,,,,,,,,,,,
,,13,1,${e://Field/PROLIFIC_PID,F,18,2023-11-03_16h39.34.937,MouseEye_CC,2023.2.2,Win32,60.12867537,1.28,,,2195,1235,67.00800000000001,3.68,"387.45, 54.8, 34.81, 410.84, 61.05, 32.88, 35.1",627.38,11.69628991,43.04234686,27.83653633,Passed,144.191862,,,,,,,,,,,,,,,,,,,,,training,6,10,180,right,s,,,,,659.6544,659.6708,35.84,8.785888672,-3.642883301,1,0,0,0.0162,fixationPoint,659.6708,659.7708,659.7708,661.3541,35.84,10240,616.96,s,1,1.5777,,661.3541,661.5542,,,,,,,,72,-170,-125,127,78,71,20,32,71,-223,221,-128,112,-27,74,28,-214,80,-123,23,-119,-167,-213,-124,-20,270,90,180,360,90,360,180,360,180,180,90,,,,,,,,,,,661.5542,661.5543,,0,89,89,89,1,6,repeated,,,,,,,,,,,,,,,,,,,,,,,,,,,,,,,,,,,,,,,,,,,,,,,,,
,,13,1,${e://Field/PROLIFIC_PID,F,18,2023-11-03_16h39.34.937,MouseEye_CC,2023.2.2,Win32,60.12867537,1.28,,,2195,1235,67.00800000000001,3.68,"387.45, 54.8, 34.81, 410.84, 61.05, 32.88, 35.1",627.38,11.69628991,43.04234686,27.83653633,Passed,144.191862,,,,,,,,,,,,,,,,,,,,,training,6,11,0,left,a,,,,,661.5546,661.5875,35.84,8.785888672,-3.642883301,1,0,0,0.0329,fixationPoint,661.5875,661.6875,661.6875,663.8877,35.84,10240,616.96,a,1,2.1881,,663.8877,664.0877,,,,,,,,22,-175,118,32,71,126,209,169,74,-172,-167,-22,-16,-176,-32,224,-30,68,-164,30,-24,-212,165,-24,126,90,270,90,360,360,180,270,270,360,270,360,,,,,,,,,,,664.0877,664.0879,,0,90,90,90,1,3,repeated,,,,,,,,,,,,,,,,,,,,,,,,,,,,,,,,,,,,,,,,,,,,,,,,,
,,13,1,${e://Field/PROLIFIC_PID,F,18,2023-11-03_16h39.34.937,MouseEye_CC,2023.2.2,Win32,60.12867537,1.28,,,2195,1235,67.00800000000001,3.68,"387.45, 54.8, 34.81, 410.84, 61.05, 32.88, 35.1",627.38,11.69628991,43.04234686,27.83653633,Passed,144.191862,,,,,,,,,,,,,,,,,,,,,training,6,12,180,right,s,,,,,664.0881,664.1045,35.84,8.214355469,-3.642883301,1,0,0,0.0162,fixationPoint,664.1046,664.2045,664.2045,665.7211,35.84,10240,616.96,s,1,1.5114,,665.7211,665.921,,,,,,,,58,114,-25,124,168,73,79,126,209,-173,76,-166,28,-224,128,-20,-66,-176,-32,-26,-211,79,-221,127,-161,360,180,90,90,90,90,90,180,360,270,90,,,,,,,,,,,665.9211,665.9211,,0,91,91,91,1,7,repeated,,,,,,,,,,,,,,,,,,,,,,,,,,,,,,,,,,,,,,,,,,,,,,,,,
,,13,1,${e://Field/PROLIFIC_PID,F,18,2023-11-03_16h39.34.937,MouseEye_CC,2023.2.2,Win32,60.12867537,1.28,,,2195,1235,67.00800000000001,3.68,"387.45, 54.8, 34.81, 410.84, 61.05, 32.88, 35.1",627.38,11.69628991,43.04234686,27.83653633,Passed,144.191862,,,,,,,,,,,,,,,,,,,,,training,6,13,0,left,a,,,,,665.9214,666.0379,35.84,8.214355469,-3.642883301,1,0,0,0.1164,fixationPoint,666.0379,666.1378,666.1378,667.8379,35.84,10240,616.96,a,1,1.6771,,667.8379,668.0379,,,,,,,,26,25,128,-118,65,-112,162,-128,212,-222,-75,-124,-20,-80,-18,30,-24,116,-125,127,-161,123,27,26,17,180,180,270,270,270,90,90,90,360,90,180,,,,,,,,,,,668.0379,668.038,,0,92,92,92,1,13,novel,,,,,,,,,,,,,,,,,,,,,,,,,,,,,,,,,,,,,,,,,,,,,,,,,
,,13,1,${e://Field/PROLIFIC_PID,F,18,2023-11-03_16h39.34.937,MouseEye_CC,2023.2.2,Win32,60.12867537,1.28,,,2195,1235,67.00800000000001,3.68,"387.45, 54.8, 34.81, 410.84, 61.05, 32.88, 35.1",627.38,11.69628991,43.04234686,27.83653633,Passed,144.191862,,,,,,,,,,,,,,,,,,,,,training,6,14,0,left,a,,,,,668.0382,668.0712,35.84,8.214355469,-3.642883301,1,0,0,0.0329,fixationPoint,668.0713,668.1713,668.1713,671.9715,35.84,10240,616.96,a,1,3.7866,,671.9715,672.1714,,,,,,,,25,-24,126,221,220,210,67,66,170,-172,-167,-124,-20,-26,-211,213,-128,219,-219,80,-123,-27,162,-164,224,90,180,270,90,90,360,270,90,360,270,270,,,,,,,,,,,672.1714,672.1715,,0,93,93,93,1,16,novel,,,,,,,,,,,,,,,,,,,,,,,,,,,,,,,,,,,,,,,,,,,,,,,,,
,,13,1,${e://Field/PROLIFIC_PID,F,18,2023-11-03_16h39.34.937,MouseEye_CC,2023.2.2,Win32,60.12867537,1.28,,,2195,1235,67.00800000000001,3.68,"387.45, 54.8, 34.81, 410.84, 61.05, 32.88, 35.1",627.38,11.69628991,43.04234686,27.83653633,Passed,144.191862,,,,,,,,,,,,,,,,,,,,,training,6,15,180,right,s,,,,,672.1717,672.2048,35.84,8.214355469,-3.642883301,1,0,0,0.033,fixationPoint,672.2048,672.3048,672.3049,675.3221,35.84,10240,616.96,s,1,2.9983,,675.3222,675.5217,,,,,,,,79,163,-116,126,209,216,164,161,18,-220,16,-20,208,-224,128,-208,-176,-121,-208,-220,-124,174,-167,164,-18,90,270,360,90,90,360,360,360,90,90,270,,,,,,,,,,,675.5217,675.5218,,0,94,94,94,1,11,novel,,,,,,,,,,,,,,,,,,,,,,,,,,,,,,,,,,,,,,,,,,,,,,,,,
,,13,1,${e://Field/PROLIFIC_PID,F,18,2023-11-03_16h39.34.937,MouseEye_CC,2023.2.2,Win32,60.12867537,1.28,,,2195,1235,67.00800000000001,3.68,"387.45, 54.8, 34.81, 410.84, 61.05, 32.88, 35.1",627.38,11.69628991,43.04234686,27.83653633,Passed,144.191862,,,,,,,,,,,,,,,,,,,,,training,6,16,0,left,a,,,,,675.522,675.5384,35.84,8.214355469,-3.642883301,1,0,0,0.0163,fixationPoint,675.5384,675.6383,675.6383,676.9884,35.84,10240,616.96,a,1,1.3387,,676.9884,677.1884,,,,,,,,27,76,120,-223,221,-18,28,-24,126,-121,-208,-117,-71,-121,-123,27,-73,168,-72,165,-224,25,128,175,168,270,270,90,360,360,270,180,360,360,90,90,,,,,,,,,,,677.1884,681.2554,space,0,95,95,95,1,1,repeated,4.0447,,,,,,,,,,,,,,,,,,,,,,,,,,,,,,,,,,,,,,,,,,,,,,,,
,,13,1,${e://Field/PROLIFIC_PID,F,18,2023-11-03_16h39.34.937,MouseEye_CC,2023.2.2,Win32,60.12867537,1.28,,,2195,1235,67.00800000000001,3.68,"387.45, 54.8, 34.81, 410.84, 61.05, 32.88, 35.1",627.38,11.69628991,43.04234686,27.83653633,Passed,144.191862,,,,,,,,,,,,,,,,,,,,,training,7,1,180,right,s,,,,,681.2605,681.8054,35.84,2.5,-6.5,1,0,0,0.5448,fixationPoint,681.8054,681.9054,681.9054,683.2888,35.84,10240,616.96,s,1,1.3793,,683.2888,683.4888,,,,,,,,79,163,-116,212,22,32,71,70,223,-224,128,-164,224,-80,219,-26,-211,-163,-79,-222,-75,116,-125,68,-164,90,360,90,360,270,90,360,90,90,180,180,,,,,,,,,,,683.4889,683.4897,,0,96,96,96,1,11,novel,,,,,,,,,,,,,,,,,,,,,,,,,,,,,,,,,,,,,,,,,,,,,,,,,
,,13,1,${e://Field/PROLIFIC_PID,F,18,2023-11-03_16h39.34.937,MouseEye_CC,2023.2.2,Win32,60.12867537,1.28,,,2195,1235,67.00800000000001,3.68,"387.45, 54.8, 34.81, 410.84, 61.05, 32.88, 35.1",627.38,11.69628991,43.04234686,27.83653633,Passed,144.191862,,,,,,,,,,,,,,,,,,,,,training,7,2,0,left,a,,,,,683.4899,683.9056,35.84,4.785888672,-5.928588867,1,0,0,0.4156,fixationPoint,683.9056,684.0059,684.0059,685.189,35.84,10240,616.96,a,1,1.167,,685.189,685.3889,,,,,,,,58,114,-25,124,168,73,79,126,209,-173,76,-166,28,-224,128,-20,-66,-176,-32,-26,-211,79,-221,127,-161,90,180,360,90,270,90,360,270,180,90,270,,,,,,,,,,,685.389,685.389,,0,97,97,97,1,7,repeated,,,,,,,,,,,,,,,,,,,,,,,,,,,,,,,,,,,,,,,,,,,,,,,,,
,,13,1,${e://Field/PROLIFIC_PID,F,18,2023-11-03_16h39.34.937,MouseEye_CC,2023.2.2,Win32,60.12867537,1.28,,,2195,1235,67.00800000000001,3.68,"387.45, 54.8, 34.81, 410.84, 61.05, 32.88, 35.1",627.38,11.69628991,43.04234686,27.83653633,Passed,144.191862,,,,,,,,,,,,,,,,,,,,,training,7,3,0,left,a,,,,,685.3893,685.839,35.84,4.785888672,-5.357177734,1,0,0,0.4495,fixationPoint,685.839,685.939,685.939,686.939,35.84,10240,616.96,a,1,0.9875,,686.9391,687.139,,,,,,,,29,168,114,-174,169,-224,128,-112,162,-26,-211,-211,-19,-29,-124,79,-221,165,-224,212,-67,30,163,25,128,360,360,360,360,90,180,360,270,90,270,90,,,,,,,,,,,687.139,687.1391,,0,98,98,98,1,14,novel,,,,,,,,,,,,,,,,,,,,,,,,,,,,,,,,,,,,,,,,,,,,,,,,,
,,13,1,${e://Field/PROLIFIC_PID,F,18,2023-11-03_16h39.34.937,MouseEye_CC,2023.2.2,Win32,60.12867537,1.28,,,2195,1235,67.00800000000001,3.68,"387.45, 54.8, 34.81, 410.84, 61.05, 32.88, 35.1",627.38,11.69628991,43.04234686,27.83653633,Passed,144.191862,,,,,,,,,,,,,,,,,,,,,training,7,4,180,right,s,,,,,687.1393,687.3057,35.84,1.357177734,-4.214294434,1,0,0,0.1663,fixationPoint,687.3058,687.4057,687.4057,690.0892,35.84,10240,616.96,s,1,2.6727,,690.0892,690.2893,,,,,,,,63,-117,-71,66,170,70,223,161,18,-27,74,-24,126,-166,28,127,-161,120,-80,23,-119,-121,-208,-20,-66,90,270,180,90,270,90,90,360,270,270,270,,,,,,,,,,,690.2894,690.2894,,0,99,99,99,1,10,novel,,,,,,,,,,,,,,,,,,,,,,,,,,,,,,,,,,,,,,,,,,,,,,,,,
,,13,1,${e://Field/PROLIFIC_PID,F,18,2023-11-03_16h39.34.937,MouseEye_CC,2023.2.2,Win32,60.12867537,1.28,,,2195,1235,67.00800000000001,3.68,"387.45, 54.8, 34.81, 410.84, 61.05, 32.88, 35.1",627.38,11.69628991,43.04234686,27.83653633,Passed,144.191862,,,,,,,,,,,,,,,,,,,,,training,7,5,0,left,a,,,,,690.2897,690.3392,35.84,1.928588867,12.3571167,1,0,0,0.0494,fixationPoint,690.3392,690.4392,690.4392,693.0895,35.84,10240,616.96,a,1,2.6386,,693.0895,693.2895,,,,,,,,26,25,128,-173,76,-77,64,-118,65,-167,-213,-170,-125,-211,-19,219,-219,64,-26,120,-80,212,22,210,67,180,90,180,180,180,360,180,180,360,180,180,,,,,,,,,,,693.2895,693.2896,,0,100,100,100,1,13,novel,,,,,,,,,,,,,,,,,,,,,,,,,,,,,,,,,,,,,,,,,,,,,,,,,
,,13,1,${e://Field/PROLIFIC_PID,F,18,2023-11-03_16h39.34.937,MouseEye_CC,2023.2.2,Win32,60.12867537,1.28,,,2195,1235,67.00800000000001,3.68,"387.45, 54.8, 34.81, 410.84, 61.05, 32.88, 35.1",627.38,11.69628991,43.04234686,27.83653633,Passed,144.191862,,,,,,,,,,,,,,,,,,,,,training,7,6,180,right,s,,,,,693.2898,693.6894,35.84,-5.5,12.3571167,1,0,0,0.3995,fixationPoint,693.6895,693.7896,693.7896,697.3064,35.84,10240,616.96,s,1,3.5028,,697.3064,697.5064,,,,,,,,43,-120,24,120,127,124,168,32,71,-74,-213,-67,-117,-80,-76,165,-224,127,-161,64,-26,-77,64,-77,161,90,360,90,270,90,180,90,360,90,180,180,,,,,,,,,,,697.5064,697.5065,,0,101,101,101,1,15,novel,,,,,,,,,,,,,,,,,,,,,,,,,,,,,,,,,,,,,,,,,,,,,,,,,
,,13,1,${e://Field/PROLIFIC_PID,F,18,2023-11-03_16h39.34.937,MouseEye_CC,2023.2.2,Win32,60.12867537,1.28,,,2195,1235,67.00800000000001,3.68,"387.45, 54.8, 34.81, 410.84, 61.05, 32.88, 35.1",627.38,11.69628991,43.04234686,27.83653633,Passed,144.191862,,,,,,,,,,,,,,,,,,,,,training,7,7,0,left,a,,,,,697.5068,697.5563,35.84,-6.642822266,8.357116699,1,0,0,0.0494,fixationPoint,697.5563,697.6563,697.6564,699.5232,35.84,10240,616.96,a,1,1.8457,,699.5232,699.7231,,,,,,,,22,-175,118,32,71,126,209,169,74,-172,-167,-22,-16,-176,-32,224,-30,68,-164,30,-24,-212,165,-24,126,90,180,90,180,90,270,90,270,360,270,270,,,,,,,,,,,699.7231,699.7231,,0,102,102,102,1,3,repeated,,,,,,,,,,,,,,,,,,,,,,,,,,,,,,,,,,,,,,,,,,,,,,,,,
,,13,1,${e://Field/PROLIFIC_PID,F,18,2023-11-03_16h39.34.937,MouseEye_CC,2023.2.2,Win32,60.12867537,1.28,,,2195,1235,67.00800000000001,3.68,"387.45, 54.8, 34.81, 410.84, 61.05, 32.88, 35.1",627.38,11.69628991,43.04234686,27.83653633,Passed,144.191862,,,,,,,,,,,,,,,,,,,,,training,7,8,180,right,s,,,,,699.7234,700.1231,35.84,-6.642822266,8.357116699,1,0,0,0.3996,fixationPoint,700.1232,700.2232,700.2232,701.0898,35.84,10240,616.96,s,1,0.8616,,701.0898,701.2899,,,,,,,,24,-75,120,216,164,175,168,210,67,-222,-75,-22,-16,-117,-71,164,-18,127,-161,28,-168,-20,208,-120,24,360,360,180,270,90,270,180,90,90,360,180,,,,,,,,,,,701.2899,701.29,,0,103,103,103,1,4,repeated,,,,,,,,,,,,,,,,,,,,,,,,,,,,,,,,,,,,,,,,,,,,,,,,,
,,13,1,${e://Field/PROLIFIC_PID,F,18,2023-11-03_16h39.34.937,MouseEye_CC,2023.2.2,Win32,60.12867537,1.28,,,2195,1235,67.00800000000001,3.68,"387.45, 54.8, 34.81, 410.84, 61.05, 32.88, 35.1",627.38,11.69628991,43.04234686,27.83653633,Passed,144.191862,,,,,,,,,,,,,,,,,,,,,training,7,9,180,right,s,,,,,701.2902,701.3399,35.84,-6.642822266,8.357116699,1,0,0,0.0496,fixationPoint,701.3399,701.4398,701.4399,702.2066,35.84,10240,616.96,s,1,0.7569,,702.2066,702.4067,,,,,,,,25,-24,126,71,20,210,67,66,170,-74,-213,-67,-117,-26,-211,216,-164,213,-128,127,-161,-223,221,-79,28,270,360,180,90,180,270,360,90,270,90,270,,,,,,,,,,,702.4067,702.4067,,0,104,104,104,1,16,novel,,,,,,,,,,,,,,,,,,,,,,,,,,,,,,,,,,,,,,,,,,,,,,,,,
,,13,1,${e://Field/PROLIFIC_PID,F,18,2023-11-03_16h39.34.937,MouseEye_CC,2023.2.2,Win32,60.12867537,1.28,,,2195,1235,67.00800000000001,3.68,"387.45, 54.8, 34.81, 410.84, 61.05, 32.88, 35.1",627.38,11.69628991,43.04234686,27.83653633,Passed,144.191862,,,,,,,,,,,,,,,,,,,,,training,7,10,180,right,s,,,,,702.4069,702.5399,35.84,-6.642822266,8.357116699,1,0,0,0.1329,fixationPoint,702.5399,702.64,702.64,704.3232,35.84,10240,616.96,s,1,1.6685,,704.3233,704.5234,,,,,,,,72,-170,-125,127,78,71,20,32,71,-223,221,-128,112,-27,74,28,-214,80,-123,23,-119,-167,-213,-124,-20,180,360,90,360,180,180,90,180,360,360,90,,,,,,,,,,,704.5235,704.5236,,0,105,105,105,1,6,repeated,,,,,,,,,,,,,,,,,,,,,,,,,,,,,,,,,,,,,,,,,,,,,,,,,
,,13,1,${e://Field/PROLIFIC_PID,F,18,2023-11-03_16h39.34.937,MouseEye_CC,2023.2.2,Win32,60.12867537,1.28,,,2195,1235,67.00800000000001,3.68,"387.45, 54.8, 34.81, 410.84, 61.05, 32.88, 35.1",627.38,11.69628991,43.04234686,27.83653633,Passed,144.191862,,,,,,,,,,,,,,,,,,,,,training,7,11,180,right,s,,,,,704.5238,704.5568,35.84,-6.642822266,8.357116699,1,0,0,0.0329,fixationPoint,704.5568,704.6567,704.6567,707.0735,35.84,10240,616.96,s,1,2.4047,,707.0736,707.2735,,,,,,,,77,80,-123,26,17,126,209,30,163,-79,28,-120,24,-220,16,-74,-213,-121,-208,-163,-79,30,-24,28,-214,180,90,360,360,180,360,270,270,90,90,360,,,,,,,,,,,707.2735,707.2736,,0,106,106,106,1,12,novel,,,,,,,,,,,,,,,,,,,,,,,,,,,,,,,,,,,,,,,,,,,,,,,,,
,,13,1,${e://Field/PROLIFIC_PID,F,18,2023-11-03_16h39.34.937,MouseEye_CC,2023.2.2,Win32,60.12867537,1.28,,,2195,1235,67.00800000000001,3.68,"387.45, 54.8, 34.81, 410.84, 61.05, 32.88, 35.1",627.38,11.69628991,43.04234686,27.83653633,Passed,144.191862,,,,,,,,,,,,,,,,,,,,,training,7,12,180,right,s,,,,,707.2739,707.3235,35.84,-6.642822266,8.357116699,1,0,0,0.0496,fixationPoint,707.3236,707.4235,707.4235,709.407,35.84,10240,616.96,s,1,1.9745,,709.407,709.607,,,,,,,,74,-67,-117,25,215,221,220,126,209,-173,76,-128,112,-24,126,213,-128,116,-125,164,-18,-26,-211,-211,-19,180,90,180,180,90,90,360,180,360,360,270,,,,,,,,,,,709.6071,709.6072,,0,107,107,107,1,9,novel,,,,,,,,,,,,,,,,,,,,,,,,,,,,,,,,,,,,,,,,,,,,,,,,,
,,13,1,${e://Field/PROLIFIC_PID,F,18,2023-11-03_16h39.34.937,MouseEye_CC,2023.2.2,Win32,60.12867537,1.28,,,2195,1235,67.00800000000001,3.68,"387.45, 54.8, 34.81, 410.84, 61.05, 32.88, 35.1",627.38,11.69628991,43.04234686,27.83653633,Passed,144.191862,,,,,,,,,,,,,,,,,,,,,training,7,13,0,left,a,,,,,709.6073,709.7903,35.84,-6.642822266,8.357116699,1,0,0,0.183,fixationPoint,709.7903,709.8904,709.8904,712.1905,35.84,10240,616.96,a,1,2.2845,,712.1905,712.3905,,,,,,,,38,127,78,-27,162,-120,24,-216,70,-163,-79,-116,-172,-211,-19,163,-116,127,-161,216,-164,25,128,32,71,270,90,360,360,180,360,360,180,270,270,90,,,,,,,,,,,712.3906,712.3906,,0,108,108,108,1,2,repeated,,,,,,,,,,,,,,,,,,,,,,,,,,,,,,,,,,,,,,,,,,,,,,,,,
,,13,1,${e://Field/PROLIFIC_PID,F,18,2023-11-03_16h39.34.937,MouseEye_CC,2023.2.2,Win32,60.12867537,1.28,,,2195,1235,67.00800000000001,3.68,"387.45, 54.8, 34.81, 410.84, 61.05, 32.88, 35.1",627.38,11.69628991,43.04234686,27.83653633,Passed,144.191862,,,,,,,,,,,,,,,,,,,,,training,7,14,0,left,a,,,,,712.3908,712.5738,35.84,-6.642822266,8.357116699,1,0,0,0.183,fixationPoint,712.5739,712.6738,712.6739,716.5076,35.84,10240,616.96,a,1,3.8134,,716.5076,716.7076,,,,,,,,75,-29,-124,66,170,221,120,161,18,-128,212,-75,120,-79,28,80,-123,27,-73,164,-18,-116,-172,-220,-124,90,90,90,180,360,360,270,180,270,270,360,,,,,,,,,,,716.7076,716.7077,,0,109,109,109,1,5,repeated,,,,,,,,,,,,,,,,,,,,,,,,,,,,,,,,,,,,,,,,,,,,,,,,,
,,13,1,${e://Field/PROLIFIC_PID,F,18,2023-11-03_16h39.34.937,MouseEye_CC,2023.2.2,Win32,60.12867537,1.28,,,2195,1235,67.00800000000001,3.68,"387.45, 54.8, 34.81, 410.84, 61.05, 32.88, 35.1",627.38,11.69628991,43.04234686,27.83653633,Passed,144.191862,,,,,,,,,,,,,,,,,,,,,training,7,15,0,left,a,,,,,716.7079,716.7242,35.84,-6.642822266,8.357116699,1,0,0,0.016,fixationPoint,716.7242,716.824,716.8241,718.0076,35.84,10240,616.96,a,1,1.1743,,718.0076,718.2075,,,,,,,,27,76,120,-223,221,-18,28,-24,126,-121,-208,-117,-71,-121,-123,27,-73,168,-72,165,-224,25,128,175,168,90,270,90,90,270,90,270,90,360,270,90,,,,,,,,,,,718.2075,718.2076,,0,110,110,110,1,1,repeated,,,,,,,,,,,,,,,,,,,,,,,,,,,,,,,,,,,,,,,,,,,,,,,,,
,,13,1,${e://Field/PROLIFIC_PID,F,18,2023-11-03_16h39.34.937,MouseEye_CC,2023.2.2,Win32,60.12867537,1.28,,,2195,1235,67.00800000000001,3.68,"387.45, 54.8, 34.81, 410.84, 61.05, 32.88, 35.1",627.38,11.69628991,43.04234686,27.83653633,Passed,144.191862,,,,,,,,,,,,,,,,,,,,,training,7,16,0,left,a,,,,,718.2079,718.3742,35.84,-6.071411133,0.928405762,1,0,0,0.1663,fixationPoint,718.3742,718.4743,718.4743,719.8409,35.84,10240,616.96,a,1,1.348,,719.8417,720.0409,,,,,,,,76,23,-119,127,78,126,209,175,168,-212,165,-77,64,-128,112,-176,-32,-29,-124,-170,-125,64,-26,174,-167,360,270,360,270,90,180,90,360,270,360,270,,,,,,,,,,,720.041,721.4577,space,0,111,111,111,1,8,repeated,1.4097,,,,,,,,,,,,,,,,,,,,,,,,,,,,,,,,,,,,,,,,,,,,,,,,
,,13,1,${e://Field/PROLIFIC_PID,F,18,2023-11-03_16h39.34.937,MouseEye_CC,2023.2.2,Win32,60.12867537,1.28,,,2195,1235,67.00800000000001,3.68,"387.45, 54.8, 34.81, 410.84, 61.05, 32.88, 35.1",627.38,11.69628991,43.04234686,27.83653633,Passed,144.191862,,,,,,,,,,,,,,,,,,,,,training,8,1,0,left,a,,,,,721.4579,721.9911,35.84,-1.5,-1.928588867,1,0,0,0.5331,fixationPoint,721.9911,722.0911,722.0912,724.4079,35.84,10240,616.96,a,1,2.2991,,724.408,724.6079,,,,,,,,75,-29,-124,66,170,221,120,161,18,-128,212,-75,120,-79,28,80,-123,27,-73,164,-18,-116,-172,-220,-124,90,270,180,270,90,360,90,90,270,180,180,,,,,,,,,,,724.6079,724.6089,,0,112,112,112,1,5,repeated,,,,,,,,,,,,,,,,,,,,,,,,,,,,,,,,,,,,,,,,,,,,,,,,,
,,13,1,${e://Field/PROLIFIC_PID,F,18,2023-11-03_16h39.34.937,MouseEye_CC,2023.2.2,Win32,60.12867537,1.28,,,2195,1235,67.00800000000001,3.68,"387.45, 54.8, 34.81, 410.84, 61.05, 32.88, 35.1",627.38,11.69628991,43.04234686,27.83653633,Passed,144.191862,,,,,,,,,,,,,,,,,,,,,training,8,2,0,left,a,,,,,724.6091,724.6247,35.84,4.785888672,-0.785888672,1,0,0,0.0155,fixationPoint,724.6247,724.7246,724.7246,727.7081,35.84,10240,616.96,a,1,2.9778,,727.7081,727.908,,,,,,,,24,-75,120,216,164,175,168,210,67,-222,-75,-22,-16,-117,-71,164,-18,127,-161,28,-168,-20,208,-120,24,270,180,270,270,180,360,360,180,270,270,90,,,,,,,,,,,727.908,727.9081,,0,113,113,113,1,4,repeated,,,,,,,,,,,,,,,,,,,,,,,,,,,,,,,,,,,,,,,,,,,,,,,,,
