InstrStartPage.started,InstrStartPage.stopped,participant,designid,prolificid,Gender,Age,date,expName,psychopyVersion,OS,frameRate,ratio_monitor2CRT,VirtualChinrest.started,VirtualChinrest.stopped,xRes,yRes,viewingdistance_cm,pixeldensity_px2mm,BallPos,squarePos,mm2degree,px2degree,CRT_px2degree,PassVirtualChinrest,foveaRadius_inPixel,InstrRedo.started,InstrRedo.stopped,VirtualChinrest_Redo.started,VirtualChinrest_Redo.stopped,Redo_virtualChinrest,Instruction1.started,Instruction1.stopped,keyPractice.started,keyPractice.stopped,key_keyprac.keys,key_keyprac.corr,key_keyprac.rt,key_keyprac.duration,keyPracFeedback.started,keyPracFeedback.stopped,keyPracLoop.thisRepN,keyPracLoop.thisTrialN,keyPracLoop.thisN,keyPracLoop.thisIndex,keyPracLoop.ran,phase,block,trial,targOrientdeg,targOrient,corrAnswer,Instruction2.started,Instruction2.stopped,Instruction3.started,Instruction3.stopped,fixation.started,fixation.stopped,fixationSize,mouseintial.x,mouseintial.y,mouseintial.leftButton,mouseintial.midButton,mouseintial.rightButton,mouseintial.time,mouseintial.clicked_name,greenFixation.started,greenFixation.stopped,trial.started,trial.stopped,letterSize,apertureSize,searchsize,key_respMain.keys,key_respMain.corr,key_respMain.rt,key_respMain.duration,trialFeedback.started,trialFeedback.stopped,trialsPractice.thisRepN,trialsPractice.thisTrialN,trialsPractice.thisN,trialsPractice.thisIndex,trialsPractice.ran,targetQuad,Tcondition,targcell,tlocx,tlocy,d1x,d1y,d2x,d2y,d3x,d3y,d4x,d4y,d5x,d5y,d6x,d6y,d7x,d7y,d8x,d8y,d9x,d9y,d10x,d10y,d11x,d11y,d1Orient,d2Orient,d3Orient,d4Orient,d5Orient,d6Orient,d7Orient,d8Orient,d9Orient,d10Orient,d11Orient,CheckInstr.started,CheckInstr.stopped,key_checkInstr.keys,key_checkInstr.corr,key_checkInstr.rt,key_checkInstr.duration,CheckInstr_FB.started,CheckInstr_FB.stopped,Instruction_MainExp.started,Instruction_MainExp.stopped,TakeABreak.started,TakeABreak.stopped,key_respBreak.keys,trials.thisRepN,trials.thisTrialN,trials.thisN,trials.thisIndex,trials.ran,configurationNumber,CCCondition,key_respBreak.rt,key_respBreak.duration,displayTestingPhase.started,displayTestingPhase.stopped,key_respTesting.keys,key_respTesting.corr,key_respTesting.rt,key_respTesting.duration,TakeABreak2.started,TakeABreak2.stopped,key_RespBreak.keys,Testingtrials.thisRepN,Testingtrials.thisTrialN,Testingtrials.thisN,Testingtrials.thisIndex,Testingtrials.ran,key_RespBreak.rt,key_RespBreak.duration,RecogQuestion.started,RecogQuestion.stopped,key_AnswerQues.keys,key_AnswerQues.rt,key_AnswerQues.duration,Disclose.started,Disclose.stopped,InstrRT.started,InstrRT.stopped,fixation_RT.started,fixation_RT.stopped,mouseInitial.x,mouseInitial.y,mouseInitial.leftButton,mouseInitial.midButton,mouseInitial.rightButton,mouseInitial.time,mouseInitial.clicked_name,displayRT.started,displayRT.stopped,key_respRT.keys,key_respRT.corr,key_respRT.rt,key_respRT.duration,RTtrials.thisRepN,RTtrials.thisTrialN,RTtrials.thisN,RTtrials.thisIndex,RTtrials.ran,EndOfExperiment.started,EndOfExperiment.stopped
0.0009,3.1515,14,11,${e://Field/PROLIFIC_PID,M,21,2023-11-03_17h41.49.712,MouseEye_CC,2023.2.2,Win32,59.78358343,1,,,,,,,,,,,,,,,,,,,,,,,,,,,,,,,,,,,,,,,,,,,,,,,,,,,,,,,,,,,,,,,,,,,,,,,,,,,,,,,,,,,,,,,,,,,,,,,,,,,,,,,,,,,,,,,,,,,,,,,,,,,,,,,,,,,,,,,,,,,,,,,,,,,,,,,,,,,,,,,,,,,,,,,,,,,,,,,,,,
,,14,11,${e://Field/PROLIFIC_PID,M,21,2023-11-03_17h41.49.712,MouseEye_CC,2023.2.2,Win32,59.78358343,1.414353224,3.1518,71.6673,1920,1080,61.291999999999994,3.68,"83.07, 83.19, 80.69, 89.49, 86.14, 90.85, 87.45",627.38,10.6985584,39.3706949,27.83653633,Passed,131.8918279,,,,,,,,,,,,,,,,,,,,,,,,,,,,,,,,,,,,,,,,,,,,,,,,,,,,,,,,,,,,,,,,,,,,,,,,,,,,,,,,,,,,,,,,,,,,,,,,,,,,,,,,,,,,,,,,,,,,,,,,,,,,,,,,,,,,,,,,,,,,,,,,,,,,,,,,,,,,,,,,,,,,,
,,14,11,${e://Field/PROLIFIC_PID,M,21,2023-11-03_17h41.49.712,MouseEye_CC,2023.2.2,Win32,59.78358343,1.414353224,,,1920,1080,61.291999999999994,3.68,"83.07, 83.19, 80.69, 89.49, 86.14, 90.85, 87.45",627.38,10.6985584,39.3706949,27.83653633,Passed,131.8918279,71.6676,71.6697,,,,,,,,,,,,,,,,,,,,,,,,,,,,,,,,,,,,,,,,,,,,,,,,,,,,,,,,,,,,,,,,,,,,,,,,,,,,,,,,,,,,,,,,,,,,,,,,,,,,,,,,,,,,,,,,,,,,,,,,,,,,,,,,,,,,,,,,,,,,,,,,,,,,,,,,,,,,,,,,,,,
,,14,11,${e://Field/PROLIFIC_PID,M,21,2023-11-03_17h41.49.712,MouseEye_CC,2023.2.2,Win32,59.78358343,1.28,,,1920,1080,60.428999999999995,3.68,"83.07, 83.19, 80.69, 89.49, 86.14, 90.85, 87.45",627.38,10.54792119,38.81634996,27.83653633,Passed,130.0347724,,,71.6699,127.3399,failed,,,,,,,,,,,,,,,,,,,,,,,,,,,,,,,,,,,,,,,,,,,,,,,,,,,,,,,,,,,,,,,,,,,,,,,,,,,,,,,,,,,,,,,,,,,,,,,,,,,,,,,,,,,,,,,,,,,,,,,,,,,,,,,,,,,,,,,,,,,,,,,,,,,,,,,,,,,,,,,,
,,14,11,${e://Field/PROLIFIC_PID,M,21,2023-11-03_17h41.49.712,MouseEye_CC,2023.2.2,Win32,59.78358343,1.28,,,1920,1080,60.428999999999995,3.68,"83.07, 83.19, 80.69, 89.49, 86.14, 90.85, 87.45",627.38,10.54792119,38.81634996,27.83653633,Passed,130.0347724,,,,,,127.34,132.1771,,,,,,,,,,,,,,,,,,,,,,,,,,,,,,,,,,,,,,,,,,,,,,,,,,,,,,,,,,,,,,,,,,,,,,,,,,,,,,,,,,,,,,,,,,,,,,,,,,,,,,,,,,,,,,,,,,,,,,,,,,,,,,,,,,,,,,,,,,,,,,,,,,,,,,,,,,,,,,
,,14,11,${e://Field/PROLIFIC_PID,M,21,2023-11-03_17h41.49.712,MouseEye_CC,2023.2.2,Win32,59.78358343,1.28,,,1920,1080,60.428999999999995,3.68,"83.07, 83.19, 80.69, 89.49, 86.14, 90.85, 87.45",627.38,10.54792119,38.81634996,27.83653633,Passed,130.0347724,,,,,,,,132.189,133.7183,a,1,1.0108,,133.7183,134.2183,0,0,0,0,1,practice,1,1,0,left,a,,,,,,,,,,,,,,,,,,,,,,,,,,,,,,,,,,,,,,,,,,,,,,,,,,,,,,,,,,,,,,,,,,,,,,,,,,,,,,,,,,,,,,,,,,,,,,,,,,,,,,,,,,,,,,,,,,,,,,,,,,,,,,,,,,,,,,,,,,,
,,14,11,${e://Field/PROLIFIC_PID,M,21,2023-11-03_17h41.49.712,MouseEye_CC,2023.2.2,Win32,59.78358343,1.28,,,1920,1080,60.428999999999995,3.68,"83.07, 83.19, 80.69, 89.49, 86.14, 90.85, 87.45",627.38,10.54792119,38.81634996,27.83653633,Passed,130.0347724,,,,,,,,134.2188,135.1848,a,1,0.4416,,135.1848,135.6849,0,1,1,1,1,practice,1,2,0,left,a,,,,,,,,,,,,,,,,,,,,,,,,,,,,,,,,,,,,,,,,,,,,,,,,,,,,,,,,,,,,,,,,,,,,,,,,,,,,,,,,,,,,,,,,,,,,,,,,,,,,,,,,,,,,,,,,,,,,,,,,,,,,,,,,,,,,,,,,,,,
,,14,11,${e://Field/PROLIFIC_PID,M,21,2023-11-03_17h41.49.712,MouseEye_CC,2023.2.2,Win32,59.78358343,1.28,,,1920,1080,60.428999999999995,3.68,"83.07, 83.19, 80.69, 89.49, 86.14, 90.85, 87.45",627.38,10.54792119,38.81634996,27.83653633,Passed,130.0347724,,,,,,,,135.6852,136.5682,a,1,0.3616,,136.5683,137.0681,0,2,2,2,1,practice,1,3,0,left,a,,,,,,,,,,,,,,,,,,,,,,,,,,,,,,,,,,,,,,,,,,,,,,,,,,,,,,,,,,,,,,,,,,,,,,,,,,,,,,,,,,,,,,,,,,,,,,,,,,,,,,,,,,,,,,,,,,,,,,,,,,,,,,,,,,,,,,,,,,,
,,14,11,${e://Field/PROLIFIC_PID,M,21,2023-11-03_17h41.49.712,MouseEye_CC,2023.2.2,Win32,59.78358343,1.28,,,1920,1080,60.428999999999995,3.68,"83.07, 83.19, 80.69, 89.49, 86.14, 90.85, 87.45",627.38,10.54792119,38.81634996,27.83653633,Passed,130.0347724,,,,,,,,137.0684,138.035,s,1,0.4332,,138.035,138.5352,0,3,3,3,1,practice,1,4,180,right,s,,,,,,,,,,,,,,,,,,,,,,,,,,,,,,,,,,,,,,,,,,,,,,,,,,,,,,,,,,,,,,,,,,,,,,,,,,,,,,,,,,,,,,,,,,,,,,,,,,,,,,,,,,,,,,,,,,,,,,,,,,,,,,,,,,,,,,,,,,,
,,14,11,${e://Field/PROLIFIC_PID,M,21,2023-11-03_17h41.49.712,MouseEye_CC,2023.2.2,Win32,59.78358343,1.28,,,1920,1080,60.428999999999995,3.68,"83.07, 83.19, 80.69, 89.49, 86.14, 90.85, 87.45",627.38,10.54792119,38.81634996,27.83653633,Passed,130.0347724,,,,,,,,138.5358,139.4683,s,1,0.3998,,139.4683,139.9682,0,4,4,4,1,practice,1,5,180,right,s,,,,,,,,,,,,,,,,,,,,,,,,,,,,,,,,,,,,,,,,,,,,,,,,,,,,,,,,,,,,,,,,,,,,,,,,,,,,,,,,,,,,,,,,,,,,,,,,,,,,,,,,,,,,,,,,,,,,,,,,,,,,,,,,,,,,,,,,,,,
,,14,11,${e://Field/PROLIFIC_PID,M,21,2023-11-03_17h41.49.712,MouseEye_CC,2023.2.2,Win32,59.78358343,1.28,,,1920,1080,60.428999999999995,3.68,"83.07, 83.19, 80.69, 89.49, 86.14, 90.85, 87.45",627.38,10.54792119,38.81634996,27.83653633,Passed,130.0347724,,,,,,,,139.9684,140.9181,a,1,0.4144,,140.9181,141.4181,0,5,5,5,1,practice,1,6,0,left,a,,,,,,,,,,,,,,,,,,,,,,,,,,,,,,,,,,,,,,,,,,,,,,,,,,,,,,,,,,,,,,,,,,,,,,,,,,,,,,,,,,,,,,,,,,,,,,,,,,,,,,,,,,,,,,,,,,,,,,,,,,,,,,,,,,,,,,,,,,,
,,14,11,${e://Field/PROLIFIC_PID,M,21,2023-11-03_17h41.49.712,MouseEye_CC,2023.2.2,Win32,59.78358343,1.28,,,1920,1080,60.428999999999995,3.68,"83.07, 83.19, 80.69, 89.49, 86.14, 90.85, 87.45",627.38,10.54792119,38.81634996,27.83653633,Passed,130.0347724,,,,,,,,,,,,,,,,,,,,,,,,,,,141.4187,143.2184,,,,,,,,,,,,,,,,,,,,,,,,,,,,,,,,,,,,,,,,,,,,,,,,,,,,,,,,,,,,,,,,,,,,,,,,,,,,,,,,,,,,,,,,,,,,,,,,,,,,,,,,,,,,,,,,,,,,,,,,,,,,,,,,,,,,,,,,,
,,14,11,${e://Field/PROLIFIC_PID,M,21,2023-11-03_17h41.49.712,MouseEye_CC,2023.2.2,Win32,59.78358343,1.28,,,1920,1080,60.428999999999995,3.68,"83.07, 83.19, 80.69, 89.49, 86.14, 90.85, 87.45",627.38,10.54792119,38.81634996,27.83653633,Passed,130.0347724,,,,,,,,,,,,,,,,,,,,,,,,,,,,,143.2186,148.4724,,,,,,,,,,,,,,,,,,,,,,,,,,,,,,,,,,,,,,,,,,,,,,,,,,,,,,,,,,,,,,,,,,,,,,,,,,,,,,,,,,,,,,,,,,,,,,,,,,,,,,,,,,,,,,,,,,,,,,,,,,,,,,,,,,,,,,,
,,14,11,${e://Field/PROLIFIC_PID,M,21,2023-11-03_17h41.49.712,MouseEye_CC,2023.2.2,Win32,59.78358343,1.28,,,1920,1080,60.428999999999995,3.68,"83.07, 83.19, 80.69, 89.49, 86.14, 90.85, 87.45",627.38,10.54792119,38.81634996,27.83653633,Passed,130.0347724,,,,,,,,,,,,,,,,,,,,,practice,0,1,0,left,a,,,,,148.4838,149.1351,35.84,1.136352539,4.636383057,1,0,0,0.6512,fixationPoint,149.1352,149.235,149.2352,152.2519,35.84,10240,616.96,a,1,2.9892,,152.252,152.4515,0,0,0,0,1,4,sparse,90,217,-164,68,123,222,26,214,216,-218,159,-120,223,-110,82,-115,-130,-224,-120,-68,-219,79,-175,19,-128,90,270,360,90,270,270,180,90,90,90,270,,,,,,,,,,,,,,,,,,,,,,,,,,,,,,,,,,,,,,,,,,,,,,,,,,,,,,,,,,,,,,,,,,,,,
,,14,11,${e://Field/PROLIFIC_PID,M,21,2023-11-03_17h41.49.712,MouseEye_CC,2023.2.2,Win32,59.78358343,1.28,,,1920,1080,60.428999999999995,3.68,"83.07, 83.19, 80.69, 89.49, 86.14, 90.85, 87.45",627.38,10.54792119,38.81634996,27.83653633,Passed,130.0347724,,,,,,,,,,,,,,,,,,,,,practice,0,2,0,left,a,,,,,152.4518,152.9515,35.84,7.499938965,2.818206787,1,0,0,0.4997,fixationPoint,152.9515,153.0515,153.0515,154.6182,35.84,10240,616.96,s,0,1.5426,,154.6182,158.6183,0,1,1,1,1,1,rich,39,169,66,-126,125,-169,169,-130,19,-169,-116,-125,-167,-224,-216,218,-129,171,-218,18,-208,166,26,17,170,180,90,360,270,90,90,90,270,180,180,270,,,,,,,,,,,,,,,,,,,,,,,,,,,,,,,,,,,,,,,,,,,,,,,,,,,,,,,,,,,,,,,,,,,,,
,,14,11,${e://Field/PROLIFIC_PID,M,21,2023-11-03_17h41.49.712,MouseEye_CC,2023.2.2,Win32,59.78358343,1.28,,,1920,1080,60.428999999999995,3.68,"83.07, 83.19, 80.69, 89.49, 86.14, 90.85, 87.45",627.38,10.54792119,38.81634996,27.83653633,Passed,130.0347724,,,,,,,,,,,,,,,,,,,,,practice,0,3,0,left,a,,,,,158.6239,159.1348,35.84,2.954528809,3.727294922,1,0,0,0.5109,fixationPoint,159.1349,159.2351,159.2352,160.7516,35.84,10240,616.96,a,1,1.4921,,160.7516,160.9516,0,2,2,2,1,2,sparse,22,-162,126,222,26,17,170,126,172,-25,-117,-175,-206,-224,-216,116,-19,130,-174,217,-164,-218,159,-21,162,90,90,180,360,360,270,360,360,360,360,180,,,,,,,,,,,,,,,,,,,,,,,,,,,,,,,,,,,,,,,,,,,,,,,,,,,,,,,,,,,,,,,,,,,,,
,,14,11,${e://Field/PROLIFIC_PID,M,21,2023-11-03_17h41.49.712,MouseEye_CC,2023.2.2,Win32,59.78358343,1.28,,,1920,1080,60.428999999999995,3.68,"83.07, 83.19, 80.69, 89.49, 86.14, 90.85, 87.45",627.38,10.54792119,38.81634996,27.83653633,Passed,130.0347724,,,,,,,,,,,,,,,,,,,,,practice,0,4,180,right,s,,,,,160.9517,161.3848,35.84,2.045410156,3.727294922,1,0,0,0.433,fixationPoint,161.3848,161.4726,161.4727,163.5183,35.84,10240,616.96,s,1,2.0283,,163.5183,163.7182,0,3,3,3,1,4,sparse,76,19,-128,159,121,214,216,219,165,-218,159,-162,126,-219,119,-169,-116,-111,-31,-175,-206,18,-208,81,-114,90,270,180,180,270,180,360,360,360,270,360,,,,,,,,,,,,,,,,,,,,,,,,,,,,,,,,,,,,,,,,,,,,,,,,,,,,,,,,,,,,,,,,,,,,,
,,14,11,${e://Field/PROLIFIC_PID,M,21,2023-11-03_17h41.49.712,MouseEye_CC,2023.2.2,Win32,59.78358343,1.28,,,1920,1080,60.428999999999995,3.68,"83.07, 83.19, 80.69, 89.49, 86.14, 90.85, 87.45",627.38,10.54792119,38.81634996,27.83653633,Passed,130.0347724,,,,,,,,,,,,,,,,,,,,,practice,0,5,180,right,s,,,,,163.7185,164.0184,35.84,2.045410156,3.727294922,1,0,0,0.2999,fixationPoint,164.0185,164.1183,164.1183,166.035,35.84,10240,616.96,s,1,1.8846,,166.035,166.2349,0,4,4,4,1,3,sparse,85,-19,-173,219,165,68,123,214,216,-160,68,-64,120,-226,34,162,-21,224,-216,167,-163,-167,-74,-224,-216,360,360,360,90,180,270,90,360,270,270,360,,,,,,,,,,,,,,,,,,,,,,,,,,,,,,,,,,,,,,,,,,,,,,,,,,,,,,,,,,,,,,,,,,,,,
,,14,11,${e://Field/PROLIFIC_PID,M,21,2023-11-03_17h41.49.712,MouseEye_CC,2023.2.2,Win32,59.78358343,1.28,,,1920,1080,60.428999999999995,3.68,"83.07, 83.19, 80.69, 89.49, 86.14, 90.85, 87.45",627.38,10.54792119,38.81634996,27.83653633,Passed,130.0347724,,,,,,,,,,,,,,,,,,,,,practice,0,6,180,right,s,,,,,166.2352,166.3516,35.84,2.045410156,3.727294922,1,0,0,0.1164,fixationPoint,166.3516,166.4626,166.4626,171.5018,35.84,10240,616.96,s,1,5.027,,171.5018,171.7015,0,5,5,5,1,3,sparse,95,-21,-224,126,172,219,165,166,26,-166,207,-223,206,-219,119,169,-75,18,-208,224,-216,-72,-121,-115,-130,180,180,360,180,360,180,270,180,90,180,360,,,,,,,,,,,,,,,,,,,,,,,,,,,,,,,,,,,,,,,,,,,,,,,,,,,,,,,,,,,,,,,,,,,,,
,,14,11,${e://Field/PROLIFIC_PID,M,21,2023-11-03_17h41.49.712,MouseEye_CC,2023.2.2,Win32,59.78358343,1.28,,,1920,1080,60.428999999999995,3.68,"83.07, 83.19, 80.69, 89.49, 86.14, 90.85, 87.45",627.38,10.54792119,38.81634996,27.83653633,Passed,130.0347724,,,,,,,,,,,,,,,,,,,,,practice,0,7,0,left,a,,,,,171.7018,171.8183,35.84,2.045410156,3.727294922,1,0,0,0.1164,fixationPoint,171.8183,171.9183,171.9183,175.0517,35.84,10240,616.96,a,1,3.096,,175.0518,175.2515,0,6,6,6,1,1,rich,7,62,223,-166,207,-226,34,-162,126,-169,-116,-168,-160,-161,-27,15,-162,162,-21,79,-175,219,165,219,129,180,180,360,180,270,360,180,360,270,180,360,,,,,,,,,,,,,,,,,,,,,,,,,,,,,,,,,,,,,,,,,,,,,,,,,,,,,,,,,,,,,,,,,,,,,
,,14,11,${e://Field/PROLIFIC_PID,M,21,2023-11-03_17h41.49.712,MouseEye_CC,2023.2.2,Win32,59.78358343,1.28,,,1920,1080,60.428999999999995,3.68,"83.07, 83.19, 80.69, 89.49, 86.14, 90.85, 87.45",627.38,10.54792119,38.81634996,27.83653633,Passed,130.0347724,,,,,,,,,,,,,,,,,,,,,practice,0,8,180,right,s,,,,,175.2518,175.4016,35.84,2.045410156,3.727294922,1,0,0,0.1498,fixationPoint,175.4016,175.5017,175.5017,176.7349,35.84,10240,616.96,s,1,1.211,,176.735,176.935,0,7,7,7,1,2,sparse,24,-64,120,18,215,126,172,33,121,-206,-170,-64,-162,-218,-78,130,-174,211,-74,168,-130,-164,32,-21,162,90,180,270,360,180,90,180,180,180,360,270,,,,,,,,,,,,,,,,,,,,,,,,,,,,,,,,,,,,,,,,,,,,,,,,,,,,,,,,,,,,,,,,,,,,,
,,14,11,${e://Field/PROLIFIC_PID,M,21,2023-11-03_17h41.49.712,MouseEye_CC,2023.2.2,Win32,59.78358343,1.28,,,1920,1080,60.428999999999995,3.68,"83.07, 83.19, 80.69, 89.49, 86.14, 90.85, 87.45",627.38,10.54792119,38.81634996,27.83653633,Passed,130.0347724,,,,,,,,,,,,,,,,,,,,,practice,0,9,180,right,s,,,,,176.9361,177.235,35.84,2.045410156,3.727294922,1,0,0,0.2988,fixationPoint,177.2351,177.3348,177.3349,179.1683,35.84,10240,616.96,s,1,1.8038,,179.1684,179.3683,0,8,8,8,1,3,sparse,85,-19,-173,127,30,62,223,217,67,-110,82,-21,162,-80,218,167,-163,126,-79,130,-174,-125,-167,-68,-219,360,360,360,180,360,360,180,270,90,360,180,,,,,,,,,,,,,,,,,,,,,,,,,,,,,,,,,,,,,,,,,,,,,,,,,,,,,,,,,,,,,,,,,,,,,
,,14,11,${e://Field/PROLIFIC_PID,M,21,2023-11-03_17h41.49.712,MouseEye_CC,2023.2.2,Win32,59.78358343,1.28,,,1920,1080,60.428999999999995,3.68,"83.07, 83.19, 80.69, 89.49, 86.14, 90.85, 87.45",627.38,10.54792119,38.81634996,27.83653633,Passed,130.0347724,,,,,,,,,,,,,,,,,,,,,practice,0,10,180,right,s,,,,,179.3686,179.535,35.84,2.045410156,3.727294922,1,0,0,0.1661,fixationPoint,179.535,179.6349,179.6349,182.2183,35.84,10240,616.96,s,1,2.554,,182.2183,182.4182,0,9,9,9,1,1,rich,9,160,209,-166,207,-226,34,-120,223,-224,-120,-118,-217,-218,-78,112,-209,126,-113,169,-75,178,160,110,129,180,90,90,270,360,270,360,180,360,180,360,,,,,,,,,,,,,,,,,,,,,,,,,,,,,,,,,,,,,,,,,,,,,,,,,,,,,,,,,,,,,,,,,,,,,
,,14,11,${e://Field/PROLIFIC_PID,M,21,2023-11-03_17h41.49.712,MouseEye_CC,2023.2.2,Win32,59.78358343,1.28,,,1920,1080,60.428999999999995,3.68,"83.07, 83.19, 80.69, 89.49, 86.14, 90.85, 87.45",627.38,10.54792119,38.81634996,27.83653633,Passed,130.0347724,,,,,,,,,,,,,,,,,,,,,practice,0,11,180,right,s,,,,,182.4184,182.5516,35.84,2.045410156,3.727294922,1,0,0,0.1331,fixationPoint,182.5517,182.6515,182.6516,185.0224,35.84,10240,616.96,s,1,2.3498,,185.0225,185.2185,0,10,10,10,1,4,sparse,80,218,-129,62,223,159,121,110,129,-218,159,-223,206,-75,173,-169,-116,-118,-217,-125,-167,217,-164,169,-75,360,270,360,180,360,180,180,270,360,180,90,,,,,,,,,,,,,,,,,,,,,,,,,,,,,,,,,,,,,,,,,,,,,,,,,,,,,,,,,,,,,,,,,,,,,
,,14,11,${e://Field/PROLIFIC_PID,M,21,2023-11-03_17h41.49.712,MouseEye_CC,2023.2.2,Win32,59.78358343,1.28,,,1920,1080,60.428999999999995,3.68,"83.07, 83.19, 80.69, 89.49, 86.14, 90.85, 87.45",627.38,10.54792119,38.81634996,27.83653633,Passed,130.0347724,,,,,,,,,,,,,,,,,,,,,practice,0,12,0,left,a,,,,,185.2187,185.3184,35.84,2.045410156,3.727294922,1,0,0,0.0995,fixationPoint,185.3184,185.4183,185.4184,186.3851,35.84,10240,616.96,a,1,0.9354,,186.3851,186.585,0,11,11,11,1,3,sparse,75,-25,-117,110,129,125,63,214,216,-164,32,-27,117,-126,125,171,-218,126,-113,167,-163,-21,-224,-212,-21,270,180,180,360,180,270,360,270,360,180,270,,,,,,,,,,,,,,,,,,,,,,,,,,,,,,,,,,,,,,,,,,,,,,,,,,,,,,,,,,,,,,,,,,,,,
,,14,11,${e://Field/PROLIFIC_PID,M,21,2023-11-03_17h41.49.712,MouseEye_CC,2023.2.2,Win32,59.78358343,1.28,,,1920,1080,60.428999999999995,3.68,"83.07, 83.19, 80.69, 89.49, 86.14, 90.85, 87.45",627.38,10.54792119,38.81634996,27.83653633,Passed,130.0347724,,,,,,,,,,,,,,,,,,,,,,,,,,,,,,,,,,,,,,,,,,,,,,,,,,,,,,,,,,,,,,,,,,,,,,,,,,,,,,,,,,,,,,,,,,,,,,,,,186.5854,189.3184,a,1,2.7006,,,,,,,,,,,,,,,,,,,,,,,,,,,,,,,,,,,,,,,,,,,,,,,,,,,,,,,,,,,,,,,,
,,14,11,${e://Field/PROLIFIC_PID,M,21,2023-11-03_17h41.49.712,MouseEye_CC,2023.2.2,Win32,59.78358343,1.28,,,1920,1080,60.428999999999995,3.68,"83.07, 83.19, 80.69, 89.49, 86.14, 90.85, 87.45",627.38,10.54792119,38.81634996,27.83653633,Passed,130.0347724,,,,,,,,,,,,,,,,,,,,,,,,,,,,,,,,,,,,,,,,,,,,,,,,,,,,,,,,,,,,,,,,,,,,,,,,,,,,,,,,,,,,,,,,,,,,,,,,,,,,,,,189.3185,191.3851,,,,,,,,,,,,,,,,,,,,,,,,,,,,,,,,,,,,,,,,,,,,,,,,,,,,,,,,,,,,,
,,14,11,${e://Field/PROLIFIC_PID,M,21,2023-11-03_17h41.49.712,MouseEye_CC,2023.2.2,Win32,59.78358343,1.28,,,1920,1080,60.428999999999995,3.68,"83.07, 83.19, 80.69, 89.49, 86.14, 90.85, 87.45",627.38,10.54792119,38.81634996,27.83653633,Passed,130.0347724,,,,,,,,,,,,,,,,,,,,,,,,,,,,,,,,,,,,,,,,,,,,,,,,,,,,,,,,,,,,,,,,,,,,,,,,,,,,,,,,,,,,,,,,,,,,,,,,,,,,,,,,,191.3853,197.4186,,,,,,,,,,,,,,,,,,,,,,,,,,,,,,,,,,,,,,,,,,,,,,,,,,,,,,,,,,,
,,14,11,${e://Field/PROLIFIC_PID,M,21,2023-11-03_17h41.49.712,MouseEye_CC,2023.2.2,Win32,59.78358343,1.28,,,1920,1080,60.428999999999995,3.68,"83.07, 83.19, 80.69, 89.49, 86.14, 90.85, 87.45",627.38,10.54792119,38.81634996,27.83653633,Passed,130.0347724,,,,,,,,,,,,,,,,,,,,,training,1,1,180,right,s,,,,,197.4891,197.985,35.84,-5.227294922,-2.636352539,1,0,0,0.4957,fixationPoint,197.9851,198.085,198.0851,199.8851,35.84,10240,616.96,s,1,1.7885,,199.8853,200.085,,,,,,,,93,-126,-209,24,113,125,164,169,68,-70,22,-172,16,-72,215,66,-120,160,-126,27,-216,-120,-117,-170,-212,90,90,360,360,90,180,90,360,360,360,90,,,,,,,,,,,200.0853,200.0872,,0,0,0,0,1,5,repeated,,,,,,,,,,,,,,,,,,,,,,,,,,,,,,,,,,,,,,,,,,,,,,,,,
,,14,11,${e://Field/PROLIFIC_PID,M,21,2023-11-03_17h41.49.712,MouseEye_CC,2023.2.2,Win32,59.78358343,1.28,,,1920,1080,60.428999999999995,3.68,"83.07, 83.19, 80.69, 89.49, 86.14, 90.85, 87.45",627.38,10.54792119,38.81634996,27.83653633,Passed,130.0347724,,,,,,,,,,,,,,,,,,,,,training,1,2,0,left,a,,,,,200.0877,200.2517,35.84,2.954528809,8.272735596,1,0,0,0.1639,fixationPoint,200.2517,200.3516,200.3516,205.035,35.84,10240,616.96,a,1,4.6738,,205.035,205.235,,,,,,,,70,219,-72,220,122,125,32,125,164,-209,221,-169,117,-80,174,-19,-128,-219,-75,-170,-212,24,-65,29,-114,360,180,90,270,270,90,90,360,360,270,90,,,,,,,,,,,205.235,205.2351,,0,1,1,1,1,8,repeated,,,,,,,,,,,,,,,,,,,,,,,,,,,,,,,,,,,,,,,,,,,,,,,,,
,,14,11,${e://Field/PROLIFIC_PID,M,21,2023-11-03_17h41.49.712,MouseEye_CC,2023.2.2,Win32,59.78358343,1.28,,,1920,1080,60.428999999999995,3.68,"83.07, 83.19, 80.69, 89.49, 86.14, 90.85, 87.45",627.38,10.54792119,38.81634996,27.83653633,Passed,130.0347724,,,,,,,,,,,,,,,,,,,,,training,1,3,0,left,a,,,,,205.2353,205.3684,35.84,-4.31829834,8.272735596,1,0,0,0.133,fixationPoint,205.3684,205.4682,205.4683,208.0017,35.84,10240,616.96,a,1,2.5177,,208.0017,208.2016,,,,,,,,29,166,115,-64,123,-21,173,-163,214,-26,-76,-173,-66,-26,-218,24,-65,68,-211,116,-77,76,28,164,223,270,90,270,270,360,360,90,180,360,360,180,,,,,,,,,,,208.2017,208.2017,,0,2,2,2,1,14,novel,,,,,,,,,,,,,,,,,,,,,,,,,,,,,,,,,,,,,,,,,,,,,,,,,
,,14,11,${e://Field/PROLIFIC_PID,M,21,2023-11-03_17h41.49.712,MouseEye_CC,2023.2.2,Win32,59.78358343,1.28,,,1920,1080,60.428999999999995,3.68,"83.07, 83.19, 80.69, 89.49, 86.14, 90.85, 87.45",627.38,10.54792119,38.81634996,27.83653633,Passed,130.0347724,,,,,,,,,,,,,,,,,,,,,training,1,4,0,left,a,,,,,208.2031,208.2851,35.84,-0.68182373,5.545471191,1,0,0,0.082,fixationPoint,208.2851,208.385,208.385,210.4183,35.84,10240,616.96,a,1,2.0239,,210.4183,210.6183,,,,,,,,87,75,-176,67,68,32,28,16,210,-209,221,-169,117,-30,210,-119,-172,-73,-112,-72,-215,18,-176,219,-72,90,90,180,180,180,270,180,270,360,90,180,,,,,,,,,,,210.6183,210.6184,,0,3,3,3,1,7,repeated,,,,,,,,,,,,,,,,,,,,,,,,,,,,,,,,,,,,,,,,,,,,,,,,,
,,14,11,${e://Field/PROLIFIC_PID,M,21,2023-11-03_17h41.49.712,MouseEye_CC,2023.2.2,Win32,59.78358343,1.28,,,1920,1080,60.428999999999995,3.68,"83.07, 83.19, 80.69, 89.49, 86.14, 90.85, 87.45",627.38,10.54792119,38.81634996,27.83653633,Passed,130.0347724,,,,,,,,,,,,,,,,,,,,,training,1,5,180,right,s,,,,,210.6187,210.735,35.84,-0.68182373,5.545471191,1,0,0,0.1161,fixationPoint,210.735,210.835,210.835,212.0517,35.84,10240,616.96,s,1,1.2072,,212.0518,212.2516,,,,,,,,72,-169,-126,222,223,165,171,28,68,-128,28,-72,215,-114,176,219,-72,27,-216,68,-211,-172,-25,-209,-208,180,180,180,360,90,180,360,180,180,360,270,,,,,,,,,,,212.2517,212.2519,,0,4,4,4,1,6,repeated,,,,,,,,,,,,,,,,,,,,,,,,,,,,,,,,,,,,,,,,,,,,,,,,,
,,14,11,${e://Field/PROLIFIC_PID,M,21,2023-11-03_17h41.49.712,MouseEye_CC,2023.2.2,Win32,59.78358343,1.28,,,1920,1080,60.428999999999995,3.68,"83.07, 83.19, 80.69, 89.49, 86.14, 90.85, 87.45",627.38,10.54792119,38.81634996,27.83653633,Passed,130.0347724,,,,,,,,,,,,,,,,,,,,,training,1,6,180,right,s,,,,,212.2521,212.4683,35.84,-0.68182373,5.545471191,1,0,0,0.2161,fixationPoint,212.4683,212.5683,212.5684,218.4351,35.84,10240,616.96,s,1,5.849,,218.4352,218.6349,,,,,,,,88,122,-168,213,26,164,30,76,28,-208,125,-114,120,-114,176,-116,-68,-25,-27,-126,-25,66,-120,208,-118,180,270,180,360,180,90,180,90,90,90,270,,,,,,,,,,,218.6349,218.6351,,0,5,5,5,1,11,novel,,,,,,,,,,,,,,,,,,,,,,,,,,,,,,,,,,,,,,,,,,,,,,,,,
,,14,11,${e://Field/PROLIFIC_PID,M,21,2023-11-03_17h41.49.712,MouseEye_CC,2023.2.2,Win32,59.78358343,1.28,,,1920,1080,60.428999999999995,3.68,"83.07, 83.19, 80.69, 89.49, 86.14, 90.85, 87.45",627.38,10.54792119,38.81634996,27.83653633,Passed,130.0347724,,,,,,,,,,,,,,,,,,,,,training,1,7,180,right,s,,,,,218.6353,218.7016,35.84,1.136352539,11.90911865,1,0,0,0.0663,fixationPoint,218.7017,218.8017,218.8017,219.9017,35.84,10240,616.96,s,1,1.0821,,219.9017,220.1017,,,,,,,,76,29,-114,126,73,164,30,80,119,-219,20,-70,22,-164,165,-221,-24,-119,-172,-26,-218,172,-176,216,-223,90,180,180,180,180,90,360,270,360,270,270,,,,,,,,,,,220.1018,220.102,,0,6,6,6,1,12,novel,,,,,,,,,,,,,,,,,,,,,,,,,,,,,,,,,,,,,,,,,,,,,,,,,
,,14,11,${e://Field/PROLIFIC_PID,M,21,2023-11-03_17h41.49.712,MouseEye_CC,2023.2.2,Win32,59.78358343,1.28,,,1920,1080,60.428999999999995,3.68,"83.07, 83.19, 80.69, 89.49, 86.14, 90.85, 87.45",627.38,10.54792119,38.81634996,27.83653633,Passed,130.0347724,,,,,,,,,,,,,,,,,,,,,training,1,8,180,right,s,,,,,220.1022,220.2019,35.84,-1.590942383,2.818206787,1,0,0,0.0996,fixationPoint,220.202,220.3017,220.3017,221.8686,35.84,10240,616.96,s,1,1.5554,,221.8687,222.0683,,,,,,,,25,-17,112,165,171,16,210,220,122,-73,-112,-170,-212,-120,-117,219,-72,118,-31,165,-212,-18,32,-209,221,90,270,90,180,360,270,90,90,180,90,270,,,,,,,,,,,222.0683,222.0693,,0,7,7,7,1,4,repeated,,,,,,,,,,,,,,,,,,,,,,,,,,,,,,,,,,,,,,,,,,,,,,,,,
,,14,11,${e://Field/PROLIFIC_PID,M,21,2023-11-03_17h41.49.712,MouseEye_CC,2023.2.2,Win32,59.78358343,1.28,,,1920,1080,60.428999999999995,3.68,"83.07, 83.19, 80.69, 89.49, 86.14, 90.85, 87.45",627.38,10.54792119,38.81634996,27.83653633,Passed,130.0347724,,,,,,,,,,,,,,,,,,,,,training,1,9,180,right,s,,,,,222.0696,222.1185,35.84,-1.590942383,2.818206787,1,0,0,0.0488,fixationPoint,222.1185,222.2184,222.2184,223.7683,35.84,10240,616.96,s,1,1.5435,,223.7683,223.9684,,,,,,,,28,121,112,-215,72,-128,28,-214,166,-68,-170,-26,-218,-120,-117,66,-120,29,-114,116,-77,164,223,218,161,180,360,360,360,180,360,360,360,360,90,90,,,,,,,,,,,223.9684,223.9685,,0,8,8,8,1,2,repeated,,,,,,,,,,,,,,,,,,,,,,,,,,,,,,,,,,,,,,,,,,,,,,,,,
,,14,11,${e://Field/PROLIFIC_PID,M,21,2023-11-03_17h41.49.712,MouseEye_CC,2023.2.2,Win32,59.78358343,1.28,,,1920,1080,60.428999999999995,3.68,"83.07, 83.19, 80.69, 89.49, 86.14, 90.85, 87.45",627.38,10.54792119,38.81634996,27.83653633,Passed,130.0347724,,,,,,,,,,,,,,,,,,,,,training,1,10,0,left,a,,,,,223.9688,224.0352,35.84,-1.590942383,2.818206787,1,0,0,0.0663,fixationPoint,224.0352,224.1349,224.135,226.2684,35.84,10240,616.96,a,1,2.1139,,226.2685,226.4683,,,,,,,,31,-215,72,80,119,165,171,28,68,-170,-212,-126,-209,-120,-117,219,-72,172,-176,209,-24,-18,32,-127,72,180,180,180,360,180,90,270,270,180,90,90,,,,,,,,,,,226.4683,226.4685,,0,9,9,9,1,16,novel,,,,,,,,,,,,,,,,,,,,,,,,,,,,,,,,,,,,,,,,,,,,,,,,,
,,14,11,${e://Field/PROLIFIC_PID,M,21,2023-11-03_17h41.49.712,MouseEye_CC,2023.2.2,Win32,59.78358343,1.28,,,1920,1080,60.428999999999995,3.68,"83.07, 83.19, 80.69, 89.49, 86.14, 90.85, 87.45",627.38,10.54792119,38.81634996,27.83653633,Passed,130.0347724,,,,,,,,,,,,,,,,,,,,,training,1,11,0,left,a,,,,,226.4687,226.5517,35.84,-1.590942383,2.818206787,1,0,0,0.0828,fixationPoint,226.5517,226.6517,226.6518,228.5851,35.84,10240,616.96,a,1,1.9257,,228.5851,228.7851,,,,,,,,14,-80,174,212,67,64,169,220,122,-172,-25,-170,-212,-120,-117,24,-65,209,-24,75,-176,-164,165,-172,16,90,90,90,180,90,360,180,360,270,270,270,,,,,,,,,,,228.7851,228.7853,,0,10,10,10,1,15,novel,,,,,,,,,,,,,,,,,,,,,,,,,,,,,,,,,,,,,,,,,,,,,,,,,
,,14,11,${e://Field/PROLIFIC_PID,M,21,2023-11-03_17h41.49.712,MouseEye_CC,2023.2.2,Win32,59.78358343,1.28,,,1920,1080,60.428999999999995,3.68,"83.07, 83.19, 80.69, 89.49, 86.14, 90.85, 87.45",627.38,10.54792119,38.81634996,27.83653633,Passed,130.0347724,,,,,,,,,,,,,,,,,,,,,training,1,12,0,left,a,,,,,228.7857,228.8851,35.84,-1.590942383,2.818206787,1,0,0,0.0994,fixationPoint,228.8852,228.9851,228.9851,231.0184,35.84,10240,616.96,a,1,2.0153,,231.0184,231.2185,,,,,,,,30,220,122,-215,72,-208,125,-72,215,-119,-172,-219,-75,-73,-112,24,-65,168,-76,208,-118,166,115,218,161,180,180,180,90,90,270,360,270,360,180,270,,,,,,,,,,,231.2185,231.2188,,0,11,11,11,1,1,repeated,,,,,,,,,,,,,,,,,,,,,,,,,,,,,,,,,,,,,,,,,,,,,,,,,
,,14,11,${e://Field/PROLIFIC_PID,M,21,2023-11-03_17h41.49.712,MouseEye_CC,2023.2.2,Win32,59.78358343,1.28,,,1920,1080,60.428999999999995,3.68,"83.07, 83.19, 80.69, 89.49, 86.14, 90.85, 87.45",627.38,10.54792119,38.81634996,27.83653633,Passed,130.0347724,,,,,,,,,,,,,,,,,,,,,training,1,13,180,right,s,,,,,231.2191,231.2683,35.84,-1.590942383,2.818206787,1,0,0,0.0492,fixationPoint,231.2684,231.3683,231.3683,233.5684,35.84,10240,616.96,s,1,2.1863,,233.5684,233.7684,,,,,,,,13,-114,176,164,30,125,32,169,68,-116,-68,-219,-75,-72,-29,32,-28,211,-165,116,-128,-169,117,-128,28,270,270,270,90,90,90,270,180,270,270,180,,,,,,,,,,,233.7684,233.7685,,0,12,12,12,1,3,repeated,,,,,,,,,,,,,,,,,,,,,,,,,,,,,,,,,,,,,,,,,,,,,,,,,
,,14,11,${e://Field/PROLIFIC_PID,M,21,2023-11-03_17h41.49.712,MouseEye_CC,2023.2.2,Win32,59.78358343,1.28,,,1920,1080,60.428999999999995,3.68,"83.07, 83.19, 80.69, 89.49, 86.14, 90.85, 87.45",627.38,10.54792119,38.81634996,27.83653633,Passed,130.0347724,,,,,,,,,,,,,,,,,,,,,training,1,14,0,left,a,,,,,233.7688,233.8351,35.84,-1.590942383,2.818206787,1,0,0,0.0663,fixationPoint,233.8351,233.935,233.935,236.6517,35.84,10240,616.96,a,1,2.7082,,236.6518,236.8518,,,,,,,,8,124,213,-64,123,-70,22,-128,28,-19,-128,-119,-172,-219,-75,163,-30,160,-126,172,-176,32,28,212,67,180,270,180,90,270,270,270,180,180,180,90,,,,,,,,,,,236.8518,236.8518,,0,13,13,13,1,13,novel,,,,,,,,,,,,,,,,,,,,,,,,,,,,,,,,,,,,,,,,,,,,,,,,,
,,14,11,${e://Field/PROLIFIC_PID,M,21,2023-11-03_17h41.49.712,MouseEye_CC,2023.2.2,Win32,59.78358343,1.28,,,1920,1080,60.428999999999995,3.68,"83.07, 83.19, 80.69, 89.49, 86.14, 90.85, 87.45",627.38,10.54792119,38.81634996,27.83653633,Passed,130.0347724,,,,,,,,,,,,,,,,,,,,,training,1,15,0,left,a,,,,,236.8521,236.9184,35.84,-1.590942383,2.818206787,1,0,0,0.0662,fixationPoint,236.9184,237.0185,237.0185,239.8185,35.84,10240,616.96,a,1,2.792,,239.8185,240.0184,,,,,,,,71,-214,-115,24,113,169,68,220,122,-64,123,-208,125,-172,16,71,-22,29,-114,112,-212,-170,-212,-116,-68,360,360,360,90,180,360,360,270,90,180,180,,,,,,,,,,,240.0185,240.0185,,0,14,14,14,1,9,novel,,,,,,,,,,,,,,,,,,,,,,,,,,,,,,,,,,,,,,,,,,,,,,,,,
,,14,11,${e://Field/PROLIFIC_PID,M,21,2023-11-03_17h41.49.712,MouseEye_CC,2023.2.2,Win32,59.78358343,1.28,,,1920,1080,60.428999999999995,3.68,"83.07, 83.19, 80.69, 89.49, 86.14, 90.85, 87.45",627.38,10.54792119,38.81634996,27.83653633,Passed,130.0347724,,,,,,,,,,,,,,,,,,,,,training,1,16,180,right,s,,,,,240.0188,240.0684,35.84,-1.590942383,2.818206787,1,0,0,0.0496,fixationPoint,240.0684,240.1685,240.1685,244.8185,35.84,10240,616.96,s,1,4.6332,,244.8185,245.0184,,,,,,,,73,-120,-117,222,223,121,112,164,30,-64,123,-164,165,-30,210,118,-31,116,-77,219,-72,-72,-29,-209,-208,180,180,90,90,360,360,360,180,360,360,360,,,,,,,,,,,245.0184,252.4018,space,0,15,15,15,1,10,novel,7.3602,,,,,,,,,,,,,,,,,,,,,,,,,,,,,,,,,,,,,,,,,,,,,,,,
,,14,11,${e://Field/PROLIFIC_PID,M,21,2023-11-03_17h41.49.712,MouseEye_CC,2023.2.2,Win32,59.78358343,1.28,,,1920,1080,60.428999999999995,3.68,"83.07, 83.19, 80.69, 89.49, 86.14, 90.85, 87.45",627.38,10.54792119,38.81634996,27.83653633,Passed,130.0347724,,,,,,,,,,,,,,,,,,,,,training,2,1,180,right,s,,,,,252.4074,253.4684,35.84,3.863525391,8.272735596,1,0,0,1.061,fixationPoint,253.4685,253.5686,253.5686,255.9019,35.84,10240,616.96,a,0,2.3181,,255.9019,259.9018,,,,,,,,28,121,112,-215,72,-128,28,-214,166,-68,-170,-26,-218,-120,-117,66,-120,29,-114,116,-77,164,223,218,161,180,180,360,360,90,90,90,270,180,360,180,,,,,,,,,,,259.9018,259.9083,,0,16,16,16,1,2,repeated,,,,,,,,,,,,,,,,,,,,,,,,,,,,,,,,,,,,,,,,,,,,,,,,,
,,14,11,${e://Field/PROLIFIC_PID,M,21,2023-11-03_17h41.49.712,MouseEye_CC,2023.2.2,Win32,59.78358343,1.28,,,1920,1080,60.428999999999995,3.68,"83.07, 83.19, 80.69, 89.49, 86.14, 90.85, 87.45",627.38,10.54792119,38.81634996,27.83653633,Passed,130.0347724,,,,,,,,,,,,,,,,,,,,,training,2,2,180,right,s,,,,,259.9084,261.2351,35.84,-3.409118652,9.18182373,1,0,0,1.3265,fixationPoint,261.2351,261.3351,261.3351,263.6519,35.84,10240,616.96,s,1,2.3007,,263.6519,263.852,,,,,,,,76,29,-114,212,67,125,32,169,68,-128,28,-72,215,-209,221,-65,-68,-126,-209,-170,-212,75,-176,65,-80,90,90,270,360,360,180,270,360,270,90,90,,,,,,,,,,,263.8521,263.8521,,0,17,17,17,1,12,novel,,,,,,,,,,,,,,,,,,,,,,,,,,,,,,,,,,,,,,,,,,,,,,,,,
,,14,11,${e://Field/PROLIFIC_PID,M,21,2023-11-03_17h41.49.712,MouseEye_CC,2023.2.2,Win32,59.78358343,1.28,,,1920,1080,60.428999999999995,3.68,"83.07, 83.19, 80.69, 89.49, 86.14, 90.85, 87.45",627.38,10.54792119,38.81634996,27.83653633,Passed,130.0347724,,,,,,,,,,,,,,,,,,,,,training,2,3,0,left,a,,,,,263.8525,263.9518,35.84,-2.500061035,8.272735596,1,0,0,0.0991,fixationPoint,263.9518,264.0519,264.0519,267.1853,35.84,10240,616.96,a,1,3.1194,,267.1853,267.3851,,,,,,,,31,-215,72,80,119,76,28,165,171,-126,-209,-172,-25,-25,-27,68,-211,116,-128,216,-223,-64,123,-127,72,360,270,90,90,360,90,90,360,90,270,360,,,,,,,,,,,267.3851,267.3853,,0,18,18,18,1,16,novel,,,,,,,,,,,,,,,,,,,,,,,,,,,,,,,,,,,,,,,,,,,,,,,,,
,,14,11,${e://Field/PROLIFIC_PID,M,21,2023-11-03_17h41.49.712,MouseEye_CC,2023.2.2,Win32,59.78358343,1.28,,,1920,1080,60.428999999999995,3.68,"83.07, 83.19, 80.69, 89.49, 86.14, 90.85, 87.45",627.38,10.54792119,38.81634996,27.83653633,Passed,130.0347724,,,,,,,,,,,,,,,,,,,,,training,2,4,0,left,a,,,,,267.3856,267.4184,35.84,1.136352539,2.818206787,1,0,0,0.0327,fixationPoint,267.4186,267.5185,267.5186,268.7351,35.84,10240,616.96,a,1,1.2018,,268.7352,268.9351,,,,,,,,14,-80,174,125,164,166,115,67,68,-126,-25,-26,-218,-172,-25,24,-65,116,-77,118,-31,-18,32,-114,176,90,180,270,180,270,360,90,270,90,270,180,,,,,,,,,,,268.9351,268.9353,,0,19,19,19,1,15,novel,,,,,,,,,,,,,,,,,,,,,,,,,,,,,,,,,,,,,,,,,,,,,,,,,
,,14,11,${e://Field/PROLIFIC_PID,M,21,2023-11-03_17h41.49.712,MouseEye_CC,2023.2.2,Win32,59.78358343,1.28,,,1920,1080,60.428999999999995,3.68,"83.07, 83.19, 80.69, 89.49, 86.14, 90.85, 87.45",627.38,10.54792119,38.81634996,27.83653633,Passed,130.0347724,,,,,,,,,,,,,,,,,,,,,training,2,5,180,right,s,,,,,268.9355,269.0685,35.84,1.136352539,2.818206787,1,0,0,0.1329,fixationPoint,269.0685,269.1685,269.1685,270.8018,35.84,10240,616.96,s,1,1.6176,,270.8019,271.0019,,,,,,,,73,-120,-117,125,32,80,119,213,26,-172,16,-68,74,-72,215,65,-80,71,-22,75,-176,-173,-66,-119,-172,180,90,180,180,180,270,360,90,360,90,180,,,,,,,,,,,271.0019,271.0027,,0,20,20,20,1,10,novel,,,,,,,,,,,,,,,,,,,,,,,,,,,,,,,,,,,,,,,,,,,,,,,,,
,,14,11,${e://Field/PROLIFIC_PID,M,21,2023-11-03_17h41.49.712,MouseEye_CC,2023.2.2,Win32,59.78358343,1.28,,,1920,1080,60.428999999999995,3.68,"83.07, 83.19, 80.69, 89.49, 86.14, 90.85, 87.45",627.38,10.54792119,38.81634996,27.83653633,Passed,130.0347724,,,,,,,,,,,,,,,,,,,,,training,2,6,180,right,s,,,,,271.0029,271.0853,35.84,1.136352539,2.818206787,1,0,0,0.0823,fixationPoint,271.0853,271.1852,271.1852,272.3686,35.84,10240,616.96,s,1,1.1656,,272.3686,272.5685,,,,,,,,71,-214,-115,64,169,126,73,165,171,-72,215,-24,64,-127,220,216,-223,66,-120,24,-65,-72,-215,-173,-66,90,360,90,270,180,180,180,180,360,90,180,,,,,,,,,,,272.5685,272.5687,,0,21,21,21,1,9,novel,,,,,,,,,,,,,,,,,,,,,,,,,,,,,,,,,,,,,,,,,,,,,,,,,
,,14,11,${e://Field/PROLIFIC_PID,M,21,2023-11-03_17h41.49.712,MouseEye_CC,2023.2.2,Win32,59.78358343,1.28,,,1920,1080,60.428999999999995,3.68,"83.07, 83.19, 80.69, 89.49, 86.14, 90.85, 87.45",627.38,10.54792119,38.81634996,27.83653633,Passed,130.0347724,,,,,,,,,,,,,,,,,,,,,training,2,7,180,right,s,,,,,272.5689,272.6852,35.84,1.136352539,2.818206787,1,0,0,0.1163,fixationPoint,272.6852,272.7851,272.7851,276.652,35.84,10240,616.96,s,1,3.8576,,276.6521,276.8519,,,,,,,,87,75,-176,67,68,32,28,16,210,-209,221,-169,117,-30,210,-119,-172,-73,-112,-72,-215,18,-176,219,-72,90,360,180,180,180,90,180,270,90,90,180,,,,,,,,,,,276.8519,276.8521,,0,22,22,22,1,7,repeated,,,,,,,,,,,,,,,,,,,,,,,,,,,,,,,,,,,,,,,,,,,,,,,,,
,,14,11,${e://Field/PROLIFIC_PID,M,21,2023-11-03_17h41.49.712,MouseEye_CC,2023.2.2,Win32,59.78358343,1.28,,,1920,1080,60.428999999999995,3.68,"83.07, 83.19, 80.69, 89.49, 86.14, 90.85, 87.45",627.38,10.54792119,38.81634996,27.83653633,Passed,130.0347724,,,,,,,,,,,,,,,,,,,,,training,2,8,0,left,a,,,,,276.8524,276.9353,35.84,1.136352539,2.818206787,1,0,0,0.0829,fixationPoint,276.9354,277.0351,277.0351,281.3021,35.84,10240,616.96,a,1,4.2541,,281.3021,281.5018,,,,,,,,30,220,122,-215,72,-208,125,-72,215,-119,-172,-219,-75,-73,-112,24,-65,168,-76,208,-118,166,115,218,161,180,90,90,90,90,90,360,90,90,360,270,,,,,,,,,,,281.5019,281.502,,0,23,23,23,1,1,repeated,,,,,,,,,,,,,,,,,,,,,,,,,,,,,,,,,,,,,,,,,,,,,,,,,
,,14,11,${e://Field/PROLIFIC_PID,M,21,2023-11-03_17h41.49.712,MouseEye_CC,2023.2.2,Win32,59.78358343,1.28,,,1920,1080,60.428999999999995,3.68,"83.07, 83.19, 80.69, 89.49, 86.14, 90.85, 87.45",627.38,10.54792119,38.81634996,27.83653633,Passed,130.0347724,,,,,,,,,,,,,,,,,,,,,training,2,9,0,left,a,,,,,281.5022,281.5352,35.84,1.136352539,2.818206787,1,0,0,0.0329,fixationPoint,281.5353,281.6352,281.6352,286.8186,35.84,10240,616.96,a,1,5.1664,,286.8187,287.0185,,,,,,,,8,124,213,-164,165,-215,72,-214,166,-26,-76,-173,-66,-214,-115,71,-22,75,-176,163,-30,16,210,75,217,90,270,270,90,360,270,180,90,270,360,180,,,,,,,,,,,287.0186,287.0187,,0,24,24,24,1,13,novel,,,,,,,,,,,,,,,,,,,,,,,,,,,,,,,,,,,,,,,,,,,,,,,,,
,,14,11,${e://Field/PROLIFIC_PID,M,21,2023-11-03_17h41.49.712,MouseEye_CC,2023.2.2,Win32,59.78358343,1.28,,,1920,1080,60.428999999999995,3.68,"83.07, 83.19, 80.69, 89.49, 86.14, 90.85, 87.45",627.38,10.54792119,38.81634996,27.83653633,Passed,130.0347724,,,,,,,,,,,,,,,,,,,,,training,2,10,0,left,a,,,,,287.0189,287.4352,35.84,1.136352539,2.818206787,1,0,0,0.4163,fixationPoint,287.4352,287.5352,287.5352,289.0019,35.84,10240,616.96,a,1,1.4508,,289.0019,289.2019,,,,,,,,13,-114,176,164,30,125,32,169,68,-116,-68,-219,-75,-72,-29,32,-28,211,-165,116,-128,-169,117,-128,28,180,90,270,180,270,360,360,180,360,270,270,,,,,,,,,,,289.2019,289.202,,0,25,25,25,1,3,repeated,,,,,,,,,,,,,,,,,,,,,,,,,,,,,,,,,,,,,,,,,,,,,,,,,
,,14,11,${e://Field/PROLIFIC_PID,M,21,2023-11-03_17h41.49.712,MouseEye_CC,2023.2.2,Win32,59.78358343,1.28,,,1920,1080,60.428999999999995,3.68,"83.07, 83.19, 80.69, 89.49, 86.14, 90.85, 87.45",627.38,10.54792119,38.81634996,27.83653633,Passed,130.0347724,,,,,,,,,,,,,,,,,,,,,training,2,11,0,left,a,,,,,289.2022,289.2684,35.84,1.136352539,2.818206787,1,0,0,0.0662,fixationPoint,289.2685,289.3685,289.3685,292.7355,35.84,10240,616.96,a,1,3.3546,,292.7355,292.9353,,,,,,,,72,-169,-126,222,223,165,171,28,68,-128,28,-72,215,-114,176,219,-72,27,-216,68,-211,-172,-25,-209,-208,360,90,360,180,270,360,270,90,180,270,360,,,,,,,,,,,292.9353,292.9354,,0,26,26,26,1,6,repeated,,,,,,,,,,,,,,,,,,,,,,,,,,,,,,,,,,,,,,,,,,,,,,,,,
,,14,11,${e://Field/PROLIFIC_PID,M,21,2023-11-03_17h41.49.712,MouseEye_CC,2023.2.2,Win32,59.78358343,1.28,,,1920,1080,60.428999999999995,3.68,"83.07, 83.19, 80.69, 89.49, 86.14, 90.85, 87.45",627.38,10.54792119,38.81634996,27.83653633,Passed,130.0347724,,,,,,,,,,,,,,,,,,,,,training,2,12,0,left,a,,,,,292.9358,292.9519,35.84,1.136352539,2.818206787,1,0,0,0.0161,fixationPoint,292.952,293.0518,293.0519,296.6186,35.84,10240,616.96,a,1,3.5483,,296.6187,296.8186,,,,,,,,70,219,-72,220,122,125,32,125,164,-209,221,-169,117,-80,174,-19,-128,-219,-75,-170,-212,24,-65,29,-114,180,360,180,90,360,180,360,360,270,270,90,,,,,,,,,,,296.8187,296.8187,,0,27,27,27,1,8,repeated,,,,,,,,,,,,,,,,,,,,,,,,,,,,,,,,,,,,,,,,,,,,,,,,,
,,14,11,${e://Field/PROLIFIC_PID,M,21,2023-11-03_17h41.49.712,MouseEye_CC,2023.2.2,Win32,59.78358343,1.28,,,1920,1080,60.428999999999995,3.68,"83.07, 83.19, 80.69, 89.49, 86.14, 90.85, 87.45",627.38,10.54792119,38.81634996,27.83653633,Passed,130.0347724,,,,,,,,,,,,,,,,,,,,,training,2,13,180,right,s,,,,,296.8191,297.2519,35.84,1.136352539,2.818206787,1,0,0,0.4327,fixationPoint,297.2519,297.3519,297.3519,300.2687,35.84,10240,616.96,s,1,2.8993,,300.2687,300.4686,,,,,,,,88,122,-168,222,223,169,68,121,112,-214,166,-164,165,-127,72,-172,-25,-120,-117,-26,-218,68,-211,71,-22,360,360,360,360,90,360,90,360,360,360,360,,,,,,,,,,,300.4686,300.4687,,0,28,28,28,1,11,novel,,,,,,,,,,,,,,,,,,,,,,,,,,,,,,,,,,,,,,,,,,,,,,,,,
,,14,11,${e://Field/PROLIFIC_PID,M,21,2023-11-03_17h41.49.712,MouseEye_CC,2023.2.2,Win32,59.78358343,1.28,,,1920,1080,60.428999999999995,3.68,"83.07, 83.19, 80.69, 89.49, 86.14, 90.85, 87.45",627.38,10.54792119,38.81634996,27.83653633,Passed,130.0347724,,,,,,,,,,,,,,,,,,,,,training,2,14,0,left,a,,,,,300.469,300.8852,35.84,1.136352539,2.818206787,1,0,0,0.4162,fixationPoint,300.8853,300.9852,300.9853,302.4397,35.84,10240,616.96,a,1,1.4507,,302.4397,302.6352,,,,,,,,93,-126,-209,24,113,125,164,169,68,-70,22,-172,16,-72,215,66,-120,160,-126,27,-216,-120,-117,-170,-212,180,270,270,90,90,360,90,360,270,360,270,,,,,,,,,,,302.6353,302.6354,,0,29,29,29,1,5,repeated,,,,,,,,,,,,,,,,,,,,,,,,,,,,,,,,,,,,,,,,,,,,,,,,,
,,14,11,${e://Field/PROLIFIC_PID,M,21,2023-11-03_17h41.49.712,MouseEye_CC,2023.2.2,Win32,59.78358343,1.28,,,1920,1080,60.428999999999995,3.68,"83.07, 83.19, 80.69, 89.49, 86.14, 90.85, 87.45",627.38,10.54792119,38.81634996,27.83653633,Passed,130.0347724,,,,,,,,,,,,,,,,,,,,,training,2,15,180,right,s,,,,,302.6357,302.8852,35.84,1.136352539,2.818206787,1,0,0,0.2494,fixationPoint,302.8853,302.9852,302.9852,305.5353,35.84,10240,616.96,s,1,2.5201,,305.5353,305.7353,,,,,,,,29,166,115,-127,72,-114,176,-219,20,-72,-215,-173,-66,-220,-168,116,-128,65,-80,71,-22,213,26,121,112,180,180,270,90,360,90,270,90,360,180,360,,,,,,,,,,,305.7354,305.7355,,0,30,30,30,1,14,novel,,,,,,,,,,,,,,,,,,,,,,,,,,,,,,,,,,,,,,,,,,,,,,,,,
,,14,11,${e://Field/PROLIFIC_PID,M,21,2023-11-03_17h41.49.712,MouseEye_CC,2023.2.2,Win32,59.78358343,1.28,,,1920,1080,60.428999999999995,3.68,"83.07, 83.19, 80.69, 89.49, 86.14, 90.85, 87.45",627.38,10.54792119,38.81634996,27.83653633,Passed,130.0347724,,,,,,,,,,,,,,,,,,,,,training,2,16,180,right,s,,,,,305.7357,305.7567,35.84,1.136352539,2.818206787,1,0,0,0.0209,fixationPoint,305.7568,305.8519,305.852,309.6852,35.84,10240,616.96,s,1,3.8038,,309.6852,309.8852,,,,,,,,25,-17,112,165,171,16,210,220,122,-73,-112,-170,-212,-120,-117,219,-72,118,-31,165,-212,-18,32,-209,221,180,270,360,90,90,180,180,180,90,270,180,,,,,,,,,,,309.8852,323.7355,space,0,31,31,31,1,4,repeated,13.8206,,,,,,,,,,,,,,,,,,,,,,,,,,,,,,,,,,,,,,,,,,,,,,,,
,,14,11,${e://Field/PROLIFIC_PID,M,21,2023-11-03_17h41.49.712,MouseEye_CC,2023.2.2,Win32,59.78358343,1.28,,,1920,1080,60.428999999999995,3.68,"83.07, 83.19, 80.69, 89.49, 86.14, 90.85, 87.45",627.38,10.54792119,38.81634996,27.83653633,Passed,130.0347724,,,,,,,,,,,,,,,,,,,,,training,3,1,180,right,s,,,,,323.7419,324.252,35.84,2.045410156,1.000030518,1,0,0,0.51,fixationPoint,324.252,324.352,324.352,326.8021,35.84,10240,616.96,s,1,2.4173,,326.8021,327.0021,,,,,,,,25,-17,112,165,171,16,210,220,122,-73,-112,-170,-212,-120,-117,219,-72,118,-31,165,-212,-18,32,-209,221,90,360,90,360,90,90,270,360,360,180,360,,,,,,,,,,,327.0021,327.0044,,0,32,32,32,1,4,repeated,,,,,,,,,,,,,,,,,,,,,,,,,,,,,,,,,,,,,,,,,,,,,,,,,
,,14,11,${e://Field/PROLIFIC_PID,M,21,2023-11-03_17h41.49.712,MouseEye_CC,2023.2.2,Win32,59.78358343,1.28,,,1920,1080,60.428999999999995,3.68,"83.07, 83.19, 80.69, 89.49, 86.14, 90.85, 87.45",627.38,10.54792119,38.81634996,27.83653633,Passed,130.0347724,,,,,,,,,,,,,,,,,,,,,training,3,2,0,left,a,,,,,327.0046,327.1187,35.84,2.045410156,1.000030518,1,0,0,0.1139,fixationPoint,327.1188,327.2186,327.2187,332.7353,35.84,10240,616.96,a,1,5.4952,,332.7353,332.9353,,,,,,,,73,-120,-117,165,171,16,210,125,32,-127,72,-114,176,-24,64,160,-126,29,-114,27,-216,-221,-24,-172,-25,270,270,90,270,180,90,180,180,360,360,270,,,,,,,,,,,332.9353,332.9355,,0,33,33,33,1,10,novel,,,,,,,,,,,,,,,,,,,,,,,,,,,,,,,,,,,,,,,,,,,,,,,,,
,,14,11,${e://Field/PROLIFIC_PID,M,21,2023-11-03_17h41.49.712,MouseEye_CC,2023.2.2,Win32,59.78358343,1.28,,,1920,1080,60.428999999999995,3.68,"83.07, 83.19, 80.69, 89.49, 86.14, 90.85, 87.45",627.38,10.54792119,38.81634996,27.83653633,Passed,130.0347724,,,,,,,,,,,,,,,,,,,,,training,3,3,180,right,s,,,,,332.9358,333.0353,35.84,2.045410156,1.000030518,1,0,0,0.0994,fixationPoint,333.0353,333.1398,333.1398,337.6519,35.84,10240,616.96,s,1,4.4886,,337.6519,337.852,,,,,,,,76,29,-114,213,26,124,213,24,113,-172,16,-164,165,-114,120,-65,-68,-126,-25,-126,-209,211,-165,27,-216,90,270,180,360,360,180,90,90,270,360,180,,,,,,,,,,,337.852,337.8522,,0,34,34,34,1,12,novel,,,,,,,,,,,,,,,,,,,,,,,,,,,,,,,,,,,,,,,,,,,,,,,,,
,,14,11,${e://Field/PROLIFIC_PID,M,21,2023-11-03_17h41.49.712,MouseEye_CC,2023.2.2,Win32,59.78358343,1.28,,,1920,1080,60.428999999999995,3.68,"83.07, 83.19, 80.69, 89.49, 86.14, 90.85, 87.45",627.38,10.54792119,38.81634996,27.83653633,Passed,130.0347724,,,,,,,,,,,,,,,,,,,,,training,3,4,0,left,a,,,,,337.8525,337.9186,35.84,2.045410156,1.000030518,1,0,0,0.0661,fixationPoint,337.9187,338.0223,338.0223,339.5559,35.84,10240,616.96,a,1,1.517,,339.5559,339.7519,,,,,,,,71,-214,-115,220,122,16,210,28,68,-18,32,-72,215,-127,220,18,-176,27,-216,66,-120,-26,-76,-220,-168,270,180,90,90,360,90,180,90,90,90,180,,,,,,,,,,,339.752,339.7521,,0,35,35,35,1,9,novel,,,,,,,,,,,,,,,,,,,,,,,,,,,,,,,,,,,,,,,,,,,,,,,,,
,,14,11,${e://Field/PROLIFIC_PID,M,21,2023-11-03_17h41.49.712,MouseEye_CC,2023.2.2,Win32,59.78358343,1.28,,,1920,1080,60.428999999999995,3.68,"83.07, 83.19, 80.69, 89.49, 86.14, 90.85, 87.45",627.38,10.54792119,38.81634996,27.83653633,Passed,130.0347724,,,,,,,,,,,,,,,,,,,,,training,3,5,0,left,a,,,,,339.7524,339.8522,35.84,2.045410156,1.000030518,1,0,0,0.0997,fixationPoint,339.8522,339.9519,339.952,342.0853,35.84,10240,616.96,a,1,2.1044,,342.0853,342.2853,,,,,,,,31,-215,72,125,32,121,112,220,122,-176,-175,-209,-208,-25,-27,32,-28,27,-216,208,-118,-17,112,-163,214,90,360,360,180,180,270,180,90,180,180,360,,,,,,,,,,,342.2853,342.2854,,0,36,36,36,1,16,novel,,,,,,,,,,,,,,,,,,,,,,,,,,,,,,,,,,,,,,,,,,,,,,,,,
,,14,11,${e://Field/PROLIFIC_PID,M,21,2023-11-03_17h41.49.712,MouseEye_CC,2023.2.2,Win32,59.78358343,1.28,,,1920,1080,60.428999999999995,3.68,"83.07, 83.19, 80.69, 89.49, 86.14, 90.85, 87.45",627.38,10.54792119,38.81634996,27.83653633,Passed,130.0347724,,,,,,,,,,,,,,,,,,,,,training,3,6,180,right,s,,,,,342.2856,342.3061,35.84,2.045410156,1.000030518,1,0,0,0.0204,fixationPoint,342.3062,342.4019,342.402,344.4353,35.84,10240,616.96,s,1,2.0039,,344.4354,344.6353,,,,,,,,93,-126,-209,24,113,125,164,169,68,-70,22,-172,16,-72,215,66,-120,160,-126,27,-216,-120,-117,-170,-212,180,90,360,180,270,360,180,180,90,360,90,,,,,,,,,,,344.6354,344.6354,,0,37,37,37,1,5,repeated,,,,,,,,,,,,,,,,,,,,,,,,,,,,,,,,,,,,,,,,,,,,,,,,,
,,14,11,${e://Field/PROLIFIC_PID,M,21,2023-11-03_17h41.49.712,MouseEye_CC,2023.2.2,Win32,59.78358343,1.28,,,1920,1080,60.428999999999995,3.68,"83.07, 83.19, 80.69, 89.49, 86.14, 90.85, 87.45",627.38,10.54792119,38.81634996,27.83653633,Passed,130.0347724,,,,,,,,,,,,,,,,,,,,,training,3,7,180,right,s,,,,,344.6357,344.6563,35.84,2.045410156,1.000030518,1,0,0,0.0206,fixationPoint,344.6563,344.752,344.7521,349.6188,35.84,10240,616.96,s,1,4.8423,,349.6189,349.8186,,,,,,,,8,124,213,-24,64,-169,117,-163,214,-209,-208,-169,-126,-116,-68,122,-168,118,-31,71,-22,169,68,80,119,180,180,270,270,270,270,360,360,360,270,90,,,,,,,,,,,349.8186,349.8188,,0,38,38,38,1,13,novel,,,,,,,,,,,,,,,,,,,,,,,,,,,,,,,,,,,,,,,,,,,,,,,,,
,,14,11,${e://Field/PROLIFIC_PID,M,21,2023-11-03_17h41.49.712,MouseEye_CC,2023.2.2,Win32,59.78358343,1.28,,,1920,1080,60.428999999999995,3.68,"83.07, 83.19, 80.69, 89.49, 86.14, 90.85, 87.45",627.38,10.54792119,38.81634996,27.83653633,Passed,130.0347724,,,,,,,,,,,,,,,,,,,,,training,3,8,180,right,s,,,,,349.8191,349.8688,35.84,2.045410156,1.000030518,1,0,0,0.0497,fixationPoint,349.8689,349.9687,349.9688,352.4188,35.84,10240,616.96,s,1,2.4167,,352.4188,352.6186,,,,,,,,70,219,-72,220,122,125,32,125,164,-209,221,-169,117,-80,174,-19,-128,-219,-75,-170,-212,24,-65,29,-114,270,180,360,360,360,180,360,270,180,360,90,,,,,,,,,,,352.6186,352.6186,,0,39,39,39,1,8,repeated,,,,,,,,,,,,,,,,,,,,,,,,,,,,,,,,,,,,,,,,,,,,,,,,,
,,14,11,${e://Field/PROLIFIC_PID,M,21,2023-11-03_17h41.49.712,MouseEye_CC,2023.2.2,Win32,59.78358343,1.28,,,1920,1080,60.428999999999995,3.68,"83.07, 83.19, 80.69, 89.49, 86.14, 90.85, 87.45",627.38,10.54792119,38.81634996,27.83653633,Passed,130.0347724,,,,,,,,,,,,,,,,,,,,,training,3,9,180,right,s,,,,,352.6189,352.8186,35.84,2.045410156,1.000030518,1,0,0,0.1997,fixationPoint,352.8187,352.9187,352.9187,355.052,35.84,10240,616.96,s,1,2.1054,,355.0521,355.2418,,,,,,,,30,220,122,-215,72,-208,125,-72,215,-119,-172,-219,-75,-73,-112,24,-65,168,-76,208,-118,166,115,218,161,270,270,180,90,270,180,90,360,90,180,90,,,,,,,,,,,355.2418,355.2419,,0,40,40,40,1,1,repeated,,,,,,,,,,,,,,,,,,,,,,,,,,,,,,,,,,,,,,,,,,,,,,,,,
,,14,11,${e://Field/PROLIFIC_PID,M,21,2023-11-03_17h41.49.712,MouseEye_CC,2023.2.2,Win32,59.78358343,1.28,,,1920,1080,60.428999999999995,3.68,"83.07, 83.19, 80.69, 89.49, 86.14, 90.85, 87.45",627.38,10.54792119,38.81634996,27.83653633,Passed,130.0347724,,,,,,,,,,,,,,,,,,,,,training,3,10,0,left,a,,,,,355.2422,355.3521,35.84,2.045410156,1.000030518,1,0,0,0.1099,fixationPoint,355.3522,355.452,355.452,357.1354,35.84,10240,616.96,s,0,1.6618,,357.1355,361.1354,,,,,,,,28,121,112,-215,72,-128,28,-214,166,-68,-170,-26,-218,-120,-117,66,-120,29,-114,116,-77,164,223,218,161,90,180,270,360,90,270,90,90,270,90,90,,,,,,,,,,,361.1354,361.1413,,0,41,41,41,1,2,repeated,,,,,,,,,,,,,,,,,,,,,,,,,,,,,,,,,,,,,,,,,,,,,,,,,
,,14,11,${e://Field/PROLIFIC_PID,M,21,2023-11-03_17h41.49.712,MouseEye_CC,2023.2.2,Win32,59.78358343,1.28,,,1920,1080,60.428999999999995,3.68,"83.07, 83.19, 80.69, 89.49, 86.14, 90.85, 87.45",627.38,10.54792119,38.81634996,27.83653633,Passed,130.0347724,,,,,,,,,,,,,,,,,,,,,training,3,11,0,left,a,,,,,361.1415,361.6187,35.84,1.136352539,6.454559326,1,0,0,0.4772,fixationPoint,361.6187,361.7187,361.7188,364.102,35.84,10240,616.96,a,1,2.362,,364.102,364.3021,,,,,,,,29,166,115,-64,123,-208,125,-163,214,-26,-76,-68,-170,-72,-215,18,-176,71,-22,209,-24,80,119,32,28,180,180,360,270,270,90,180,270,90,180,360,,,,,,,,,,,364.3021,364.3023,,0,42,42,42,1,14,novel,,,,,,,,,,,,,,,,,,,,,,,,,,,,,,,,,,,,,,,,,,,,,,,,,
,,14,11,${e://Field/PROLIFIC_PID,M,21,2023-11-03_17h41.49.712,MouseEye_CC,2023.2.2,Win32,59.78358343,1.28,,,1920,1080,60.428999999999995,3.68,"83.07, 83.19, 80.69, 89.49, 86.14, 90.85, 87.45",627.38,10.54792119,38.81634996,27.83653633,Passed,130.0347724,,,,,,,,,,,,,,,,,,,,,training,3,12,180,right,s,,,,,364.3025,364.6687,35.84,-7.045471191,-8.999969482,1,0,0,0.3661,fixationPoint,364.6687,364.7688,364.7688,366.6853,35.84,10240,616.96,s,1,1.8831,,366.6853,366.8853,,,,,,,,14,-80,174,213,26,165,171,164,30,-23,-162,-173,-66,-219,-75,165,-212,216,-223,75,-176,-208,125,-127,220,270,270,90,360,360,180,360,360,90,90,360,,,,,,,,,,,366.8853,366.8855,,0,43,43,43,1,15,novel,,,,,,,,,,,,,,,,,,,,,,,,,,,,,,,,,,,,,,,,,,,,,,,,,
,,14,11,${e://Field/PROLIFIC_PID,M,21,2023-11-03_17h41.49.712,MouseEye_CC,2023.2.2,Win32,59.78358343,1.28,,,1920,1080,60.428999999999995,3.68,"83.07, 83.19, 80.69, 89.49, 86.14, 90.85, 87.45",627.38,10.54792119,38.81634996,27.83653633,Passed,130.0347724,,,,,,,,,,,,,,,,,,,,,training,3,13,180,right,s,,,,,366.8856,367.0354,35.84,0.227233887,-0.81817627,1,0,0,0.1496,fixationPoint,367.0355,367.1355,367.1355,369.3355,35.84,10240,616.96,s,1,2.1696,,369.3355,369.5354,,,,,,,,88,122,-168,67,68,220,122,169,68,-80,174,-208,125,-172,16,-221,-24,-120,-117,-169,-126,209,-24,208,-118,360,360,360,90,180,270,90,270,360,180,360,,,,,,,,,,,369.5354,369.5355,,0,44,44,44,1,11,novel,,,,,,,,,,,,,,,,,,,,,,,,,,,,,,,,,,,,,,,,,,,,,,,,,
,,14,11,${e://Field/PROLIFIC_PID,M,21,2023-11-03_17h41.49.712,MouseEye_CC,2023.2.2,Win32,59.78358343,1.28,,,1920,1080,60.428999999999995,3.68,"83.07, 83.19, 80.69, 89.49, 86.14, 90.85, 87.45",627.38,10.54792119,38.81634996,27.83653633,Passed,130.0347724,,,,,,,,,,,,,,,,,,,,,training,3,14,0,left,a,,,,,369.5359,369.6354,35.84,0.227233887,-0.81817627,1,0,0,0.0994,fixationPoint,369.6355,369.7353,369.7354,371.7538,35.84,10240,616.96,a,1,1.9948,,371.7539,371.9521,,,,,,,,87,75,-176,67,68,32,28,16,210,-209,221,-169,117,-30,210,-119,-172,-73,-112,-72,-215,18,-176,219,-72,90,270,270,180,180,360,270,360,180,360,90,,,,,,,,,,,371.9521,371.9523,,0,45,45,45,1,7,repeated,,,,,,,,,,,,,,,,,,,,,,,,,,,,,,,,,,,,,,,,,,,,,,,,,
,,14,11,${e://Field/PROLIFIC_PID,M,21,2023-11-03_17h41.49.712,MouseEye_CC,2023.2.2,Win32,59.78358343,1.28,,,1920,1080,60.428999999999995,3.68,"83.07, 83.19, 80.69, 89.49, 86.14, 90.85, 87.45",627.38,10.54792119,38.81634996,27.83653633,Passed,130.0347724,,,,,,,,,,,,,,,,,,,,,training,3,15,0,left,a,,,,,371.9525,372.0521,35.84,0.227233887,-0.81817627,1,0,0,0.0995,fixationPoint,372.0522,372.1521,372.1521,373.7353,35.84,10240,616.96,a,1,1.5616,,373.7354,373.9354,,,,,,,,13,-114,176,164,30,125,32,169,68,-116,-68,-219,-75,-72,-29,32,-28,211,-165,116,-128,-169,117,-128,28,360,270,270,360,360,270,270,90,360,270,90,,,,,,,,,,,373.9355,373.9355,,0,46,46,46,1,3,repeated,,,,,,,,,,,,,,,,,,,,,,,,,,,,,,,,,,,,,,,,,,,,,,,,,
,,14,11,${e://Field/PROLIFIC_PID,M,21,2023-11-03_17h41.49.712,MouseEye_CC,2023.2.2,Win32,59.78358343,1.28,,,1920,1080,60.428999999999995,3.68,"83.07, 83.19, 80.69, 89.49, 86.14, 90.85, 87.45",627.38,10.54792119,38.81634996,27.83653633,Passed,130.0347724,,,,,,,,,,,,,,,,,,,,,training,3,16,0,left,a,,,,,373.9358,374.0687,35.84,0.227233887,-0.81817627,1,0,0,0.1329,fixationPoint,374.0687,374.1686,374.1686,375.5189,35.84,10240,616.96,a,1,1.3209,,375.519,375.7188,,,,,,,,72,-169,-126,222,223,165,171,28,68,-128,28,-72,215,-114,176,219,-72,27,-216,68,-211,-172,-25,-209,-208,90,90,90,180,360,360,270,90,360,270,180,,,,,,,,,,,375.7188,376.9688,space,0,47,47,47,1,6,repeated,1.2259,,,,,,,,,,,,,,,,,,,,,,,,,,,,,,,,,,,,,,,,,,,,,,,,
,,14,11,${e://Field/PROLIFIC_PID,M,21,2023-11-03_17h41.49.712,MouseEye_CC,2023.2.2,Win32,59.78358343,1.28,,,1920,1080,60.428999999999995,3.68,"83.07, 83.19, 80.69, 89.49, 86.14, 90.85, 87.45",627.38,10.54792119,38.81634996,27.83653633,Passed,130.0347724,,,,,,,,,,,,,,,,,,,,,training,4,1,0,left,a,,,,,376.9692,377.4688,35.84,0.227233887,-0.81817627,1,0,0,0.4995,fixationPoint,377.4688,377.5689,377.569,380.6227,35.84,10240,616.96,a,1,3.0341,,380.6227,380.8187,,,,,,,,31,-215,72,121,112,220,122,164,30,-126,-25,-176,-175,-170,-212,208,-118,18,-176,160,-126,-128,28,-72,215,90,90,90,180,270,360,90,180,360,180,360,,,,,,,,,,,380.8187,380.821,,0,48,48,48,1,16,novel,,,,,,,,,,,,,,,,,,,,,,,,,,,,,,,,,,,,,,,,,,,,,,,,,
,,14,11,${e://Field/PROLIFIC_PID,M,21,2023-11-03_17h41.49.712,MouseEye_CC,2023.2.2,Win32,59.78358343,1.28,,,1920,1080,60.428999999999995,3.68,"83.07, 83.19, 80.69, 89.49, 86.14, 90.85, 87.45",627.38,10.54792119,38.81634996,27.83653633,Passed,130.0347724,,,,,,,,,,,,,,,,,,,,,training,4,2,0,left,a,,,,,380.8213,381.719,35.84,0.227233887,-6.272705078,1,0,0,0.8976,fixationPoint,381.719,381.8068,381.8068,383.7855,35.84,10240,616.96,a,1,1.9509,,383.7856,383.9886,,,,,,,,30,220,122,-215,72,-208,125,-72,215,-119,-172,-219,-75,-73,-112,24,-65,168,-76,208,-118,166,115,218,161,270,270,180,90,180,180,180,90,180,180,360,,,,,,,,,,,383.9887,383.9888,,0,49,49,49,1,1,repeated,,,,,,,,,,,,,,,,,,,,,,,,,,,,,,,,,,,,,,,,,,,,,,,,,
,,14,11,${e://Field/PROLIFIC_PID,M,21,2023-11-03_17h41.49.712,MouseEye_CC,2023.2.2,Win32,59.78358343,1.28,,,1920,1080,60.428999999999995,3.68,"83.07, 83.19, 80.69, 89.49, 86.14, 90.85, 87.45",627.38,10.54792119,38.81634996,27.83653633,Passed,130.0347724,,,,,,,,,,,,,,,,,,,,,training,4,3,180,right,s,,,,,383.989,384.1354,35.84,-5.227294922,-2.636352539,1,0,0,0.1462,fixationPoint,384.1354,384.2354,384.2354,386.5688,35.84,10240,616.96,s,1,2.3044,,386.5689,386.7688,,,,,,,,93,-126,-209,24,113,125,164,169,68,-70,22,-172,16,-72,215,66,-120,160,-126,27,-216,-120,-117,-170,-212,360,90,360,90,270,90,90,180,270,360,270,,,,,,,,,,,386.7689,386.769,,0,50,50,50,1,5,repeated,,,,,,,,,,,,,,,,,,,,,,,,,,,,,,,,,,,,,,,,,,,,,,,,,
,,14,11,${e://Field/PROLIFIC_PID,M,21,2023-11-03_17h41.49.712,MouseEye_CC,2023.2.2,Win32,59.78358343,1.28,,,1920,1080,60.428999999999995,3.68,"83.07, 83.19, 80.69, 89.49, 86.14, 90.85, 87.45",627.38,10.54792119,38.81634996,27.83653633,Passed,130.0347724,,,,,,,,,,,,,,,,,,,,,training,4,4,0,left,a,,,,,386.7693,386.8854,35.84,-7.045471191,-2.636352539,1,0,0,0.1161,fixationPoint,386.8854,386.9854,386.9854,388.9523,35.84,10240,616.96,a,1,1.9312,,388.9523,389.1521,,,,,,,,28,121,112,-215,72,-128,28,-214,166,-68,-170,-26,-218,-120,-117,66,-120,29,-114,116,-77,164,223,218,161,360,180,90,360,270,270,270,270,90,180,90,,,,,,,,,,,389.1521,389.1521,,0,51,51,51,1,2,repeated,,,,,,,,,,,,,,,,,,,,,,,,,,,,,,,,,,,,,,,,,,,,,,,,,
,,14,11,${e://Field/PROLIFIC_PID,M,21,2023-11-03_17h41.49.712,MouseEye_CC,2023.2.2,Win32,59.78358343,1.28,,,1920,1080,60.428999999999995,3.68,"83.07, 83.19, 80.69, 89.49, 86.14, 90.85, 87.45",627.38,10.54792119,38.81634996,27.83653633,Passed,130.0347724,,,,,,,,,,,,,,,,,,,,,training,4,5,180,right,s,,,,,389.1524,389.2521,35.84,-0.68182373,-0.81817627,1,0,0,0.0995,fixationPoint,389.2521,389.3522,389.3522,392.2226,35.84,10240,616.96,s,1,2.8492,,392.2227,392.419,,,,,,,,8,124,213,-21,173,-114,120,-72,215,-73,-112,-173,-66,-169,-126,112,-212,216,-223,71,-22,126,73,75,217,90,360,270,360,270,90,270,360,180,270,90,,,,,,,,,,,392.4191,392.4192,,0,52,52,52,1,13,novel,,,,,,,,,,,,,,,,,,,,,,,,,,,,,,,,,,,,,,,,,,,,,,,,,
,,14,11,${e://Field/PROLIFIC_PID,M,21,2023-11-03_17h41.49.712,MouseEye_CC,2023.2.2,Win32,59.78358343,1.28,,,1920,1080,60.428999999999995,3.68,"83.07, 83.19, 80.69, 89.49, 86.14, 90.85, 87.45",627.38,10.54792119,38.81634996,27.83653633,Passed,130.0347724,,,,,,,,,,,,,,,,,,,,,training,4,6,180,right,s,,,,,392.4194,392.469,35.84,-0.68182373,-0.81817627,1,0,0,0.0495,fixationPoint,392.4691,392.5688,392.5689,394.2855,35.84,10240,616.96,s,1,1.6835,,394.2856,394.4854,,,,,,,,25,-17,112,165,171,16,210,220,122,-73,-112,-170,-212,-120,-117,219,-72,118,-31,165,-212,-18,32,-209,221,90,360,270,180,90,180,270,360,270,270,270,,,,,,,,,,,394.4854,394.4855,,0,53,53,53,1,4,repeated,,,,,,,,,,,,,,,,,,,,,,,,,,,,,,,,,,,,,,,,,,,,,,,,,
,,14,11,${e://Field/PROLIFIC_PID,M,21,2023-11-03_17h41.49.712,MouseEye_CC,2023.2.2,Win32,59.78358343,1.28,,,1920,1080,60.428999999999995,3.68,"83.07, 83.19, 80.69, 89.49, 86.14, 90.85, 87.45",627.38,10.54792119,38.81634996,27.83653633,Passed,130.0347724,,,,,,,,,,,,,,,,,,,,,training,4,7,0,left,a,,,,,394.4857,394.5356,35.84,2.954528809,-0.81817627,1,0,0,0.0498,fixationPoint,394.5357,394.6354,394.6355,396.2854,35.84,10240,616.96,a,1,1.6299,,396.2854,396.4854,,,,,,,,71,-214,-115,76,28,28,68,16,210,-127,72,-214,166,-128,28,211,-165,168,-76,18,-176,-25,-27,-126,-209,270,180,360,180,90,270,270,270,270,90,270,,,,,,,,,,,396.4854,396.4855,,0,54,54,54,1,9,novel,,,,,,,,,,,,,,,,,,,,,,,,,,,,,,,,,,,,,,,,,,,,,,,,,
,,14,11,${e://Field/PROLIFIC_PID,M,21,2023-11-03_17h41.49.712,MouseEye_CC,2023.2.2,Win32,59.78358343,1.28,,,1920,1080,60.428999999999995,3.68,"83.07, 83.19, 80.69, 89.49, 86.14, 90.85, 87.45",627.38,10.54792119,38.81634996,27.83653633,Passed,130.0347724,,,,,,,,,,,,,,,,,,,,,training,4,8,180,right,s,,,,,396.4857,396.5688,35.84,2.954528809,-0.81817627,1,0,0,0.083,fixationPoint,396.5688,396.669,396.6691,397.8021,35.84,10240,616.96,s,1,1.1085,,397.8022,398.0021,,,,,,,,29,166,115,-163,214,-172,16,-80,174,-219,-75,-126,-209,-172,-25,172,-176,165,-212,219,-72,222,223,165,171,270,90,270,360,90,90,90,90,180,360,270,,,,,,,,,,,398.0022,398.0022,,0,55,55,55,1,14,novel,,,,,,,,,,,,,,,,,,,,,,,,,,,,,,,,,,,,,,,,,,,,,,,,,
,,14,11,${e://Field/PROLIFIC_PID,M,21,2023-11-03_17h41.49.712,MouseEye_CC,2023.2.2,Win32,59.78358343,1.28,,,1920,1080,60.428999999999995,3.68,"83.07, 83.19, 80.69, 89.49, 86.14, 90.85, 87.45",627.38,10.54792119,38.81634996,27.83653633,Passed,130.0347724,,,,,,,,,,,,,,,,,,,,,training,4,9,0,left,a,,,,,398.0025,398.1023,35.84,2.954528809,-0.81817627,1,0,0,0.0998,fixationPoint,398.1023,398.2021,398.2021,400.3057,35.84,10240,616.96,a,1,2.083,,400.3057,400.5022,,,,,,,,87,75,-176,67,68,32,28,16,210,-209,221,-169,117,-30,210,-119,-172,-73,-112,-72,-215,18,-176,219,-72,270,180,90,90,90,180,270,360,270,180,360,,,,,,,,,,,400.5023,400.5023,,0,56,56,56,1,7,repeated,,,,,,,,,,,,,,,,,,,,,,,,,,,,,,,,,,,,,,,,,,,,,,,,,
,,14,11,${e://Field/PROLIFIC_PID,M,21,2023-11-03_17h41.49.712,MouseEye_CC,2023.2.2,Win32,59.78358343,1.28,,,1920,1080,60.428999999999995,3.68,"83.07, 83.19, 80.69, 89.49, 86.14, 90.85, 87.45",627.38,10.54792119,38.81634996,27.83653633,Passed,130.0347724,,,,,,,,,,,,,,,,,,,,,training,4,10,0,left,a,,,,,400.5026,400.5234,35.84,2.954528809,-0.81817627,1,0,0,0.0207,fixationPoint,400.5234,400.6187,400.6188,402.0855,35.84,10240,616.96,a,1,1.4428,,402.0855,402.2856,,,,,,,,14,-80,174,76,28,220,122,64,169,-72,-29,-120,-117,-170,-212,116,-77,71,-22,208,-118,-214,166,-68,74,270,90,180,90,180,90,90,270,360,360,180,,,,,,,,,,,402.2857,402.2857,,0,57,57,57,1,15,novel,,,,,,,,,,,,,,,,,,,,,,,,,,,,,,,,,,,,,,,,,,,,,,,,,
,,14,11,${e://Field/PROLIFIC_PID,M,21,2023-11-03_17h41.49.712,MouseEye_CC,2023.2.2,Win32,59.78358343,1.28,,,1920,1080,60.428999999999995,3.68,"83.07, 83.19, 80.69, 89.49, 86.14, 90.85, 87.45",627.38,10.54792119,38.81634996,27.83653633,Passed,130.0347724,,,,,,,,,,,,,,,,,,,,,training,4,11,0,left,a,,,,,402.286,402.3355,35.84,2.954528809,-0.81817627,1,0,0,0.0494,fixationPoint,402.3355,402.4354,402.4355,404.8356,35.84,10240,616.96,a,1,2.3662,,404.8356,405.0354,,,,,,,,88,122,-168,222,223,16,210,16,164,-64,123,-164,165,-169,117,-119,-172,-25,-27,-209,-208,163,-30,68,-211,360,270,270,360,360,270,270,270,270,270,180,,,,,,,,,,,405.0354,405.0355,,0,58,58,58,1,11,novel,,,,,,,,,,,,,,,,,,,,,,,,,,,,,,,,,,,,,,,,,,,,,,,,,
,,14,11,${e://Field/PROLIFIC_PID,M,21,2023-11-03_17h41.49.712,MouseEye_CC,2023.2.2,Win32,59.78358343,1.28,,,1920,1080,60.428999999999995,3.68,"83.07, 83.19, 80.69, 89.49, 86.14, 90.85, 87.45",627.38,10.54792119,38.81634996,27.83653633,Passed,130.0347724,,,,,,,,,,,,,,,,,,,,,training,4,12,180,right,s,,,,,405.0357,405.4522,35.84,2.954528809,-0.81817627,1,0,0,0.4164,fixationPoint,405.4522,405.5562,405.5562,408.2357,35.84,10240,616.96,s,1,2.6498,,408.2357,408.4356,,,,,,,,73,-120,-117,165,171,80,119,218,161,-68,74,-21,173,-128,28,71,-22,116,-128,66,-120,-221,-24,-116,-68,270,90,90,180,270,360,360,180,270,90,360,,,,,,,,,,,408.4356,408.4357,,0,59,59,59,1,10,novel,,,,,,,,,,,,,,,,,,,,,,,,,,,,,,,,,,,,,,,,,,,,,,,,,
,,14,11,${e://Field/PROLIFIC_PID,M,21,2023-11-03_17h41.49.712,MouseEye_CC,2023.2.2,Win32,59.78358343,1.28,,,1920,1080,60.428999999999995,3.68,"83.07, 83.19, 80.69, 89.49, 86.14, 90.85, 87.45",627.38,10.54792119,38.81634996,27.83653633,Passed,130.0347724,,,,,,,,,,,,,,,,,,,,,training,4,13,0,left,a,,,,,408.4359,408.4568,35.84,2.954528809,-0.81817627,1,0,0,0.0208,fixationPoint,408.4568,408.5521,408.5521,409.7354,35.84,10240,616.96,a,1,1.1618,,409.7354,409.9355,,,,,,,,72,-169,-126,222,223,165,171,28,68,-128,28,-72,215,-114,176,219,-72,27,-216,68,-211,-172,-25,-209,-208,90,270,90,360,90,90,360,270,360,90,180,,,,,,,,,,,409.9355,409.9356,,0,60,60,60,1,6,repeated,,,,,,,,,,,,,,,,,,,,,,,,,,,,,,,,,,,,,,,,,,,,,,,,,
,,14,11,${e://Field/PROLIFIC_PID,M,21,2023-11-03_17h41.49.712,MouseEye_CC,2023.2.2,Win32,59.78358343,1.28,,,1920,1080,60.428999999999995,3.68,"83.07, 83.19, 80.69, 89.49, 86.14, 90.85, 87.45",627.38,10.54792119,38.81634996,27.83653633,Passed,130.0347724,,,,,,,,,,,,,,,,,,,,,training,4,14,180,right,s,,,,,409.9358,410.0855,35.84,2.954528809,-0.81817627,1,0,0,0.1495,fixationPoint,410.0855,410.1855,410.1855,412.6522,35.84,10240,616.96,s,1,2.4368,,412.6522,412.8522,,,,,,,,76,29,-114,16,164,166,115,126,73,-114,120,-164,165,-128,28,-126,-25,-73,-112,-172,-25,65,-80,66,-120,360,90,180,180,180,180,90,360,270,90,360,,,,,,,,,,,412.8522,412.8523,,0,61,61,61,1,12,novel,,,,,,,,,,,,,,,,,,,,,,,,,,,,,,,,,,,,,,,,,,,,,,,,,
,,14,11,${e://Field/PROLIFIC_PID,M,21,2023-11-03_17h41.49.712,MouseEye_CC,2023.2.2,Win32,59.78358343,1.28,,,1920,1080,60.428999999999995,3.68,"83.07, 83.19, 80.69, 89.49, 86.14, 90.85, 87.45",627.38,10.54792119,38.81634996,27.83653633,Passed,130.0347724,,,,,,,,,,,,,,,,,,,,,training,4,15,180,right,s,,,,,412.8526,413.2688,35.84,2.954528809,-0.81817627,1,0,0,0.4161,fixationPoint,413.2689,413.3689,413.3689,415.9856,35.84,10240,616.96,a,0,2.5921,,415.9857,419.9855,,,,,,,,13,-114,176,164,30,125,32,169,68,-116,-68,-219,-75,-72,-29,32,-28,211,-165,116,-128,-169,117,-128,28,270,180,180,180,270,90,180,270,90,360,90,,,,,,,,,,,419.9855,419.9917,,0,62,62,62,1,3,repeated,,,,,,,,,,,,,,,,,,,,,,,,,,,,,,,,,,,,,,,,,,,,,,,,,
,,14,11,${e://Field/PROLIFIC_PID,M,21,2023-11-03_17h41.49.712,MouseEye_CC,2023.2.2,Win32,59.78358343,1.28,,,1920,1080,60.428999999999995,3.68,"83.07, 83.19, 80.69, 89.49, 86.14, 90.85, 87.45",627.38,10.54792119,38.81634996,27.83653633,Passed,130.0347724,,,,,,,,,,,,,,,,,,,,,training,4,16,180,right,s,,,,,419.992,421.4522,35.84,1.136352539,0.090911865,1,0,0,1.46,fixationPoint,421.4522,421.5521,421.5522,424.7189,35.84,10240,616.96,s,1,3.1358,,424.7189,424.9065,,,,,,,,70,219,-72,220,122,125,32,125,164,-209,221,-169,117,-80,174,-19,-128,-219,-75,-170,-212,24,-65,29,-114,270,90,180,90,270,270,90,90,180,360,180,,,,,,,,,,,424.9065,426.0189,space,0,63,63,63,1,8,repeated,1.0858,,,,,,,,,,,,,,,,,,,,,,,,,,,,,,,,,,,,,,,,,,,,,,,,
,,14,11,${e://Field/PROLIFIC_PID,M,21,2023-11-03_17h41.49.712,MouseEye_CC,2023.2.2,Win32,59.78358343,1.28,,,1920,1080,60.428999999999995,3.68,"83.07, 83.19, 80.69, 89.49, 86.14, 90.85, 87.45",627.38,10.54792119,38.81634996,27.83653633,Passed,130.0347724,,,,,,,,,,,,,,,,,,,,,training,5,1,180,right,s,,,,,426.0192,426.5022,35.84,-4.31829834,-0.81817627,1,0,0,0.4828,fixationPoint,426.5022,426.6023,426.6023,429.19,35.84,10240,616.96,s,1,2.5671,,429.19,429.3856,,,,,,,,30,220,122,-215,72,-208,125,-72,215,-119,-172,-219,-75,-73,-112,24,-65,168,-76,208,-118,166,115,218,161,360,360,90,180,270,90,90,90,90,270,90,,,,,,,,,,,429.3856,429.3877,,0,64,64,64,1,1,repeated,,,,,,,,,,,,,,,,,,,,,,,,,,,,,,,,,,,,,,,,,,,,,,,,,
,,14,11,${e://Field/PROLIFIC_PID,M,21,2023-11-03_17h41.49.712,MouseEye_CC,2023.2.2,Win32,59.78358343,1.28,,,1920,1080,60.428999999999995,3.68,"83.07, 83.19, 80.69, 89.49, 86.14, 90.85, 87.45",627.38,10.54792119,38.81634996,27.83653633,Passed,130.0347724,,,,,,,,,,,,,,,,,,,,,training,5,2,180,right,s,,,,,429.388,429.519,35.84,-7.954589844,-0.81817627,1,0,0,0.1309,fixationPoint,429.5191,429.6191,429.6191,433.469,35.84,10240,616.96,s,1,3.8113,,433.469,433.6689,,,,,,,,29,166,115,-21,173,-70,22,-68,74,-126,-209,-68,-170,-65,-68,65,-80,216,-223,116,-128,222,223,28,68,90,180,90,270,180,270,180,180,180,360,270,,,,,,,,,,,433.6689,433.6691,,0,65,65,65,1,14,novel,,,,,,,,,,,,,,,,,,,,,,,,,,,,,,,,,,,,,,,,,,,,,,,,,
,,14,11,${e://Field/PROLIFIC_PID,M,21,2023-11-03_17h41.49.712,MouseEye_CC,2023.2.2,Win32,59.78358343,1.28,,,1920,1080,60.428999999999995,3.68,"83.07, 83.19, 80.69, 89.49, 86.14, 90.85, 87.45",627.38,10.54792119,38.81634996,27.83653633,Passed,130.0347724,,,,,,,,,,,,,,,,,,,,,training,5,3,180,right,s,,,,,433.6695,433.7522,35.84,-2.500061035,1.000030518,1,0,0,0.0827,fixationPoint,433.7523,433.8522,433.8522,435.269,35.84,10240,616.96,s,1,1.383,,435.269,435.4689,,,,,,,,31,-215,72,220,122,213,26,165,171,-65,-68,-72,-215,-176,-175,172,-176,65,-80,209,-24,-30,210,-209,221,180,90,90,180,360,270,180,180,90,360,270,,,,,,,,,,,435.4689,435.4691,,0,66,66,66,1,16,novel,,,,,,,,,,,,,,,,,,,,,,,,,,,,,,,,,,,,,,,,,,,,,,,,,
,,14,11,${e://Field/PROLIFIC_PID,M,21,2023-11-03_17h41.49.712,MouseEye_CC,2023.2.2,Win32,59.78358343,1.28,,,1920,1080,60.428999999999995,3.68,"83.07, 83.19, 80.69, 89.49, 86.14, 90.85, 87.45",627.38,10.54792119,38.81634996,27.83653633,Passed,130.0347724,,,,,,,,,,,,,,,,,,,,,training,5,4,180,right,s,,,,,435.4693,435.6689,35.84,-2.500061035,1.000030518,1,0,0,0.1995,fixationPoint,435.6689,435.769,435.769,437.2936,35.84,10240,616.96,s,1,1.5041,,437.2936,437.4855,,,,,,,,28,121,112,-215,72,-128,28,-214,166,-68,-170,-26,-218,-120,-117,66,-120,29,-114,116,-77,164,223,218,161,270,90,90,180,90,180,180,90,360,270,270,,,,,,,,,,,437.4855,437.4856,,0,67,67,67,1,2,repeated,,,,,,,,,,,,,,,,,,,,,,,,,,,,,,,,,,,,,,,,,,,,,,,,,
,,14,11,${e://Field/PROLIFIC_PID,M,21,2023-11-03_17h41.49.712,MouseEye_CC,2023.2.2,Win32,59.78358343,1.28,,,1920,1080,60.428999999999995,3.68,"83.07, 83.19, 80.69, 89.49, 86.14, 90.85, 87.45",627.38,10.54792119,38.81634996,27.83653633,Passed,130.0347724,,,,,,,,,,,,,,,,,,,,,training,5,5,180,right,s,,,,,437.4858,437.6189,35.84,-0.68182373,1.000030518,1,0,0,0.133,fixationPoint,437.6189,437.7188,437.7188,438.9355,35.84,10240,616.96,s,1,1.1877,,438.9355,439.1355,,,,,,,,8,124,213,-64,123,-127,72,-70,22,-176,-175,-170,-212,-172,-25,68,-211,27,-216,65,-80,164,223,28,68,90,180,360,180,180,360,90,180,270,270,360,,,,,,,,,,,439.1356,439.1357,,0,68,68,68,1,13,novel,,,,,,,,,,,,,,,,,,,,,,,,,,,,,,,,,,,,,,,,,,,,,,,,,
,,14,11,${e://Field/PROLIFIC_PID,M,21,2023-11-03_17h41.49.712,MouseEye_CC,2023.2.2,Win32,59.78358343,1.28,,,1920,1080,60.428999999999995,3.68,"83.07, 83.19, 80.69, 89.49, 86.14, 90.85, 87.45",627.38,10.54792119,38.81634996,27.83653633,Passed,130.0347724,,,,,,,,,,,,,,,,,,,,,training,5,6,0,left,a,,,,,439.1359,439.157,35.84,-0.68182373,1.000030518,1,0,0,0.0209,fixationPoint,439.157,439.2522,439.2522,440.3242,35.84,10240,616.96,a,1,1.0505,,440.3243,440.5189,,,,,,,,25,-17,112,165,171,16,210,220,122,-73,-112,-170,-212,-120,-117,219,-72,118,-31,165,-212,-18,32,-209,221,180,270,180,90,270,180,270,90,90,180,180,,,,,,,,,,,440.5189,440.519,,0,69,69,69,1,4,repeated,,,,,,,,,,,,,,,,,,,,,,,,,,,,,,,,,,,,,,,,,,,,,,,,,
,,14,11,${e://Field/PROLIFIC_PID,M,21,2023-11-03_17h41.49.712,MouseEye_CC,2023.2.2,Win32,59.78358343,1.28,,,1920,1080,60.428999999999995,3.68,"83.07, 83.19, 80.69, 89.49, 86.14, 90.85, 87.45",627.38,10.54792119,38.81634996,27.83653633,Passed,130.0347724,,,,,,,,,,,,,,,,,,,,,training,5,7,0,left,a,,,,,440.5194,440.6523,35.84,-0.68182373,1.000030518,1,0,0,0.1328,fixationPoint,440.6523,440.7522,440.7522,444.4023,35.84,10240,616.96,a,1,3.6233,,444.4023,444.6021,,,,,,,,13,-114,176,164,30,125,32,169,68,-116,-68,-219,-75,-72,-29,32,-28,211,-165,116,-128,-169,117,-128,28,180,180,180,270,270,360,360,360,270,360,180,,,,,,,,,,,444.6022,444.6022,,0,70,70,70,1,3,repeated,,,,,,,,,,,,,,,,,,,,,,,,,,,,,,,,,,,,,,,,,,,,,,,,,
,,14,11,${e://Field/PROLIFIC_PID,M,21,2023-11-03_17h41.49.712,MouseEye_CC,2023.2.2,Win32,59.78358343,1.28,,,1920,1080,60.428999999999995,3.68,"83.07, 83.19, 80.69, 89.49, 86.14, 90.85, 87.45",627.38,10.54792119,38.81634996,27.83653633,Passed,130.0347724,,,,,,,,,,,,,,,,,,,,,training,5,8,0,left,a,,,,,444.6025,444.719,35.84,-0.68182373,1.000030518,1,0,0,0.1165,fixationPoint,444.719,444.8189,444.8189,446.819,35.84,10240,616.96,a,1,1.9663,,446.819,447.0189,,,,,,,,88,122,-168,164,30,212,67,121,112,-169,117,-208,125,-114,176,-72,-29,-73,-112,-219,-75,208,-118,112,-212,90,90,270,180,90,90,270,180,360,90,90,,,,,,,,,,,447.0189,447.019,,0,71,71,71,1,11,novel,,,,,,,,,,,,,,,,,,,,,,,,,,,,,,,,,,,,,,,,,,,,,,,,,
,,14,11,${e://Field/PROLIFIC_PID,M,21,2023-11-03_17h41.49.712,MouseEye_CC,2023.2.2,Win32,59.78358343,1.28,,,1920,1080,60.428999999999995,3.68,"83.07, 83.19, 80.69, 89.49, 86.14, 90.85, 87.45",627.38,10.54792119,38.81634996,27.83653633,Passed,130.0347724,,,,,,,,,,,,,,,,,,,,,training,5,9,0,left,a,,,,,447.0193,447.1522,35.84,-0.68182373,1.000030518,1,0,0,0.1329,fixationPoint,447.1523,447.2522,447.2522,451.719,35.84,10240,616.96,a,1,4.4272,,451.7191,451.919,,,,,,,,73,-120,-117,16,164,67,68,28,68,-172,67,-70,22,-208,125,29,-114,160,-126,116,-77,-220,-168,-23,-162,270,90,90,180,90,270,270,180,270,90,360,,,,,,,,,,,451.9191,451.9192,,0,72,72,72,1,10,novel,,,,,,,,,,,,,,,,,,,,,,,,,,,,,,,,,,,,,,,,,,,,,,,,,
,,14,11,${e://Field/PROLIFIC_PID,M,21,2023-11-03_17h41.49.712,MouseEye_CC,2023.2.2,Win32,59.78358343,1.28,,,1920,1080,60.428999999999995,3.68,"83.07, 83.19, 80.69, 89.49, 86.14, 90.85, 87.45",627.38,10.54792119,38.81634996,27.83653633,Passed,130.0347724,,,,,,,,,,,,,,,,,,,,,training,5,10,180,right,s,,,,,451.9195,452.0356,35.84,-0.68182373,1.000030518,1,0,0,0.1161,fixationPoint,452.0356,452.1356,452.1356,454.6561,35.84,10240,616.96,s,1,2.4982,,454.6562,454.8523,,,,,,,,76,29,-114,213,26,76,28,166,115,-164,165,-214,166,-70,22,-214,-115,-25,-27,-72,-215,122,-168,163,-30,180,270,180,180,360,270,180,90,360,270,360,,,,,,,,,,,454.8523,454.8525,,0,73,73,73,1,12,novel,,,,,,,,,,,,,,,,,,,,,,,,,,,,,,,,,,,,,,,,,,,,,,,,,
,,14,11,${e://Field/PROLIFIC_PID,M,21,2023-11-03_17h41.49.712,MouseEye_CC,2023.2.2,Win32,59.78358343,1.28,,,1920,1080,60.428999999999995,3.68,"83.07, 83.19, 80.69, 89.49, 86.14, 90.85, 87.45",627.38,10.54792119,38.81634996,27.83653633,Passed,130.0347724,,,,,,,,,,,,,,,,,,,,,training,5,11,180,right,s,,,,,454.8527,454.969,35.84,-0.68182373,1.000030518,1,0,0,0.1163,fixationPoint,454.969,455.0692,455.0692,456.1189,35.84,10240,616.96,s,1,1.0188,,456.1189,456.3188,,,,,,,,14,-80,174,16,210,67,68,169,68,-209,-208,-214,-115,-220,-168,112,-212,29,-114,116,-128,-172,67,-68,74,360,360,180,180,90,90,360,180,270,360,90,,,,,,,,,,,456.3189,456.319,,0,74,74,74,1,15,novel,,,,,,,,,,,,,,,,,,,,,,,,,,,,,,,,,,,,,,,,,,,,,,,,,
,,14,11,${e://Field/PROLIFIC_PID,M,21,2023-11-03_17h41.49.712,MouseEye_CC,2023.2.2,Win32,59.78358343,1.28,,,1920,1080,60.428999999999995,3.68,"83.07, 83.19, 80.69, 89.49, 86.14, 90.85, 87.45",627.38,10.54792119,38.81634996,27.83653633,Passed,130.0347724,,,,,,,,,,,,,,,,,,,,,training,5,12,0,left,a,,,,,456.3194,456.5022,35.84,-0.68182373,1.000030518,1,0,0,0.1828,fixationPoint,456.5022,456.6024,456.6024,457.9414,35.84,10240,616.96,a,1,1.3181,,457.9414,458.1357,,,,,,,,87,75,-176,67,68,32,28,16,210,-209,221,-169,117,-30,210,-119,-172,-73,-112,-72,-215,18,-176,219,-72,90,270,90,180,360,270,90,180,90,270,360,,,,,,,,,,,458.1358,458.1359,,0,75,75,75,1,7,repeated,,,,,,,,,,,,,,,,,,,,,,,,,,,,,,,,,,,,,,,,,,,,,,,,,
,,14,11,${e://Field/PROLIFIC_PID,M,21,2023-11-03_17h41.49.712,MouseEye_CC,2023.2.2,Win32,59.78358343,1.28,,,1920,1080,60.428999999999995,3.68,"83.07, 83.19, 80.69, 89.49, 86.14, 90.85, 87.45",627.38,10.54792119,38.81634996,27.83653633,Passed,130.0347724,,,,,,,,,,,,,,,,,,,,,training,5,13,0,left,a,,,,,458.1361,458.4023,35.84,-0.68182373,1.000030518,1,0,0,0.2662,fixationPoint,458.4023,458.5068,458.5068,460.4855,35.84,10240,616.96,a,1,1.9541,,460.4855,460.6857,,,,,,,,72,-169,-126,222,223,165,171,28,68,-128,28,-72,215,-114,176,219,-72,27,-216,68,-211,-172,-25,-209,-208,360,90,270,270,180,270,90,270,90,270,180,,,,,,,,,,,460.6857,460.6858,,0,76,76,76,1,6,repeated,,,,,,,,,,,,,,,,,,,,,,,,,,,,,,,,,,,,,,,,,,,,,,,,,
,,14,11,${e://Field/PROLIFIC_PID,M,21,2023-11-03_17h41.49.712,MouseEye_CC,2023.2.2,Win32,59.78358343,1.28,,,1920,1080,60.428999999999995,3.68,"83.07, 83.19, 80.69, 89.49, 86.14, 90.85, 87.45",627.38,10.54792119,38.81634996,27.83653633,Passed,130.0347724,,,,,,,,,,,,,,,,,,,,,training,5,14,0,left,a,,,,,460.686,460.9189,35.84,-0.68182373,1.000030518,1,0,0,0.2329,fixationPoint,460.919,461.0189,461.019,462.4356,35.84,10240,616.96,a,1,1.391,,462.4357,462.6356,,,,,,,,93,-126,-209,24,113,125,164,169,68,-70,22,-172,16,-72,215,66,-120,160,-126,27,-216,-120,-117,-170,-212,90,90,270,360,180,180,180,270,180,180,90,,,,,,,,,,,462.6357,462.6357,,0,77,77,77,1,5,repeated,,,,,,,,,,,,,,,,,,,,,,,,,,,,,,,,,,,,,,,,,,,,,,,,,
,,14,11,${e://Field/PROLIFIC_PID,M,21,2023-11-03_17h41.49.712,MouseEye_CC,2023.2.2,Win32,59.78358343,1.28,,,1920,1080,60.428999999999995,3.68,"83.07, 83.19, 80.69, 89.49, 86.14, 90.85, 87.45",627.38,10.54792119,38.81634996,27.83653633,Passed,130.0347724,,,,,,,,,,,,,,,,,,,,,training,5,15,0,left,a,,,,,462.636,462.8358,35.84,-0.68182373,1.000030518,1,0,0,0.1996,fixationPoint,462.8358,462.9356,462.9357,465.3357,35.84,10240,616.96,a,1,2.3677,,465.3357,465.5356,,,,,,,,70,219,-72,220,122,125,32,125,164,-209,221,-169,117,-80,174,-19,-128,-219,-75,-170,-212,24,-65,29,-114,90,360,90,360,270,270,90,270,180,270,180,,,,,,,,,,,465.5357,465.5358,,0,78,78,78,1,8,repeated,,,,,,,,,,,,,,,,,,,,,,,,,,,,,,,,,,,,,,,,,,,,,,,,,
,,14,11,${e://Field/PROLIFIC_PID,M,21,2023-11-03_17h41.49.712,MouseEye_CC,2023.2.2,Win32,59.78358343,1.28,,,1920,1080,60.428999999999995,3.68,"83.07, 83.19, 80.69, 89.49, 86.14, 90.85, 87.45",627.38,10.54792119,38.81634996,27.83653633,Passed,130.0347724,,,,,,,,,,,,,,,,,,,,,training,5,16,180,right,s,,,,,465.5361,465.6523,35.84,-0.68182373,1.000030518,1,0,0,0.1162,fixationPoint,465.6523,465.7522,465.7523,466.9357,35.84,10240,616.96,s,1,1.1561,,466.9357,467.1357,,,,,,,,71,-214,-115,80,119,124,213,212,67,-18,32,-172,67,-172,16,165,-212,116,-128,163,-30,-65,-68,-173,-66,360,180,270,90,180,270,270,360,270,360,270,,,,,,,,,,,467.1357,468.7691,space,0,79,79,79,1,9,novel,1.6063,,,,,,,,,,,,,,,,,,,,,,,,,,,,,,,,,,,,,,,,,,,,,,,,
,,14,11,${e://Field/PROLIFIC_PID,M,21,2023-11-03_17h41.49.712,MouseEye_CC,2023.2.2,Win32,59.78358343,1.28,,,1920,1080,60.428999999999995,3.68,"83.07, 83.19, 80.69, 89.49, 86.14, 90.85, 87.45",627.38,10.54792119,38.81634996,27.83653633,Passed,130.0347724,,,,,,,,,,,,,,,,,,,,,training,6,1,0,left,a,,,,,468.7694,469.3023,35.84,-0.68182373,1.000030518,1,0,0,0.5328,fixationPoint,469.3023,469.4024,469.4024,471.442,35.84,10240,616.96,a,1,2.0189,,471.442,471.6357,,,,,,,,13,-114,176,164,30,125,32,169,68,-116,-68,-219,-75,-72,-29,32,-28,211,-165,116,-128,-169,117,-128,28,90,360,180,180,180,360,270,90,360,270,90,,,,,,,,,,,471.6358,471.638,,0,80,80,80,1,3,repeated,,,,,,,,,,,,,,,,,,,,,,,,,,,,,,,,,,,,,,,,,,,,,,,,,
,,14,11,${e://Field/PROLIFIC_PID,M,21,2023-11-03_17h41.49.712,MouseEye_CC,2023.2.2,Win32,59.78358343,1.28,,,1920,1080,60.428999999999995,3.68,"83.07, 83.19, 80.69, 89.49, 86.14, 90.85, 87.45",627.38,10.54792119,38.81634996,27.83653633,Passed,130.0347724,,,,,,,,,,,,,,,,,,,,,training,6,2,0,left,a,,,,,471.6382,471.819,35.84,-3.409118652,5.545471191,1,0,0,0.1807,fixationPoint,471.8191,471.923,471.9231,473.3356,35.84,10240,616.96,a,1,1.3857,,473.3356,473.5357,,,,,,,,88,122,-168,212,67,16,164,165,171,-172,67,-17,112,-114,120,-72,-215,-25,-27,-172,-25,66,-120,32,-28,270,180,180,90,270,90,90,180,90,90,90,,,,,,,,,,,473.5357,473.5359,,0,81,81,81,1,11,novel,,,,,,,,,,,,,,,,,,,,,,,,,,,,,,,,,,,,,,,,,,,,,,,,,
,,14,11,${e://Field/PROLIFIC_PID,M,21,2023-11-03_17h41.49.712,MouseEye_CC,2023.2.2,Win32,59.78358343,1.28,,,1920,1080,60.428999999999995,3.68,"83.07, 83.19, 80.69, 89.49, 86.14, 90.85, 87.45",627.38,10.54792119,38.81634996,27.83653633,Passed,130.0347724,,,,,,,,,,,,,,,,,,,,,training,6,3,180,right,s,,,,,473.5362,473.6399,35.84,-2.500061035,3.727294922,1,0,0,0.1036,fixationPoint,473.6399,473.7357,473.7358,475.5189,35.84,10240,616.96,s,1,1.7585,,475.519,475.719,,,,,,,,14,-80,174,222,223,164,223,80,119,-173,-66,-221,-24,-26,-76,112,-212,71,-22,208,-118,-128,28,-127,220,360,180,270,90,180,270,90,270,270,360,180,,,,,,,,,,,475.719,475.7191,,0,82,82,82,1,15,novel,,,,,,,,,,,,,,,,,,,,,,,,,,,,,,,,,,,,,,,,,,,,,,,,,
,,14,11,${e://Field/PROLIFIC_PID,M,21,2023-11-03_17h41.49.712,MouseEye_CC,2023.2.2,Win32,59.78358343,1.28,,,1920,1080,60.428999999999995,3.68,"83.07, 83.19, 80.69, 89.49, 86.14, 90.85, 87.45",627.38,10.54792119,38.81634996,27.83653633,Passed,130.0347724,,,,,,,,,,,,,,,,,,,,,training,6,4,180,right,s,,,,,475.7193,475.8524,35.84,-2.500061035,3.727294922,1,0,0,0.1329,fixationPoint,475.8524,475.9593,475.9594,477.4228,35.84,10240,616.96,s,1,1.4502,,477.4228,477.6236,,,,,,,,93,-126,-209,24,113,125,164,169,68,-70,22,-172,16,-72,215,66,-120,160,-126,27,-216,-120,-117,-170,-212,90,270,360,90,360,360,180,270,270,180,180,,,,,,,,,,,477.6236,477.6237,,0,83,83,83,1,5,repeated,,,,,,,,,,,,,,,,,,,,,,,,,,,,,,,,,,,,,,,,,,,,,,,,,
,,14,11,${e://Field/PROLIFIC_PID,M,21,2023-11-03_17h41.49.712,MouseEye_CC,2023.2.2,Win32,59.78358343,1.28,,,1920,1080,60.428999999999995,3.68,"83.07, 83.19, 80.69, 89.49, 86.14, 90.85, 87.45",627.38,10.54792119,38.81634996,27.83653633,Passed,130.0347724,,,,,,,,,,,,,,,,,,,,,training,6,5,0,left,a,,,,,477.6242,477.7523,35.84,-2.500061035,3.727294922,1,0,0,0.1279,fixationPoint,477.7523,477.8523,477.8523,480.1523,35.84,10240,616.96,a,1,2.2772,,480.1523,480.3523,,,,,,,,30,220,122,-215,72,-208,125,-72,215,-119,-172,-219,-75,-73,-112,24,-65,168,-76,208,-118,166,115,218,161,90,270,270,180,90,90,180,360,360,90,270,,,,,,,,,,,480.3523,480.3524,,0,84,84,84,1,1,repeated,,,,,,,,,,,,,,,,,,,,,,,,,,,,,,,,,,,,,,,,,,,,,,,,,
,,14,11,${e://Field/PROLIFIC_PID,M,21,2023-11-03_17h41.49.712,MouseEye_CC,2023.2.2,Win32,59.78358343,1.28,,,1920,1080,60.428999999999995,3.68,"83.07, 83.19, 80.69, 89.49, 86.14, 90.85, 87.45",627.38,10.54792119,38.81634996,27.83653633,Passed,130.0347724,,,,,,,,,,,,,,,,,,,,,training,6,6,180,right,s,,,,,480.3526,480.7189,35.84,-2.500061035,3.727294922,1,0,0,0.3663,fixationPoint,480.719,480.819,480.819,481.7692,35.84,10240,616.96,s,1,0.9204,,481.7692,481.969,,,,,,,,72,-169,-126,222,223,165,171,28,68,-128,28,-72,215,-114,176,219,-72,27,-216,68,-211,-172,-25,-209,-208,90,180,360,90,270,270,180,270,180,360,180,,,,,,,,,,,481.969,481.9691,,0,85,85,85,1,6,repeated,,,,,,,,,,,,,,,,,,,,,,,,,,,,,,,,,,,,,,,,,,,,,,,,,
,,14,11,${e://Field/PROLIFIC_PID,M,21,2023-11-03_17h41.49.712,MouseEye_CC,2023.2.2,Win32,59.78358343,1.28,,,1920,1080,60.428999999999995,3.68,"83.07, 83.19, 80.69, 89.49, 86.14, 90.85, 87.45",627.38,10.54792119,38.81634996,27.83653633,Passed,130.0347724,,,,,,,,,,,,,,,,,,,,,training,6,7,0,left,a,,,,,481.9694,481.9903,35.84,-2.500061035,3.727294922,1,0,0,0.0209,fixationPoint,481.9903,482.0857,482.0857,482.9523,35.84,10240,616.96,a,1,0.8364,,482.9523,483.1523,,,,,,,,76,29,-114,222,223,164,223,24,113,-208,125,-64,123,-163,214,-68,-170,-25,-27,-126,-209,32,-28,112,-212,90,180,270,270,360,270,360,270,360,180,360,,,,,,,,,,,483.1523,483.1524,,0,86,86,86,1,12,novel,,,,,,,,,,,,,,,,,,,,,,,,,,,,,,,,,,,,,,,,,,,,,,,,,
,,14,11,${e://Field/PROLIFIC_PID,M,21,2023-11-03_17h41.49.712,MouseEye_CC,2023.2.2,Win32,59.78358343,1.28,,,1920,1080,60.428999999999995,3.68,"83.07, 83.19, 80.69, 89.49, 86.14, 90.85, 87.45",627.38,10.54792119,38.81634996,27.83653633,Passed,130.0347724,,,,,,,,,,,,,,,,,,,,,training,6,8,180,right,s,,,,,483.1526,483.4357,35.84,-2.500061035,3.727294922,1,0,0,0.283,fixationPoint,483.4357,483.5357,483.5357,485.3356,35.84,10240,616.96,s,1,1.7733,,485.3357,485.5357,,,,,,,,25,-17,112,165,171,16,210,220,122,-73,-112,-170,-212,-120,-117,219,-72,118,-31,165,-212,-18,32,-209,221,270,360,360,360,90,360,180,270,360,360,180,,,,,,,,,,,485.5357,485.5358,,0,87,87,87,1,4,repeated,,,,,,,,,,,,,,,,,,,,,,,,,,,,,,,,,,,,,,,,,,,,,,,,,
,,14,11,${e://Field/PROLIFIC_PID,M,21,2023-11-03_17h41.49.712,MouseEye_CC,2023.2.2,Win32,59.78358343,1.28,,,1920,1080,60.428999999999995,3.68,"83.07, 83.19, 80.69, 89.49, 86.14, 90.85, 87.45",627.38,10.54792119,38.81634996,27.83653633,Passed,130.0347724,,,,,,,,,,,,,,,,,,,,,training,6,9,0,left,a,,,,,485.5361,485.6192,35.84,-2.500061035,3.727294922,1,0,0,0.0829,fixationPoint,485.6192,485.719,485.7191,489.7857,35.84,10240,616.96,a,1,4.043,,489.7857,489.9856,,,,,,,,8,124,213,-80,174,-215,72,-30,210,-220,-168,-26,-218,-126,-209,165,-212,163,-30,160,-126,164,30,16,210,90,270,90,270,180,360,90,180,180,360,90,,,,,,,,,,,489.9856,489.9857,,0,88,88,88,1,13,novel,,,,,,,,,,,,,,,,,,,,,,,,,,,,,,,,,,,,,,,,,,,,,,,,,
,,14,11,${e://Field/PROLIFIC_PID,M,21,2023-11-03_17h41.49.712,MouseEye_CC,2023.2.2,Win32,59.78358343,1.28,,,1920,1080,60.428999999999995,3.68,"83.07, 83.19, 80.69, 89.49, 86.14, 90.85, 87.45",627.38,10.54792119,38.81634996,27.83653633,Passed,130.0347724,,,,,,,,,,,,,,,,,,,,,training,6,10,180,right,s,,,,,489.986,490.0691,35.84,-2.500061035,3.727294922,1,0,0,0.0831,fixationPoint,490.0691,490.1736,490.1737,492.8025,35.84,10240,616.96,s,1,2.6053,,492.8025,493.0024,,,,,,,,28,121,112,-215,72,-128,28,-214,166,-68,-170,-26,-218,-120,-117,66,-120,29,-114,116,-77,164,223,218,161,270,180,90,360,180,180,180,180,270,90,180,,,,,,,,,,,493.0024,493.0025,,0,89,89,89,1,2,repeated,,,,,,,,,,,,,,,,,,,,,,,,,,,,,,,,,,,,,,,,,,,,,,,,,
,,14,11,${e://Field/PROLIFIC_PID,M,21,2023-11-03_17h41.49.712,MouseEye_CC,2023.2.2,Win32,59.78358343,1.28,,,1920,1080,60.428999999999995,3.68,"83.07, 83.19, 80.69, 89.49, 86.14, 90.85, 87.45",627.38,10.54792119,38.81634996,27.83653633,Passed,130.0347724,,,,,,,,,,,,,,,,,,,,,training,6,11,0,left,a,,,,,493.0029,493.0526,35.84,-2.500061035,3.727294922,1,0,0,0.0496,fixationPoint,493.0526,493.1525,493.1525,495.3524,35.84,10240,616.96,a,1,2.1697,,495.3524,495.5523,,,,,,,,71,-214,-115,125,32,164,30,16,164,-114,176,-128,28,-30,210,68,-211,219,-72,118,-31,-26,-76,-172,-25,360,360,270,180,180,90,180,90,270,180,90,,,,,,,,,,,495.5523,495.5524,,0,90,90,90,1,9,novel,,,,,,,,,,,,,,,,,,,,,,,,,,,,,,,,,,,,,,,,,,,,,,,,,
,,14,11,${e://Field/PROLIFIC_PID,M,21,2023-11-03_17h41.49.712,MouseEye_CC,2023.2.2,Win32,59.78358343,1.28,,,1920,1080,60.428999999999995,3.68,"83.07, 83.19, 80.69, 89.49, 86.14, 90.85, 87.45",627.38,10.54792119,38.81634996,27.83653633,Passed,130.0347724,,,,,,,,,,,,,,,,,,,,,training,6,12,0,left,a,,,,,495.5527,495.6524,35.84,-2.500061035,3.727294922,1,0,0,0.0996,fixationPoint,495.6524,495.7525,495.7525,499.5559,35.84,10240,616.96,a,1,3.7832,,499.556,499.7523,,,,,,,,29,166,115,-127,220,-209,221,-164,165,-126,-209,-170,-212,-169,-126,66,-120,118,-31,172,-176,24,113,164,30,90,180,180,360,180,270,360,180,90,90,270,,,,,,,,,,,499.7524,499.7526,,0,91,91,91,1,14,novel,,,,,,,,,,,,,,,,,,,,,,,,,,,,,,,,,,,,,,,,,,,,,,,,,
,,14,11,${e://Field/PROLIFIC_PID,M,21,2023-11-03_17h41.49.712,MouseEye_CC,2023.2.2,Win32,59.78358343,1.28,,,1920,1080,60.428999999999995,3.68,"83.07, 83.19, 80.69, 89.49, 86.14, 90.85, 87.45",627.38,10.54792119,38.81634996,27.83653633,Passed,130.0347724,,,,,,,,,,,,,,,,,,,,,training,6,13,0,left,a,,,,,499.7528,499.8692,35.84,-2.500061035,3.727294922,1,0,0,0.1163,fixationPoint,499.8692,499.9692,499.9692,503.1189,35.84,10240,616.96,a,1,3.1285,,503.119,503.3191,,,,,,,,87,75,-176,67,68,32,28,16,210,-209,221,-169,117,-30,210,-119,-172,-73,-112,-72,-215,18,-176,219,-72,270,270,270,90,360,270,180,90,360,270,270,,,,,,,,,,,503.3191,503.3192,,0,92,92,92,1,7,repeated,,,,,,,,,,,,,,,,,,,,,,,,,,,,,,,,,,,,,,,,,,,,,,,,,
,,14,11,${e://Field/PROLIFIC_PID,M,21,2023-11-03_17h41.49.712,MouseEye_CC,2023.2.2,Win32,59.78358343,1.28,,,1920,1080,60.428999999999995,3.68,"83.07, 83.19, 80.69, 89.49, 86.14, 90.85, 87.45",627.38,10.54792119,38.81634996,27.83653633,Passed,130.0347724,,,,,,,,,,,,,,,,,,,,,training,6,14,180,right,s,,,,,503.3196,503.3562,35.84,-2.500061035,3.727294922,1,0,0,0.0365,fixationPoint,503.3562,503.4567,503.4567,506.3525,35.84,10240,616.96,s,1,2.8766,,506.3526,506.5537,,,,,,,,70,219,-72,220,122,125,32,125,164,-209,221,-169,117,-80,174,-19,-128,-219,-75,-170,-212,24,-65,29,-114,180,360,90,180,360,180,90,90,90,180,360,,,,,,,,,,,506.5538,506.5539,,0,93,93,93,1,8,repeated,,,,,,,,,,,,,,,,,,,,,,,,,,,,,,,,,,,,,,,,,,,,,,,,,
,,14,11,${e://Field/PROLIFIC_PID,M,21,2023-11-03_17h41.49.712,MouseEye_CC,2023.2.2,Win32,59.78358343,1.28,,,1920,1080,60.428999999999995,3.68,"83.07, 83.19, 80.69, 89.49, 86.14, 90.85, 87.45",627.38,10.54792119,38.81634996,27.83653633,Passed,130.0347724,,,,,,,,,,,,,,,,,,,,,training,6,15,180,right,s,,,,,506.5544,506.6895,35.84,-2.500061035,3.727294922,1,0,0,0.135,fixationPoint,506.6895,506.7857,506.7857,508.7024,35.84,10240,616.96,s,1,1.8959,,508.7024,508.9024,,,,,,,,31,-215,72,124,213,16,164,24,113,-120,-117,-126,-25,-73,-112,165,-212,66,-120,24,-65,-209,221,-163,214,90,90,360,360,180,270,270,180,360,360,360,,,,,,,,,,,508.9024,508.9025,,0,94,94,94,1,16,novel,,,,,,,,,,,,,,,,,,,,,,,,,,,,,,,,,,,,,,,,,,,,,,,,,
,,14,11,${e://Field/PROLIFIC_PID,M,21,2023-11-03_17h41.49.712,MouseEye_CC,2023.2.2,Win32,59.78358343,1.28,,,1920,1080,60.428999999999995,3.68,"83.07, 83.19, 80.69, 89.49, 86.14, 90.85, 87.45",627.38,10.54792119,38.81634996,27.83653633,Passed,130.0347724,,,,,,,,,,,,,,,,,,,,,training,6,16,180,right,s,,,,,508.9027,508.969,35.84,-2.500061035,3.727294922,1,0,0,0.0662,fixationPoint,508.969,509.0691,509.0691,510.7357,35.84,10240,616.96,s,1,1.6366,,510.7357,510.9357,,,,,,,,73,-120,-117,67,68,125,32,169,68,-172,67,-70,22,-208,125,216,-223,208,-118,24,-65,-68,-170,-173,-66,270,90,180,90,270,360,360,180,90,90,180,,,,,,,,,,,510.9357,512.0524,space,0,95,95,95,1,10,novel,1.0789,,,,,,,,,,,,,,,,,,,,,,,,,,,,,,,,,,,,,,,,,,,,,,,,
,,14,11,${e://Field/PROLIFIC_PID,M,21,2023-11-03_17h41.49.712,MouseEye_CC,2023.2.2,Win32,59.78358343,1.28,,,1920,1080,60.428999999999995,3.68,"83.07, 83.19, 80.69, 89.49, 86.14, 90.85, 87.45",627.38,10.54792119,38.81634996,27.83653633,Passed,130.0347724,,,,,,,,,,,,,,,,,,,,,training,7,1,0,left,a,,,,,512.0526,512.5358,35.84,-2.500061035,3.727294922,1,0,0,0.483,fixationPoint,512.5358,512.6361,512.6362,514.4227,35.84,10240,616.96,a,1,1.7665,,514.4227,514.6192,,,,,,,,88,122,-168,213,26,75,217,16,164,-127,220,-24,64,-214,166,-176,-175,-172,-25,-119,-172,29,-114,116,-128,180,90,180,90,180,360,270,180,360,360,180,,,,,,,,,,,514.6193,514.6217,,0,96,96,96,1,11,novel,,,,,,,,,,,,,,,,,,,,,,,,,,,,,,,,,,,,,,,,,,,,,,,,,
,,14,11,${e://Field/PROLIFIC_PID,M,21,2023-11-03_17h41.49.712,MouseEye_CC,2023.2.2,Win32,59.78358343,1.28,,,1920,1080,60.428999999999995,3.68,"83.07, 83.19, 80.69, 89.49, 86.14, 90.85, 87.45",627.38,10.54792119,38.81634996,27.83653633,Passed,130.0347724,,,,,,,,,,,,,,,,,,,,,training,7,2,0,left,a,,,,,514.622,514.8692,35.84,-2.500061035,3.727294922,1,0,0,0.2471,fixationPoint,514.8692,514.9692,514.9692,516.6524,35.84,10240,616.96,a,1,1.6549,,516.6524,516.8523,,,,,,,,14,-80,174,164,223,222,223,16,164,-73,-112,-221,-24,-26,-76,219,-72,75,-176,211,-165,-219,20,-127,72,180,360,270,270,180,270,180,360,90,180,180,,,,,,,,,,,516.8523,516.8524,,0,97,97,97,1,15,novel,,,,,,,,,,,,,,,,,,,,,,,,,,,,,,,,,,,,,,,,,,,,,,,,,
,,14,11,${e://Field/PROLIFIC_PID,M,21,2023-11-03_17h41.49.712,MouseEye_CC,2023.2.2,Win32,59.78358343,1.28,,,1920,1080,60.428999999999995,3.68,"83.07, 83.19, 80.69, 89.49, 86.14, 90.85, 87.45",627.38,10.54792119,38.81634996,27.83653633,Passed,130.0347724,,,,,,,,,,,,,,,,,,,,,training,7,3,0,left,a,,,,,516.8527,516.9525,35.84,-2.500061035,3.727294922,1,0,0,0.0997,fixationPoint,516.9525,517.0523,517.0523,522.3857,35.84,10240,616.96,a,1,5.3098,,522.3857,522.5857,,,,,,,,8,124,213,-164,165,-127,220,-208,125,-26,-218,-220,-168,-120,-117,32,-28,27,-216,116,-128,76,28,126,73,180,360,270,180,180,360,360,270,180,360,270,,,,,,,,,,,522.5857,522.5858,,0,98,98,98,1,13,novel,,,,,,,,,,,,,,,,,,,,,,,,,,,,,,,,,,,,,,,,,,,,,,,,,
,,14,11,${e://Field/PROLIFIC_PID,M,21,2023-11-03_17h41.49.712,MouseEye_CC,2023.2.2,Win32,59.78358343,1.28,,,1920,1080,60.428999999999995,3.68,"83.07, 83.19, 80.69, 89.49, 86.14, 90.85, 87.45",627.38,10.54792119,38.81634996,27.83653633,Passed,130.0347724,,,,,,,,,,,,,,,,,,,,,training,7,4,180,right,s,,,,,522.5861,522.7357,35.84,-2.500061035,3.727294922,1,0,0,0.1496,fixationPoint,522.7357,522.8357,522.8357,525.869,35.84,10240,616.96,s,1,3.0057,,525.8691,526.0693,,,,,,,,93,-126,-209,24,113,125,164,169,68,-70,22,-172,16,-72,215,66,-120,160,-126,27,-216,-120,-117,-170,-212,180,90,360,270,90,90,90,360,360,90,360,,,,,,,,,,,526.0693,526.0694,,0,99,99,99,1,5,repeated,,,,,,,,,,,,,,,,,,,,,,,,,,,,,,,,,,,,,,,,,,,,,,,,,
,,14,11,${e://Field/PROLIFIC_PID,M,21,2023-11-03_17h41.49.712,MouseEye_CC,2023.2.2,Win32,59.78358343,1.28,,,1920,1080,60.428999999999995,3.68,"83.07, 83.19, 80.69, 89.49, 86.14, 90.85, 87.45",627.38,10.54792119,38.81634996,27.83653633,Passed,130.0347724,,,,,,,,,,,,,,,,,,,,,training,7,5,0,left,a,,,,,526.0696,526.1525,35.84,-2.500061035,3.727294922,1,0,0,0.0828,fixationPoint,526.1525,526.2524,526.2524,528.5732,35.84,10240,616.96,a,1,2.3011,,528.5733,528.7692,,,,,,,,70,219,-72,220,122,125,32,125,164,-209,221,-169,117,-80,174,-19,-128,-219,-75,-170,-212,24,-65,29,-114,180,270,270,90,180,360,180,180,180,360,180,,,,,,,,,,,528.7693,528.7693,,0,100,100,100,1,8,repeated,,,,,,,,,,,,,,,,,,,,,,,,,,,,,,,,,,,,,,,,,,,,,,,,,
,,14,11,${e://Field/PROLIFIC_PID,M,21,2023-11-03_17h41.49.712,MouseEye_CC,2023.2.2,Win32,59.78358343,1.28,,,1920,1080,60.428999999999995,3.68,"83.07, 83.19, 80.69, 89.49, 86.14, 90.85, 87.45",627.38,10.54792119,38.81634996,27.83653633,Passed,130.0347724,,,,,,,,,,,,,,,,,,,,,training,7,6,180,right,s,,,,,528.7696,528.8564,35.84,-2.500061035,3.727294922,1,0,0,0.0868,fixationPoint,528.8564,528.9524,528.9524,531.3357,35.84,10240,616.96,s,1,2.3544,,531.3359,531.5358,,,,,,,,28,121,112,-215,72,-128,28,-214,166,-68,-170,-26,-218,-120,-117,66,-120,29,-114,116,-77,164,223,218,161,90,180,270,90,360,90,270,360,180,180,270,,,,,,,,,,,531.5358,531.5359,,0,101,101,101,1,2,repeated,,,,,,,,,,,,,,,,,,,,,,,,,,,,,,,,,,,,,,,,,,,,,,,,,
,,14,11,${e://Field/PROLIFIC_PID,M,21,2023-11-03_17h41.49.712,MouseEye_CC,2023.2.2,Win32,59.78358343,1.28,,,1920,1080,60.428999999999995,3.68,"83.07, 83.19, 80.69, 89.49, 86.14, 90.85, 87.45",627.38,10.54792119,38.81634996,27.83653633,Passed,130.0347724,,,,,,,,,,,,,,,,,,,,,training,7,7,180,right,s,,,,,531.5361,531.6191,35.84,-2.500061035,3.727294922,1,0,0,0.0828,fixationPoint,531.6191,531.7192,531.7192,536.3728,35.84,10240,616.96,s,1,4.6332,,536.3728,536.5691,,,,,,,,29,166,115,-208,125,-17,112,-72,215,-220,-168,-68,-170,-25,-27,216,-223,211,-165,209,-24,64,169,126,73,90,180,180,180,180,180,90,360,180,360,360,,,,,,,,,,,536.5692,536.5693,,0,102,102,102,1,14,novel,,,,,,,,,,,,,,,,,,,,,,,,,,,,,,,,,,,,,,,,,,,,,,,,,
,,14,11,${e://Field/PROLIFIC_PID,M,21,2023-11-03_17h41.49.712,MouseEye_CC,2023.2.2,Win32,59.78358343,1.28,,,1920,1080,60.428999999999995,3.68,"83.07, 83.19, 80.69, 89.49, 86.14, 90.85, 87.45",627.38,10.54792119,38.81634996,27.83653633,Passed,130.0347724,,,,,,,,,,,,,,,,,,,,,training,7,8,180,right,s,,,,,536.5697,537.0358,35.84,-2.500061035,3.727294922,1,0,0,0.466,fixationPoint,537.0358,537.1359,537.1359,538.1525,35.84,10240,616.96,s,1,0.9819,,538.1525,538.3525,,,,,,,,71,-214,-115,164,30,125,164,64,169,-24,64,-164,165,-17,112,219,-72,65,-80,122,-168,-72,-29,-126,-25,180,270,90,360,90,90,360,360,180,270,270,,,,,,,,,,,538.3525,538.3525,,0,103,103,103,1,9,novel,,,,,,,,,,,,,,,,,,,,,,,,,,,,,,,,,,,,,,,,,,,,,,,,,
,,14,11,${e://Field/PROLIFIC_PID,M,21,2023-11-03_17h41.49.712,MouseEye_CC,2023.2.2,Win32,59.78358343,1.28,,,1920,1080,60.428999999999995,3.68,"83.07, 83.19, 80.69, 89.49, 86.14, 90.85, 87.45",627.38,10.54792119,38.81634996,27.83653633,Passed,130.0347724,,,,,,,,,,,,,,,,,,,,,training,7,9,0,left,a,,,,,538.3528,538.4193,35.84,-2.500061035,3.727294922,1,0,0,0.0664,fixationPoint,538.4193,538.5191,538.5192,540.6858,35.84,10240,616.96,s,0,2.1381,,540.6859,544.6858,,,,,,,,30,220,122,-215,72,-208,125,-72,215,-119,-172,-219,-75,-73,-112,24,-65,168,-76,208,-118,166,115,218,161,180,270,270,360,270,270,360,360,90,90,270,,,,,,,,,,,544.6858,544.6912,,0,104,104,104,1,1,repeated,,,,,,,,,,,,,,,,,,,,,,,,,,,,,,,,,,,,,,,,,,,,,,,,,
,,14,11,${e://Field/PROLIFIC_PID,M,21,2023-11-03_17h41.49.712,MouseEye_CC,2023.2.2,Win32,59.78358343,1.28,,,1920,1080,60.428999999999995,3.68,"83.07, 83.19, 80.69, 89.49, 86.14, 90.85, 87.45",627.38,10.54792119,38.81634996,27.83653633,Passed,130.0347724,,,,,,,,,,,,,,,,,,,,,training,7,10,180,right,s,,,,,544.6915,545.1026,35.84,-2.500061035,3.727294922,1,0,0,0.411,fixationPoint,545.1026,545.2024,545.2025,549.2693,35.84,10240,616.96,s,1,4.0331,,549.2694,549.4708,,,,,,,,76,29,-114,80,119,76,28,220,122,-169,117,-215,72,-127,72,-176,-175,-65,-68,-120,-117,216,-223,122,-168,270,270,90,360,360,270,270,360,360,90,90,,,,,,,,,,,549.4708,549.471,,0,105,105,105,1,12,novel,,,,,,,,,,,,,,,,,,,,,,,,,,,,,,,,,,,,,,,,,,,,,,,,,
,,14,11,${e://Field/PROLIFIC_PID,M,21,2023-11-03_17h41.49.712,MouseEye_CC,2023.2.2,Win32,59.78358343,1.28,,,1920,1080,60.428999999999995,3.68,"83.07, 83.19, 80.69, 89.49, 86.14, 90.85, 87.45",627.38,10.54792119,38.81634996,27.83653633,Passed,130.0347724,,,,,,,,,,,,,,,,,,,,,training,7,11,0,left,a,,,,,549.4712,549.5399,35.84,-2.500061035,3.727294922,1,0,0,0.0685,fixationPoint,549.5399,549.64,549.64,550.8525,35.84,10240,616.96,a,1,1.1945,,550.8526,551.0525,,,,,,,,31,-215,72,164,30,218,161,220,122,-25,-27,-120,-117,-176,-175,65,-80,209,-24,163,-30,-169,117,-24,64,270,180,90,90,270,270,90,180,90,360,180,,,,,,,,,,,551.0525,551.0526,,0,106,106,106,1,16,novel,,,,,,,,,,,,,,,,,,,,,,,,,,,,,,,,,,,,,,,,,,,,,,,,,
,,14,11,${e://Field/PROLIFIC_PID,M,21,2023-11-03_17h41.49.712,MouseEye_CC,2023.2.2,Win32,59.78358343,1.28,,,1920,1080,60.428999999999995,3.68,"83.07, 83.19, 80.69, 89.49, 86.14, 90.85, 87.45",627.38,10.54792119,38.81634996,27.83653633,Passed,130.0347724,,,,,,,,,,,,,,,,,,,,,training,7,12,0,left,a,,,,,551.0528,551.2025,35.84,-2.500061035,3.727294922,1,0,0,0.1495,fixationPoint,551.2025,551.3024,551.3025,553.286,35.84,10240,616.96,a,1,1.9501,,553.2861,553.4858,,,,,,,,87,75,-176,67,68,32,28,16,210,-209,221,-169,117,-30,210,-119,-172,-73,-112,-72,-215,18,-176,219,-72,180,90,180,90,360,360,360,90,360,90,90,,,,,,,,,,,553.4858,553.4859,,0,107,107,107,1,7,repeated,,,,,,,,,,,,,,,,,,,,,,,,,,,,,,,,,,,,,,,,,,,,,,,,,
,,14,11,${e://Field/PROLIFIC_PID,M,21,2023-11-03_17h41.49.712,MouseEye_CC,2023.2.2,Win32,59.78358343,1.28,,,1920,1080,60.428999999999995,3.68,"83.07, 83.19, 80.69, 89.49, 86.14, 90.85, 87.45",627.38,10.54792119,38.81634996,27.83653633,Passed,130.0347724,,,,,,,,,,,,,,,,,,,,,training,7,13,180,right,s,,,,,553.4861,553.6525,35.84,-2.500061035,3.727294922,1,0,0,0.1662,fixationPoint,553.6525,553.7525,553.7525,554.6859,35.84,10240,616.96,s,1,0.8998,,554.6859,554.8857,,,,,,,,73,-120,-117,220,122,64,169,67,68,-208,125,-209,221,-163,214,116,-128,163,-30,216,-223,-172,-25,-219,-75,360,270,90,90,90,270,90,270,360,90,360,,,,,,,,,,,554.8858,554.8859,,0,108,108,108,1,10,novel,,,,,,,,,,,,,,,,,,,,,,,,,,,,,,,,,,,,,,,,,,,,,,,,,
,,14,11,${e://Field/PROLIFIC_PID,M,21,2023-11-03_17h41.49.712,MouseEye_CC,2023.2.2,Win32,59.78358343,1.28,,,1920,1080,60.428999999999995,3.68,"83.07, 83.19, 80.69, 89.49, 86.14, 90.85, 87.45",627.38,10.54792119,38.81634996,27.83653633,Passed,130.0347724,,,,,,,,,,,,,,,,,,,,,training,7,14,180,right,s,,,,,554.8861,555.1193,35.84,-2.500061035,3.727294922,1,0,0,0.2331,fixationPoint,555.1193,555.2192,555.2192,556.0692,35.84,10240,616.96,s,1,0.8179,,556.0692,556.2693,,,,,,,,72,-169,-126,222,223,165,171,28,68,-128,28,-72,215,-114,176,219,-72,27,-216,68,-211,-172,-25,-209,-208,90,180,270,180,270,360,360,360,270,90,360,,,,,,,,,,,556.2693,556.2694,,0,109,109,109,1,6,repeated,,,,,,,,,,,,,,,,,,,,,,,,,,,,,,,,,,,,,,,,,,,,,,,,,
,,14,11,${e://Field/PROLIFIC_PID,M,21,2023-11-03_17h41.49.712,MouseEye_CC,2023.2.2,Win32,59.78358343,1.28,,,1920,1080,60.428999999999995,3.68,"83.07, 83.19, 80.69, 89.49, 86.14, 90.85, 87.45",627.38,10.54792119,38.81634996,27.83653633,Passed,130.0347724,,,,,,,,,,,,,,,,,,,,,training,7,15,180,right,s,,,,,556.2697,556.4193,35.84,-2.500061035,3.727294922,1,0,0,0.1493,fixationPoint,556.4193,556.5192,556.5192,558.4859,35.84,10240,616.96,s,1,1.9341,,558.4859,558.6857,,,,,,,,25,-17,112,165,171,16,210,220,122,-73,-112,-170,-212,-120,-117,219,-72,118,-31,165,-212,-18,32,-209,221,270,90,180,180,90,90,90,270,270,180,90,,,,,,,,,,,558.6858,558.6859,,0,110,110,110,1,4,repeated,,,,,,,,,,,,,,,,,,,,,,,,,,,,,,,,,,,,,,,,,,,,,,,,,
,,14,11,${e://Field/PROLIFIC_PID,M,21,2023-11-03_17h41.49.712,MouseEye_CC,2023.2.2,Win32,59.78358343,1.28,,,1920,1080,60.428999999999995,3.68,"83.07, 83.19, 80.69, 89.49, 86.14, 90.85, 87.45",627.38,10.54792119,38.81634996,27.83653633,Passed,130.0347724,,,,,,,,,,,,,,,,,,,,,training,7,16,0,left,a,,,,,558.6861,558.8025,35.84,-2.500061035,3.727294922,1,0,0,0.1164,fixationPoint,558.8026,558.9025,558.9025,561.5026,35.84,10240,616.96,a,1,2.5677,,561.5026,561.7026,,,,,,,,13,-114,176,164,30,125,32,169,68,-116,-68,-219,-75,-72,-29,32,-28,211,-165,116,-128,-169,117,-128,28,180,270,180,180,360,360,270,360,180,90,360,,,,,,,,,,,561.7026,562.3911,space,0,111,111,111,1,3,repeated,0.6675,,,,,,,,,,,,,,,,,,,,,,,,,,,,,,,,,,,,,,,,,,,,,,,,
,,14,11,${e://Field/PROLIFIC_PID,M,21,2023-11-03_17h41.49.712,MouseEye_CC,2023.2.2,Win32,59.78358343,1.28,,,1920,1080,60.428999999999995,3.68,"83.07, 83.19, 80.69, 89.49, 86.14, 90.85, 87.45",627.38,10.54792119,38.81634996,27.83653633,Passed,130.0347724,,,,,,,,,,,,,,,,,,,,,training,8,1,180,right,s,,,,,562.3915,562.8694,35.84,-2.500061035,3.727294922,1,0,0,0.4778,fixationPoint,562.8694,562.9692,562.9692,564.5027,35.84,10240,616.96,s,1,1.499,,564.5027,564.7026,,,,,,,,72,-169,-126,222,223,165,171,28,68,-128,28,-72,215,-114,176,219,-72,27,-216,68,-211,-172,-25,-209,-208,180,180,360,270,360,180,270,180,90,180,180,,,,,,,,,,,564.7027,564.7054,,0,112,112,112,1,6,repeated,,,,,,,,,,,,,,,,,,,,,,,,,,,,,,,,,,,,,,,,,,,,,,,,,
,,14,11,${e://Field/PROLIFIC_PID,M,21,2023-11-03_17h41.49.712,MouseEye_CC,2023.2.2,Win32,59.78358343,1.28,,,1920,1080,60.428999999999995,3.68,"83.07, 83.19, 80.69, 89.49, 86.14, 90.85, 87.45",627.38,10.54792119,38.81634996,27.83653633,Passed,130.0347724,,,,,,,,,,,,,,,,,,,,,training,8,2,180,right,s,,,,,564.7055,564.8193,35.84,-2.500061035,3.727294922,1,0,0,0.1137,fixationPoint,564.8193,564.9195,564.9195,565.6858,35.84,10240,616.96,s,1,0.738,,565.6859,565.8858,,,,,,,,73,-120,-117,64,169,125,164,218,161,-215,72,-64,123,-127,72,18,-176,116,-128,172,-176,-209,-208,-19,-128,270,180,270,180,180,360,180,360,270,180,180,,,,,,,,,,,565.8858,565.8858,,0,113,113,113,1,10,novel,,,,,,,,,,,,,,,,,,,,,,,,,,,,,,,,,,,,,,,,,,,,,,,,,
