InstrStartPage.started,InstrStartPage.stopped,participant,designid,prolificid,Gender,Age,date,expName,psychopyVersion,OS,frameRate,ratio_monitor2CRT,VirtualChinrest.started,VirtualChinrest.stopped,xRes,yRes,viewingdistance_cm,pixeldensity_px2mm,BallPos,squarePos,mm2degree,px2degree,CRT_px2degree,PassVirtualChinrest,foveaRadius_inPixel,InstrRedo.started,InstrRedo.stopped,VirtualChinrest_Redo.started,VirtualChinrest_Redo.stopped,Redo_virtualChinrest,Instruction1.started,Instruction1.stopped,keyPractice.started,keyPractice.stopped,key_keyprac.keys,key_keyprac.corr,key_keyprac.rt,key_keyprac.duration,keyPracFeedback.started,keyPracFeedback.stopped,keyPracLoop.thisRepN,keyPracLoop.thisTrialN,keyPracLoop.thisN,keyPracLoop.thisIndex,keyPracLoop.ran,phase,block,trial,targOrientdeg,targOrient,corrAnswer,Instruction2.started,Instruction2.stopped,Instruction3.started,Instruction3.stopped,fixation.started,fixation.stopped,fixationSize,mouseintial.x,mouseintial.y,mouseintial.leftButton,mouseintial.midButton,mouseintial.rightButton,mouseintial.time,mouseintial.clicked_name,greenFixation.started,greenFixation.stopped,trial.started,trial.stopped,letterSize,apertureSize,searchsize,key_respMain.keys,key_respMain.corr,key_respMain.rt,key_respMain.duration,trialFeedback.started,trialFeedback.stopped,trialsPractice.thisRepN,trialsPractice.thisTrialN,trialsPractice.thisN,trialsPractice.thisIndex,trialsPractice.ran,targetQuad,Tcondition,targcell,tlocx,tlocy,d1x,d1y,d2x,d2y,d3x,d3y,d4x,d4y,d5x,d5y,d6x,d6y,d7x,d7y,d8x,d8y,d9x,d9y,d10x,d10y,d11x,d11y,d1Orient,d2Orient,d3Orient,d4Orient,d5Orient,d6Orient,d7Orient,d8Orient,d9Orient,d10Orient,d11Orient,CheckInstr.started,CheckInstr.stopped,key_checkInstr.keys,key_checkInstr.corr,key_checkInstr.rt,key_checkInstr.duration,CheckInstr_FB.started,CheckInstr_FB.stopped,Instruction_MainExp.started,Instruction_MainExp.stopped,TakeABreak.started,TakeABreak.stopped,key_respBreak.keys,trials.thisRepN,trials.thisTrialN,trials.thisN,trials.thisIndex,trials.ran,configurationNumber,CCCondition,key_respBreak.rt,key_respBreak.duration,displayTestingPhase.started,displayTestingPhase.stopped,key_respTesting.keys,key_respTesting.corr,key_respTesting.rt,key_respTesting.duration,TakeABreak2.started,TakeABreak2.stopped,key_RespBreak.keys,Testingtrials.thisRepN,Testingtrials.thisTrialN,Testingtrials.thisN,Testingtrials.thisIndex,Testingtrials.ran,key_RespBreak.rt,key_RespBreak.duration,RecogQuestion.started,RecogQuestion.stopped,key_AnswerQues.keys,key_AnswerQues.rt,key_AnswerQues.duration,Disclose.started,Disclose.stopped,InstrRT.started,InstrRT.stopped,fixation_RT.started,fixation_RT.stopped,mouseInitial.x,mouseInitial.y,mouseInitial.leftButton,mouseInitial.midButton,mouseInitial.rightButton,mouseInitial.time,mouseInitial.clicked_name,displayRT.started,displayRT.stopped,key_respRT.keys,key_respRT.corr,key_respRT.rt,key_respRT.duration,RTtrials.thisRepN,RTtrials.thisTrialN,RTtrials.thisN,RTtrials.thisIndex,RTtrials.ran,EndOfExperiment.started,EndOfExperiment.stopped
0.001,10.446,14,8,${e://Field/PROLIFIC_PID,F,18,2023-11-03_17h56.08.700,MouseEye_CC,2023.2.2,Win32,60.0240096,1,,,,,,,,,,,,,,,,,,,,,,,,,,,,,,,,,,,,,,,,,,,,,,,,,,,,,,,,,,,,,,,,,,,,,,,,,,,,,,,,,,,,,,,,,,,,,,,,,,,,,,,,,,,,,,,,,,,,,,,,,,,,,,,,,,,,,,,,,,,,,,,,,,,,,,,,,,,,,,,,,,,,,,,,,,,,,,,,,,
,,14,8,${e://Field/PROLIFIC_PID,F,18,2023-11-03_17h56.08.700,MouseEye_CC,2023.2.2,Win32,60.0240096,1.585567833,10.446,151.443,1024,640,58.66799999999999,4.31,"125.67, 123.81, 137.18, 144.89, 133.92, 127.67, 145.56",740.93,10.24053749,44.13671659,27.83653633,Passed,147.8580006,,,,,,,,,,,,,,,,,,,,,,,,,,,,,,,,,,,,,,,,,,,,,,,,,,,,,,,,,,,,,,,,,,,,,,,,,,,,,,,,,,,,,,,,,,,,,,,,,,,,,,,,,,,,,,,,,,,,,,,,,,,,,,,,,,,,,,,,,,,,,,,,,,,,,,,,,,,,,,,,,,,,,
,,14,8,${e://Field/PROLIFIC_PID,F,18,2023-11-03_17h56.08.700,MouseEye_CC,2023.2.2,Win32,60.0240096,1.585567833,,,1024,640,58.66799999999999,4.31,"125.67, 123.81, 137.18, 144.89, 133.92, 127.67, 145.56",740.93,10.24053749,44.13671659,27.83653633,Passed,147.8580006,151.444,151.456,,,,,,,,,,,,,,,,,,,,,,,,,,,,,,,,,,,,,,,,,,,,,,,,,,,,,,,,,,,,,,,,,,,,,,,,,,,,,,,,,,,,,,,,,,,,,,,,,,,,,,,,,,,,,,,,,,,,,,,,,,,,,,,,,,,,,,,,,,,,,,,,,,,,,,,,,,,,,,,,,,,
,,14,8,${e://Field/PROLIFIC_PID,F,18,2023-11-03_17h56.08.700,MouseEye_CC,2023.2.2,Win32,60.0240096,1.28,,,1024,640,64.537,3.79,"125.67, 123.81, 137.18, 144.89, 133.92, 127.67, 145.56",740.93,11.26497525,42.69425621,27.83653633,Passed,143.0257583,,,151.456,243.036,failed,,,,,,,,,,,,,,,,,,,,,,,,,,,,,,,,,,,,,,,,,,,,,,,,,,,,,,,,,,,,,,,,,,,,,,,,,,,,,,,,,,,,,,,,,,,,,,,,,,,,,,,,,,,,,,,,,,,,,,,,,,,,,,,,,,,,,,,,,,,,,,,,,,,,,,,,,,,,,,,,
,,14,8,${e://Field/PROLIFIC_PID,F,18,2023-11-03_17h56.08.700,MouseEye_CC,2023.2.2,Win32,60.0240096,1.28,,,1024,640,64.537,3.79,"125.67, 123.81, 137.18, 144.89, 133.92, 127.67, 145.56",740.93,11.26497525,42.69425621,27.83653633,Passed,143.0257583,,,,,,243.037,316.606,,,,,,,,,,,,,,,,,,,,,,,,,,,,,,,,,,,,,,,,,,,,,,,,,,,,,,,,,,,,,,,,,,,,,,,,,,,,,,,,,,,,,,,,,,,,,,,,,,,,,,,,,,,,,,,,,,,,,,,,,,,,,,,,,,,,,,,,,,,,,,,,,,,,,,,,,,,,,,
,,14,8,${e://Field/PROLIFIC_PID,F,18,2023-11-03_17h56.08.700,MouseEye_CC,2023.2.2,Win32,60.0240096,1.28,,,1024,640,64.537,3.79,"125.67, 123.81, 137.18, 144.89, 133.92, 127.67, 145.56",740.93,11.26497525,42.69425621,27.83653633,Passed,143.0257583,,,,,,,,316.672,318.004,a,1,0.784,,318.005,318.497,0,0,0,0,1,practice,1,1,0,left,a,,,,,,,,,,,,,,,,,,,,,,,,,,,,,,,,,,,,,,,,,,,,,,,,,,,,,,,,,,,,,,,,,,,,,,,,,,,,,,,,,,,,,,,,,,,,,,,,,,,,,,,,,,,,,,,,,,,,,,,,,,,,,,,,,,,,,,,,,,,
,,14,8,${e://Field/PROLIFIC_PID,F,18,2023-11-03_17h56.08.700,MouseEye_CC,2023.2.2,Win32,60.0240096,1.28,,,1024,640,64.537,3.79,"125.67, 123.81, 137.18, 144.89, 133.92, 127.67, 145.56",740.93,11.26497525,42.69425621,27.83653633,Passed,143.0257583,,,,,,,,318.499,319.549,a,1,0.537,,319.549,320.048,0,1,1,1,1,practice,1,2,0,left,a,,,,,,,,,,,,,,,,,,,,,,,,,,,,,,,,,,,,,,,,,,,,,,,,,,,,,,,,,,,,,,,,,,,,,,,,,,,,,,,,,,,,,,,,,,,,,,,,,,,,,,,,,,,,,,,,,,,,,,,,,,,,,,,,,,,,,,,,,,,
,,14,8,${e://Field/PROLIFIC_PID,F,18,2023-11-03_17h56.08.700,MouseEye_CC,2023.2.2,Win32,60.0240096,1.28,,,1024,640,64.537,3.79,"125.67, 123.81, 137.18, 144.89, 133.92, 127.67, 145.56",740.93,11.26497525,42.69425621,27.83653633,Passed,143.0257583,,,,,,,,320.05,321.083,a,1,0.504,,321.083,321.58,0,2,2,2,1,practice,1,3,0,left,a,,,,,,,,,,,,,,,,,,,,,,,,,,,,,,,,,,,,,,,,,,,,,,,,,,,,,,,,,,,,,,,,,,,,,,,,,,,,,,,,,,,,,,,,,,,,,,,,,,,,,,,,,,,,,,,,,,,,,,,,,,,,,,,,,,,,,,,,,,,
,,14,8,${e://Field/PROLIFIC_PID,F,18,2023-11-03_17h56.08.700,MouseEye_CC,2023.2.2,Win32,60.0240096,1.28,,,1024,640,64.537,3.79,"125.67, 123.81, 137.18, 144.89, 133.92, 127.67, 145.56",740.93,11.26497525,42.69425621,27.83653633,Passed,143.0257583,,,,,,,,321.582,322.616,s,1,0.502,,322.616,323.113,0,3,3,3,1,practice,1,4,180,right,s,,,,,,,,,,,,,,,,,,,,,,,,,,,,,,,,,,,,,,,,,,,,,,,,,,,,,,,,,,,,,,,,,,,,,,,,,,,,,,,,,,,,,,,,,,,,,,,,,,,,,,,,,,,,,,,,,,,,,,,,,,,,,,,,,,,,,,,,,,,
,,14,8,${e://Field/PROLIFIC_PID,F,18,2023-11-03_17h56.08.700,MouseEye_CC,2023.2.2,Win32,60.0240096,1.28,,,1024,640,64.537,3.79,"125.67, 123.81, 137.18, 144.89, 133.92, 127.67, 145.56",740.93,11.26497525,42.69425621,27.83653633,Passed,143.0257583,,,,,,,,323.116,324.081,s,1,0.437,,324.082,324.579,0,4,4,4,1,practice,1,5,180,right,s,,,,,,,,,,,,,,,,,,,,,,,,,,,,,,,,,,,,,,,,,,,,,,,,,,,,,,,,,,,,,,,,,,,,,,,,,,,,,,,,,,,,,,,,,,,,,,,,,,,,,,,,,,,,,,,,,,,,,,,,,,,,,,,,,,,,,,,,,,,
,,14,8,${e://Field/PROLIFIC_PID,F,18,2023-11-03_17h56.08.700,MouseEye_CC,2023.2.2,Win32,60.0240096,1.28,,,1024,640,64.537,3.79,"125.67, 123.81, 137.18, 144.89, 133.92, 127.67, 145.56",740.93,11.26497525,42.69425621,27.83653633,Passed,143.0257583,,,,,,,,324.581,325.815,a,1,0.704,,325.816,326.312,0,5,5,5,1,practice,1,6,0,left,a,,,,,,,,,,,,,,,,,,,,,,,,,,,,,,,,,,,,,,,,,,,,,,,,,,,,,,,,,,,,,,,,,,,,,,,,,,,,,,,,,,,,,,,,,,,,,,,,,,,,,,,,,,,,,,,,,,,,,,,,,,,,,,,,,,,,,,,,,,,
,,14,8,${e://Field/PROLIFIC_PID,F,18,2023-11-03_17h56.08.700,MouseEye_CC,2023.2.2,Win32,60.0240096,1.28,,,1024,640,64.537,3.79,"125.67, 123.81, 137.18, 144.89, 133.92, 127.67, 145.56",740.93,11.26497525,42.69425621,27.83653633,Passed,143.0257583,,,,,,,,,,,,,,,,,,,,,,,,,,,326.313,421.067,,,,,,,,,,,,,,,,,,,,,,,,,,,,,,,,,,,,,,,,,,,,,,,,,,,,,,,,,,,,,,,,,,,,,,,,,,,,,,,,,,,,,,,,,,,,,,,,,,,,,,,,,,,,,,,,,,,,,,,,,,,,,,,,,,,,,,,,,
,,14,8,${e://Field/PROLIFIC_PID,F,18,2023-11-03_17h56.08.700,MouseEye_CC,2023.2.2,Win32,60.0240096,1.28,,,1024,640,64.537,3.79,"125.67, 123.81, 137.18, 144.89, 133.92, 127.67, 145.56",740.93,11.26497525,42.69425621,27.83653633,Passed,143.0257583,,,,,,,,,,,,,,,,,,,,,,,,,,,,,421.067,427.912,,,,,,,,,,,,,,,,,,,,,,,,,,,,,,,,,,,,,,,,,,,,,,,,,,,,,,,,,,,,,,,,,,,,,,,,,,,,,,,,,,,,,,,,,,,,,,,,,,,,,,,,,,,,,,,,,,,,,,,,,,,,,,,,,,,,,,,
,,14,8,${e://Field/PROLIFIC_PID,F,18,2023-11-03_17h56.08.700,MouseEye_CC,2023.2.2,Win32,60.0240096,1.28,,,1024,640,64.537,3.79,"125.67, 123.81, 137.18, 144.89, 133.92, 127.67, 145.56",740.93,11.26497525,42.69425621,27.83653633,Passed,143.0257583,,,,,,,,,,,,,,,,,,,,,practice,0,1,0,left,a,,,,,428.018,429.846,35.84,3,2,1,0,0,1.826,fixationPoint,429.847,429.943,429.944,433.067,35.84,10240,616.96,a,1,3.035,,433.068,433.256,0,0,0,0,1,4,sparse,90,217,-164,68,123,222,26,214,216,-218,159,-120,223,-110,82,-115,-130,-224,-120,-68,-219,79,-175,19,-128,90,270,360,90,270,270,180,90,90,90,270,,,,,,,,,,,,,,,,,,,,,,,,,,,,,,,,,,,,,,,,,,,,,,,,,,,,,,,,,,,,,,,,,,,,,
,,14,8,${e://Field/PROLIFIC_PID,F,18,2023-11-03_17h56.08.700,MouseEye_CC,2023.2.2,Win32,60.0240096,1.28,,,1024,640,64.537,3.79,"125.67, 123.81, 137.18, 144.89, 133.92, 127.67, 145.56",740.93,11.26497525,42.69425621,27.83653633,Passed,143.0257583,,,,,,,,,,,,,,,,,,,,,practice,0,2,0,left,a,,,,,433.264,438.744,35.84,-1,0,1,0,0,5.478,fixationPoint,438.745,438.838,438.839,443.308,35.84,10240,616.96,a,1,4.443,,443.309,443.509,0,1,1,1,1,1,rich,39,169,66,-126,125,-169,169,-130,19,-169,-116,-125,-167,-224,-216,218,-129,171,-218,18,-208,166,26,17,170,180,90,360,270,90,90,90,270,180,180,270,,,,,,,,,,,,,,,,,,,,,,,,,,,,,,,,,,,,,,,,,,,,,,,,,,,,,,,,,,,,,,,,,,,,,
,,14,8,${e://Field/PROLIFIC_PID,F,18,2023-11-03_17h56.08.700,MouseEye_CC,2023.2.2,Win32,60.0240096,1.28,,,1024,640,64.537,3.79,"125.67, 123.81, 137.18, 144.89, 133.92, 127.67, 145.56",740.93,11.26497525,42.69425621,27.83653633,Passed,143.0257583,,,,,,,,,,,,,,,,,,,,,practice,0,3,0,left,a,,,,,443.512,444.241,35.84,-1,0,1,0,0,0.729,fixationPoint,444.242,444.336,444.337,445.656,35.84,10240,616.96,a,1,1.295,,445.657,445.857,0,2,2,2,1,2,sparse,22,-162,126,222,26,17,170,126,172,-25,-117,-175,-206,-224,-216,116,-19,130,-174,217,-164,-218,159,-21,162,90,90,180,360,360,270,360,360,360,360,180,,,,,,,,,,,,,,,,,,,,,,,,,,,,,,,,,,,,,,,,,,,,,,,,,,,,,,,,,,,,,,,,,,,,,
,,14,8,${e://Field/PROLIFIC_PID,F,18,2023-11-03_17h56.08.700,MouseEye_CC,2023.2.2,Win32,60.0240096,1.28,,,1024,640,64.537,3.79,"125.67, 123.81, 137.18, 144.89, 133.92, 127.67, 145.56",740.93,11.26497525,42.69425621,27.83653633,Passed,143.0257583,,,,,,,,,,,,,,,,,,,,,practice,0,4,180,right,s,,,,,445.858,446.974,35.84,-1,0,1,0,0,1.116,fixationPoint,446.974,447.07,447.07,450.322,35.84,10240,616.96,a,0,3.234,,450.323,454.322,0,3,3,3,1,4,sparse,76,19,-128,159,121,214,216,219,165,-218,159,-162,126,-219,119,-169,-116,-111,-31,-175,-206,18,-208,81,-114,90,270,180,180,270,180,360,360,360,270,360,,,,,,,,,,,,,,,,,,,,,,,,,,,,,,,,,,,,,,,,,,,,,,,,,,,,,,,,,,,,,,,,,,,,,
,,14,8,${e://Field/PROLIFIC_PID,F,18,2023-11-03_17h56.08.700,MouseEye_CC,2023.2.2,Win32,60.0240096,1.28,,,1024,640,64.537,3.79,"125.67, 123.81, 137.18, 144.89, 133.92, 127.67, 145.56",740.93,11.26497525,42.69425621,27.83653633,Passed,143.0257583,,,,,,,,,,,,,,,,,,,,,practice,0,5,180,right,s,,,,,454.323,455.69,35.84,-1,0,1,0,0,1.366,fixationPoint,455.69,455.786,455.786,457.487,35.84,10240,616.96,s,1,1.684,,457.487,457.682,0,4,4,4,1,3,sparse,85,-19,-173,219,165,68,123,214,216,-160,68,-64,120,-226,34,162,-21,224,-216,167,-163,-167,-74,-224,-216,360,360,360,90,180,270,90,360,270,270,360,,,,,,,,,,,,,,,,,,,,,,,,,,,,,,,,,,,,,,,,,,,,,,,,,,,,,,,,,,,,,,,,,,,,,
,,14,8,${e://Field/PROLIFIC_PID,F,18,2023-11-03_17h56.08.700,MouseEye_CC,2023.2.2,Win32,60.0240096,1.28,,,1024,640,64.537,3.79,"125.67, 123.81, 137.18, 144.89, 133.92, 127.67, 145.56",740.93,11.26497525,42.69425621,27.83653633,Passed,143.0257583,,,,,,,,,,,,,,,,,,,,,practice,0,6,180,right,s,,,,,457.685,458.373,35.84,-1,1,1,0,0,0.688,fixationPoint,458.373,458.467,458.467,459.855,35.84,10240,616.96,s,1,1.368,,459.855,460.052,0,5,5,5,1,3,sparse,95,-21,-224,126,172,219,165,166,26,-166,207,-223,206,-219,119,169,-75,18,-208,224,-216,-72,-121,-115,-130,180,180,360,180,360,180,270,180,90,180,360,,,,,,,,,,,,,,,,,,,,,,,,,,,,,,,,,,,,,,,,,,,,,,,,,,,,,,,,,,,,,,,,,,,,,
,,14,8,${e://Field/PROLIFIC_PID,F,18,2023-11-03_17h56.08.700,MouseEye_CC,2023.2.2,Win32,60.0240096,1.28,,,1024,640,64.537,3.79,"125.67, 123.81, 137.18, 144.89, 133.92, 127.67, 145.56",740.93,11.26497525,42.69425621,27.83653633,Passed,143.0257583,,,,,,,,,,,,,,,,,,,,,practice,0,7,0,left,a,,,,,460.054,461.238,35.84,-1,1,1,0,0,1.183,fixationPoint,461.238,461.333,461.333,463.854,35.84,10240,616.96,a,1,2.501,,463.854,464.05,0,6,6,6,1,1,rich,7,62,223,-166,207,-226,34,-162,126,-169,-116,-168,-160,-161,-27,15,-162,162,-21,79,-175,219,165,219,129,180,180,360,180,270,360,180,360,270,180,360,,,,,,,,,,,,,,,,,,,,,,,,,,,,,,,,,,,,,,,,,,,,,,,,,,,,,,,,,,,,,,,,,,,,,
,,14,8,${e://Field/PROLIFIC_PID,F,18,2023-11-03_17h56.08.700,MouseEye_CC,2023.2.2,Win32,60.0240096,1.28,,,1024,640,64.537,3.79,"125.67, 123.81, 137.18, 144.89, 133.92, 127.67, 145.56",740.93,11.26497525,42.69425621,27.83653633,Passed,143.0257583,,,,,,,,,,,,,,,,,,,,,practice,0,8,180,right,s,,,,,464.054,464.852,35.84,-1,1,1,0,0,0.798,fixationPoint,464.852,464.949,464.949,468.09,35.84,10240,616.96,s,1,3.119,,468.091,468.282,0,7,7,7,1,2,sparse,24,-64,120,18,215,126,172,33,121,-206,-170,-64,-162,-218,-78,130,-174,211,-74,168,-130,-164,32,-21,162,90,180,270,360,180,90,180,180,180,360,270,,,,,,,,,,,,,,,,,,,,,,,,,,,,,,,,,,,,,,,,,,,,,,,,,,,,,,,,,,,,,,,,,,,,,
,,14,8,${e://Field/PROLIFIC_PID,F,18,2023-11-03_17h56.08.700,MouseEye_CC,2023.2.2,Win32,60.0240096,1.28,,,1024,640,64.537,3.79,"125.67, 123.81, 137.18, 144.89, 133.92, 127.67, 145.56",740.93,11.26497525,42.69425621,27.83653633,Passed,143.0257583,,,,,,,,,,,,,,,,,,,,,practice,0,9,180,right,s,,,,,468.291,469.472,35.84,-1,1,1,0,0,1.18,fixationPoint,469.472,469.564,469.566,471.336,35.84,10240,616.96,s,1,1.742,,471.336,471.531,0,8,8,8,1,3,sparse,85,-19,-173,127,30,62,223,217,67,-110,82,-21,162,-80,218,167,-163,126,-79,130,-174,-125,-167,-68,-219,360,360,360,180,360,360,180,270,90,360,180,,,,,,,,,,,,,,,,,,,,,,,,,,,,,,,,,,,,,,,,,,,,,,,,,,,,,,,,,,,,,,,,,,,,,
,,14,8,${e://Field/PROLIFIC_PID,F,18,2023-11-03_17h56.08.700,MouseEye_CC,2023.2.2,Win32,60.0240096,1.28,,,1024,640,64.537,3.79,"125.67, 123.81, 137.18, 144.89, 133.92, 127.67, 145.56",740.93,11.26497525,42.69425621,27.83653633,Passed,143.0257583,,,,,,,,,,,,,,,,,,,,,practice,0,10,180,right,s,,,,,471.536,472.668,35.84,-1,1,1,0,0,1.131,fixationPoint,472.668,472.764,472.764,474.636,35.84,10240,616.96,s,1,1.85,,474.636,474.831,0,9,9,9,1,1,rich,9,160,209,-166,207,-226,34,-120,223,-224,-120,-118,-217,-218,-78,112,-209,126,-113,169,-75,178,160,110,129,180,90,90,270,360,270,360,180,360,180,360,,,,,,,,,,,,,,,,,,,,,,,,,,,,,,,,,,,,,,,,,,,,,,,,,,,,,,,,,,,,,,,,,,,,,
,,14,8,${e://Field/PROLIFIC_PID,F,18,2023-11-03_17h56.08.700,MouseEye_CC,2023.2.2,Win32,60.0240096,1.28,,,1024,640,64.537,3.79,"125.67, 123.81, 137.18, 144.89, 133.92, 127.67, 145.56",740.93,11.26497525,42.69425621,27.83653633,Passed,143.0257583,,,,,,,,,,,,,,,,,,,,,practice,0,11,180,right,s,,,,,474.834,476.003,35.84,-1,1,1,0,0,1.168,fixationPoint,476.003,476.109,476.109,479.137,35.84,10240,616.96,s,1,3.008,,479.138,479.33,0,10,10,10,1,4,sparse,80,218,-129,62,223,159,121,110,129,-218,159,-223,206,-75,173,-169,-116,-118,-217,-125,-167,217,-164,169,-75,360,270,360,180,360,180,180,270,360,180,90,,,,,,,,,,,,,,,,,,,,,,,,,,,,,,,,,,,,,,,,,,,,,,,,,,,,,,,,,,,,,,,,,,,,,
,,14,8,${e://Field/PROLIFIC_PID,F,18,2023-11-03_17h56.08.700,MouseEye_CC,2023.2.2,Win32,60.0240096,1.28,,,1024,640,64.537,3.79,"125.67, 123.81, 137.18, 144.89, 133.92, 127.67, 145.56",740.93,11.26497525,42.69425621,27.83653633,Passed,143.0257583,,,,,,,,,,,,,,,,,,,,,practice,0,12,0,left,a,,,,,479.334,480.185,35.84,-1,1,1,0,0,0.851,fixationPoint,480.185,480.279,480.28,481.935,35.84,10240,616.96,a,1,1.635,,481.935,482.129,0,11,11,11,1,3,sparse,75,-25,-117,110,129,125,63,214,216,-164,32,-27,117,-126,125,171,-218,126,-113,167,-163,-21,-224,-212,-21,270,180,180,360,180,270,360,270,360,180,270,,,,,,,,,,,,,,,,,,,,,,,,,,,,,,,,,,,,,,,,,,,,,,,,,,,,,,,,,,,,,,,,,,,,,
,,14,8,${e://Field/PROLIFIC_PID,F,18,2023-11-03_17h56.08.700,MouseEye_CC,2023.2.2,Win32,60.0240096,1.28,,,1024,640,64.537,3.79,"125.67, 123.81, 137.18, 144.89, 133.92, 127.67, 145.56",740.93,11.26497525,42.69425621,27.83653633,Passed,143.0257583,,,,,,,,,,,,,,,,,,,,,,,,,,,,,,,,,,,,,,,,,,,,,,,,,,,,,,,,,,,,,,,,,,,,,,,,,,,,,,,,,,,,,,,,,,,,,,,,,482.13,491.548,a,1,9.361,,,,,,,,,,,,,,,,,,,,,,,,,,,,,,,,,,,,,,,,,,,,,,,,,,,,,,,,,,,,,,,,
,,14,8,${e://Field/PROLIFIC_PID,F,18,2023-11-03_17h56.08.700,MouseEye_CC,2023.2.2,Win32,60.0240096,1.28,,,1024,640,64.537,3.79,"125.67, 123.81, 137.18, 144.89, 133.92, 127.67, 145.56",740.93,11.26497525,42.69425621,27.83653633,Passed,143.0257583,,,,,,,,,,,,,,,,,,,,,,,,,,,,,,,,,,,,,,,,,,,,,,,,,,,,,,,,,,,,,,,,,,,,,,,,,,,,,,,,,,,,,,,,,,,,,,,,,,,,,,,491.549,494.663,,,,,,,,,,,,,,,,,,,,,,,,,,,,,,,,,,,,,,,,,,,,,,,,,,,,,,,,,,,,,
,,14,8,${e://Field/PROLIFIC_PID,F,18,2023-11-03_17h56.08.700,MouseEye_CC,2023.2.2,Win32,60.0240096,1.28,,,1024,640,64.537,3.79,"125.67, 123.81, 137.18, 144.89, 133.92, 127.67, 145.56",740.93,11.26497525,42.69425621,27.83653633,Passed,143.0257583,,,,,,,,,,,,,,,,,,,,,,,,,,,,,,,,,,,,,,,,,,,,,,,,,,,,,,,,,,,,,,,,,,,,,,,,,,,,,,,,,,,,,,,,,,,,,,,,,,,,,,,,,494.664,590.813,,,,,,,,,,,,,,,,,,,,,,,,,,,,,,,,,,,,,,,,,,,,,,,,,,,,,,,,,,,
,,14,8,${e://Field/PROLIFIC_PID,F,18,2023-11-03_17h56.08.700,MouseEye_CC,2023.2.2,Win32,60.0240096,1.28,,,1024,640,64.537,3.79,"125.67, 123.81, 137.18, 144.89, 133.92, 127.67, 145.56",740.93,11.26497525,42.69425621,27.83653633,Passed,143.0257583,,,,,,,,,,,,,,,,,,,,,training,1,1,180,right,s,,,,,591.383,592.829,35.84,8,2,1,0,0,1.444,fixationPoint,592.829,592.919,592.92,596.71,35.84,10240,616.96,s,1,3.73,,596.71,596.905,,,,,,,,19,160,161,-216,64,-221,169,-174,217,-126,-216,-213,-74,-116,-125,123,-220,216,-224,73,-20,112,64,80,220,270,90,360,90,270,360,180,360,360,90,90,,,,,,,,,,,596.906,596.926,,0,0,0,0,1,13,novel,,,,,,,,,,,,,,,,,,,,,,,,,,,,,,,,,,,,,,,,,,,,,,,,,
,,14,8,${e://Field/PROLIFIC_PID,F,18,2023-11-03_17h56.08.700,MouseEye_CC,2023.2.2,Win32,60.0240096,1.28,,,1024,640,64.537,3.79,"125.67, 123.81, 137.18, 144.89, 133.92, 127.67, 145.56",740.93,11.26497525,42.69425621,27.83653633,Passed,143.0257583,,,,,,,,,,,,,,,,,,,,,training,1,2,0,left,a,,,,,596.929,598.31,35.84,1,1,1,0,0,1.381,fixationPoint,598.311,598.417,598.418,599.973,35.84,10240,616.96,a,1,1.52,,599.974,600.17,,,,,,,,31,-216,64,222,113,160,161,208,211,-126,-164,-16,-26,-213,-74,28,-24,72,-166,165,-19,-120,120,-172,170,360,180,90,90,180,180,180,360,90,270,180,,,,,,,,,,,600.17,600.173,,0,1,1,1,1,15,novel,,,,,,,,,,,,,,,,,,,,,,,,,,,,,,,,,,,,,,,,,,,,,,,,,
,,14,8,${e://Field/PROLIFIC_PID,F,18,2023-11-03_17h56.08.700,MouseEye_CC,2023.2.2,Win32,60.0240096,1.28,,,1024,640,64.537,3.79,"125.67, 123.81, 137.18, 144.89, 133.92, 127.67, 145.56",740.93,11.26497525,42.69425621,27.83653633,Passed,143.0257583,,,,,,,,,,,,,,,,,,,,,training,1,3,180,right,s,,,,,600.181,601.009,35.84,6,12,1,0,0,0.826,fixationPoint,601.009,601.105,601.105,602.441,35.84,10240,616.96,s,1,1.314,,602.441,602.636,,,,,,,,32,-166,79,208,211,112,64,124,172,-124,-69,-170,-68,-126,-164,209,-18,208,-126,164,-211,-218,124,-174,23,90,360,270,360,90,270,90,360,360,90,270,,,,,,,,,,,602.636,602.638,,0,2,2,2,1,16,novel,,,,,,,,,,,,,,,,,,,,,,,,,,,,,,,,,,,,,,,,,,,,,,,,,
,,14,8,${e://Field/PROLIFIC_PID,F,18,2023-11-03_17h56.08.700,MouseEye_CC,2023.2.2,Win32,60.0240096,1.28,,,1024,640,64.537,3.79,"125.67, 123.81, 137.18, 144.89, 133.92, 127.67, 145.56",740.93,11.26497525,42.69425621,27.83653633,Passed,143.0257583,,,,,,,,,,,,,,,,,,,,,training,1,4,180,right,s,,,,,602.641,603.709,35.84,2,3,1,0,0,1.067,fixationPoint,603.709,603.802,603.802,606.258,35.84,10240,616.96,s,1,2.433,,606.258,606.452,,,,,,,,30,222,113,-21,120,-29,210,-213,222,-214,-170,-126,-216,-223,-31,123,-220,28,-64,119,-172,164,219,20,27,90,270,90,270,360,180,180,90,180,90,360,,,,,,,,,,,606.452,606.454,,0,3,3,3,1,14,novel,,,,,,,,,,,,,,,,,,,,,,,,,,,,,,,,,,,,,,,,,,,,,,,,,
,,14,8,${e://Field/PROLIFIC_PID,F,18,2023-11-03_17h56.08.700,MouseEye_CC,2023.2.2,Win32,60.0240096,1.28,,,1024,640,64.537,3.79,"125.67, 123.81, 137.18, 144.89, 133.92, 127.67, 145.56",740.93,11.26497525,42.69425621,27.83653633,Passed,143.0257583,,,,,,,,,,,,,,,,,,,,,training,1,5,0,left,a,,,,,606.457,607.306,35.84,-6,7,1,0,0,0.849,fixationPoint,607.307,607.402,607.402,609.771,35.84,10240,616.96,a,1,2.35,,609.771,609.967,,,,,,,,40,209,72,-221,169,-116,74,-29,210,-218,-127,-70,-117,-173,-114,209,-18,224,-75,28,-64,112,64,160,161,270,180,270,180,90,180,360,180,180,90,180,,,,,,,,,,,609.968,609.97,,0,4,4,4,1,2,repeated,,,,,,,,,,,,,,,,,,,,,,,,,,,,,,,,,,,,,,,,,,,,,,,,,
,,14,8,${e://Field/PROLIFIC_PID,F,18,2023-11-03_17h56.08.700,MouseEye_CC,2023.2.2,Win32,60.0240096,1.28,,,1024,640,64.537,3.79,"125.67, 123.81, 137.18, 144.89, 133.92, 127.67, 145.56",740.93,11.26497525,42.69425621,27.83653633,Passed,143.0257583,,,,,,,,,,,,,,,,,,,,,training,1,6,180,right,s,,,,,609.972,610.876,35.84,-3,4,1,0,0,0.904,fixationPoint,610.876,610.972,610.972,615.633,35.84,10240,616.96,s,1,4.642,,615.634,615.833,,,,,,,,71,-218,-127,208,211,124,172,125,118,-176,122,-224,32,-216,64,28,-221,215,-168,28,-24,-80,-23,-223,-31,360,360,270,180,180,90,270,180,270,360,360,,,,,,,,,,,615.833,615.836,,0,5,5,5,1,6,repeated,,,,,,,,,,,,,,,,,,,,,,,,,,,,,,,,,,,,,,,,,,,,,,,,,
,,14,8,${e://Field/PROLIFIC_PID,F,18,2023-11-03_17h56.08.700,MouseEye_CC,2023.2.2,Win32,60.0240096,1.28,,,1024,640,64.537,3.79,"125.67, 123.81, 137.18, 144.89, 133.92, 127.67, 145.56",740.93,11.26497525,42.69425621,27.83653633,Passed,143.0257583,,,,,,,,,,,,,,,,,,,,,training,1,7,0,left,a,,,,,615.837,616.771,35.84,1,2,1,0,0,0.933,fixationPoint,616.771,616.866,616.866,619.487,35.84,10240,616.96,a,1,2.6,,619.487,619.682,,,,,,,,97,69,-220,20,27,164,219,222,113,-176,122,-116,74,-174,23,-124,-69,-223,-31,-216,-215,165,-19,224,-75,90,180,360,270,360,270,270,90,90,360,360,,,,,,,,,,,619.682,619.684,,0,6,6,6,1,11,novel,,,,,,,,,,,,,,,,,,,,,,,,,,,,,,,,,,,,,,,,,,,,,,,,,
,,14,8,${e://Field/PROLIFIC_PID,F,18,2023-11-03_17h56.08.700,MouseEye_CC,2023.2.2,Win32,60.0240096,1.28,,,1024,640,64.537,3.79,"125.67, 123.81, 137.18, 144.89, 133.92, 127.67, 145.56",740.93,11.26497525,42.69425621,27.83653633,Passed,143.0257583,,,,,,,,,,,,,,,,,,,,,training,1,8,0,left,a,,,,,619.687,620.553,35.84,5,0,1,0,0,0.865,fixationPoint,620.553,620.648,620.649,621.752,35.84,10240,616.96,a,1,1.083,,621.752,621.954,,,,,,,,84,-73,-165,213,32,126,29,125,118,-174,23,-216,64,-119,213,28,-221,165,-19,209,-18,-168,-174,-70,-117,180,270,270,180,180,90,90,360,360,270,180,,,,,,,,,,,621.954,621.956,,0,7,7,7,1,9,novel,,,,,,,,,,,,,,,,,,,,,,,,,,,,,,,,,,,,,,,,,,,,,,,,,
,,14,8,${e://Field/PROLIFIC_PID,F,18,2023-11-03_17h56.08.700,MouseEye_CC,2023.2.2,Win32,60.0240096,1.28,,,1024,640,64.537,3.79,"125.67, 123.81, 137.18, 144.89, 133.92, 127.67, 145.56",740.93,11.26497525,42.69425621,27.83653633,Passed,143.0257583,,,,,,,,,,,,,,,,,,,,,training,1,9,0,left,a,,,,,621.957,622.703,35.84,4,-3,1,0,0,0.746,fixationPoint,622.703,622.798,622.799,624.518,35.84,10240,616.96,a,1,1.7,,624.519,624.715,,,,,,,,69,173,-77,78,67,80,220,167,124,-65,77,-166,79,-174,23,-70,-117,-213,-74,-32,-124,69,-124,216,-224,270,360,270,90,180,90,270,180,270,270,270,,,,,,,,,,,624.715,624.716,,0,8,8,8,1,8,repeated,,,,,,,,,,,,,,,,,,,,,,,,,,,,,,,,,,,,,,,,,,,,,,,,,
,,14,8,${e://Field/PROLIFIC_PID,F,18,2023-11-03_17h56.08.700,MouseEye_CC,2023.2.2,Win32,60.0240096,1.28,,,1024,640,64.537,3.79,"125.67, 123.81, 137.18, 144.89, 133.92, 127.67, 145.56",740.93,11.26497525,42.69425621,27.83653633,Passed,143.0257583,,,,,,,,,,,,,,,,,,,,,training,1,10,0,left,a,,,,,624.718,625.653,35.84,5,-3,1,0,0,0.935,fixationPoint,625.653,625.748,625.748,628.516,35.84,10240,616.96,a,1,2.748,,628.516,628.713,,,,,,,,61,-213,-74,80,220,208,211,164,219,-213,222,-221,169,-172,170,69,-124,119,-172,79,-76,-17,-222,-80,-23,270,360,360,180,180,90,180,270,90,270,360,,,,,,,,,,,628.713,628.716,,0,9,9,9,1,10,novel,,,,,,,,,,,,,,,,,,,,,,,,,,,,,,,,,,,,,,,,,,,,,,,,,
,,14,8,${e://Field/PROLIFIC_PID,F,18,2023-11-03_17h56.08.700,MouseEye_CC,2023.2.2,Win32,60.0240096,1.28,,,1024,640,64.537,3.79,"125.67, 123.81, 137.18, 144.89, 133.92, 127.67, 145.56",740.93,11.26497525,42.69425621,27.83653633,Passed,143.0257583,,,,,,,,,,,,,,,,,,,,,training,1,11,180,right,s,,,,,628.717,629.668,35.84,2,2,1,0,0,0.95,fixationPoint,629.668,629.768,629.769,631.534,35.84,10240,616.96,s,1,1.742,,631.534,631.73,,,,,,,,82,-168,-174,176,69,167,124,78,67,-176,122,-218,124,-21,120,224,-75,165,-19,28,-221,-216,-215,-32,-124,360,360,180,90,360,180,180,270,270,360,360,,,,,,,,,,,631.73,631.731,,0,10,10,10,1,5,repeated,,,,,,,,,,,,,,,,,,,,,,,,,,,,,,,,,,,,,,,,,,,,,,,,,
,,14,8,${e://Field/PROLIFIC_PID,F,18,2023-11-03_17h56.08.700,MouseEye_CC,2023.2.2,Win32,60.0240096,1.28,,,1024,640,64.537,3.79,"125.67, 123.81, 137.18, 144.89, 133.92, 127.67, 145.56",740.93,11.26497525,42.69425621,27.83653633,Passed,143.0257583,,,,,,,,,,,,,,,,,,,,,training,1,12,180,right,s,,,,,631.738,633.149,35.84,-2,2,1,0,0,1.41,fixationPoint,633.149,633.246,633.246,635.705,35.84,10240,616.96,s,1,2.439,,635.706,635.896,,,,,,,,17,76,165,-216,64,-116,160,-218,124,-68,-209,-114,-32,-170,-68,209,-18,173,-77,119,-172,176,69,160,161,360,90,90,180,360,180,360,360,90,180,180,,,,,,,,,,,635.897,635.899,,0,11,11,11,1,1,repeated,,,,,,,,,,,,,,,,,,,,,,,,,,,,,,,,,,,,,,,,,,,,,,,,,
,,14,8,${e://Field/PROLIFIC_PID,F,18,2023-11-03_17h56.08.700,MouseEye_CC,2023.2.2,Win32,60.0240096,1.28,,,1024,640,64.537,3.79,"125.67, 123.81, 137.18, 144.89, 133.92, 127.67, 145.56",740.93,11.26497525,42.69425621,27.83653633,Passed,143.0257583,,,,,,,,,,,,,,,,,,,,,training,1,13,0,left,a,,,,,635.906,636.851,35.84,-6,-6,1,0,0,0.943,fixationPoint,636.851,636.946,636.948,639.766,35.84,10240,616.96,a,1,2.79,,639.766,639.961,,,,,,,,60,209,-18,20,72,25,112,112,64,-116,160,-218,124,-128,16,-213,-74,-30,-161,-126,-164,216,-224,112,-32,90,90,90,180,270,270,180,180,180,90,270,,,,,,,,,,,639.961,639.964,,0,12,12,12,1,12,novel,,,,,,,,,,,,,,,,,,,,,,,,,,,,,,,,,,,,,,,,,,,,,,,,,
,,14,8,${e://Field/PROLIFIC_PID,F,18,2023-11-03_17h56.08.700,MouseEye_CC,2023.2.2,Win32,60.0240096,1.28,,,1024,640,64.537,3.79,"125.67, 123.81, 137.18, 144.89, 133.92, 127.67, 145.56",740.93,11.26497525,42.69425621,27.83653633,Passed,143.0257583,,,,,,,,,,,,,,,,,,,,,training,1,14,0,left,a,,,,,639.967,640.979,35.84,3,4,1,0,0,1.012,fixationPoint,640.98,641.077,641.077,645.047,35.84,10240,616.96,a,1,3.952,,645.047,645.243,,,,,,,,41,-224,32,160,161,30,166,125,118,-173,-114,-126,-164,-16,-26,119,-172,28,-221,112,-32,-174,23,-213,222,270,360,180,360,270,360,360,180,270,270,360,,,,,,,,,,,645.243,645.246,,0,13,13,13,1,4,repeated,,,,,,,,,,,,,,,,,,,,,,,,,,,,,,,,,,,,,,,,,,,,,,,,,
,,14,8,${e://Field/PROLIFIC_PID,F,18,2023-11-03_17h56.08.700,MouseEye_CC,2023.2.2,Win32,60.0240096,1.28,,,1024,640,64.537,3.79,"125.67, 123.81, 137.18, 144.89, 133.92, 127.67, 145.56",740.93,11.26497525,42.69425621,27.83653633,Passed,143.0257583,,,,,,,,,,,,,,,,,,,,,training,1,15,180,right,s,,,,,645.248,646.166,35.84,1,7,1,0,0,0.916,fixationPoint,646.167,646.259,646.259,649.13,35.84,10240,616.96,s,1,2.853,,649.13,649.326,,,,,,,,4,-72,224,112,64,222,113,30,166,-126,-164,-170,-68,-80,-23,20,-161,121,-70,79,-76,-176,122,-77,162,90,180,180,90,180,270,360,360,360,270,360,,,,,,,,,,,649.327,649.327,,0,14,14,14,1,3,repeated,,,,,,,,,,,,,,,,,,,,,,,,,,,,,,,,,,,,,,,,,,,,,,,,,
,,14,8,${e://Field/PROLIFIC_PID,F,18,2023-11-03_17h56.08.700,MouseEye_CC,2023.2.2,Win32,60.0240096,1.28,,,1024,640,64.537,3.79,"125.67, 123.81, 137.18, 144.89, 133.92, 127.67, 145.56",740.93,11.26497525,42.69425621,27.83653633,Passed,143.0257583,,,,,,,,,,,,,,,,,,,,,training,1,16,180,right,s,,,,,649.33,650.952,35.84,1,2,1,0,0,1.621,fixationPoint,650.952,651.058,651.059,653.908,35.84,10240,616.96,s,1,2.817,,653.909,654.108,,,,,,,,70,224,-75,112,64,213,32,20,27,-224,32,-31,169,-119,213,-173,-216,-126,-216,-116,-125,69,-124,165,-19,360,360,360,90,180,180,90,180,270,90,90,,,,,,,,,,,654.108,666.577,space,0,15,15,15,1,7,repeated,12.401,,,,,,,,,,,,,,,,,,,,,,,,,,,,,,,,,,,,,,,,,,,,,,,,
,,14,8,${e://Field/PROLIFIC_PID,F,18,2023-11-03_17h56.08.700,MouseEye_CC,2023.2.2,Win32,60.0240096,1.28,,,1024,640,64.537,3.79,"125.67, 123.81, 137.18, 144.89, 133.92, 127.67, 145.56",740.93,11.26497525,42.69425621,27.83653633,Passed,143.0257583,,,,,,,,,,,,,,,,,,,,,training,2,1,0,left,a,,,,,666.581,667.431,35.84,2,-9,1,0,0,0.85,fixationPoint,667.431,667.534,667.534,671.018,35.84,10240,616.96,a,1,3.459,,671.019,671.221,,,,,,,,71,-218,-127,208,211,124,172,125,118,-176,122,-224,32,-216,64,28,-221,215,-168,28,-24,-80,-23,-223,-31,180,360,90,180,360,360,90,90,270,360,90,,,,,,,,,,,671.221,671.24,,0,16,16,16,1,6,repeated,,,,,,,,,,,,,,,,,,,,,,,,,,,,,,,,,,,,,,,,,,,,,,,,,
,,14,8,${e://Field/PROLIFIC_PID,F,18,2023-11-03_17h56.08.700,MouseEye_CC,2023.2.2,Win32,60.0240096,1.28,,,1024,640,64.537,3.79,"125.67, 123.81, 137.18, 144.89, 133.92, 127.67, 145.56",740.93,11.26497525,42.69425621,27.83653633,Passed,143.0257583,,,,,,,,,,,,,,,,,,,,,training,2,2,180,right,s,,,,,671.247,672.128,35.84,-2,2,1,0,0,0.88,fixationPoint,672.129,672.221,672.222,676.249,35.84,10240,616.96,s,1,3.997,,676.249,676.442,,,,,,,,41,-224,32,160,161,30,166,125,118,-173,-114,-126,-164,-16,-26,119,-172,28,-221,112,-32,-174,23,-213,222,270,360,90,90,90,360,360,270,270,360,270,,,,,,,,,,,676.442,676.444,,0,17,17,17,1,4,repeated,,,,,,,,,,,,,,,,,,,,,,,,,,,,,,,,,,,,,,,,,,,,,,,,,
,,14,8,${e://Field/PROLIFIC_PID,F,18,2023-11-03_17h56.08.700,MouseEye_CC,2023.2.2,Win32,60.0240096,1.28,,,1024,640,64.537,3.79,"125.67, 123.81, 137.18, 144.89, 133.92, 127.67, 145.56",740.93,11.26497525,42.69425621,27.83653633,Passed,143.0257583,,,,,,,,,,,,,,,,,,,,,training,2,3,0,left,a,,,,,676.447,677.391,35.84,-2,2,1,0,0,0.944,fixationPoint,677.391,677.486,677.487,680.14,35.84,10240,616.96,a,1,2.634,,680.14,680.336,,,,,,,,31,-216,64,74,116,222,113,24,212,-173,-114,-168,-174,-17,-222,117,-124,165,-19,27,-120,-67,126,-119,213,180,360,270,360,90,270,90,360,90,90,270,,,,,,,,,,,680.337,680.339,,0,18,18,18,1,15,novel,,,,,,,,,,,,,,,,,,,,,,,,,,,,,,,,,,,,,,,,,,,,,,,,,
,,14,8,${e://Field/PROLIFIC_PID,F,18,2023-11-03_17h56.08.700,MouseEye_CC,2023.2.2,Win32,60.0240096,1.28,,,1024,640,64.537,3.79,"125.67, 123.81, 137.18, 144.89, 133.92, 127.67, 145.56",740.93,11.26497525,42.69425621,27.83653633,Passed,143.0257583,,,,,,,,,,,,,,,,,,,,,training,2,4,0,left,a,,,,,680.341,681.284,35.84,-2,4,1,0,0,0.942,fixationPoint,681.284,681.369,681.369,682.931,35.84,10240,616.96,a,1,1.537,,682.931,683.136,,,,,,,,84,-73,-165,125,118,74,23,80,220,-31,169,-116,74,-176,122,224,-75,117,-124,69,-220,-26,-66,-116,-125,270,180,90,90,270,90,270,270,360,90,180,,,,,,,,,,,683.136,683.138,,0,19,19,19,1,9,novel,,,,,,,,,,,,,,,,,,,,,,,,,,,,,,,,,,,,,,,,,,,,,,,,,
,,14,8,${e://Field/PROLIFIC_PID,F,18,2023-11-03_17h56.08.700,MouseEye_CC,2023.2.2,Win32,60.0240096,1.28,,,1024,640,64.537,3.79,"125.67, 123.81, 137.18, 144.89, 133.92, 127.67, 145.56",740.93,11.26497525,42.69425621,27.83653633,Passed,143.0257583,,,,,,,,,,,,,,,,,,,,,training,2,5,0,left,a,,,,,683.14,684.338,35.84,3,-8,1,0,0,1.197,fixationPoint,684.339,684.435,684.435,688.94,35.84,10240,616.96,a,1,4.486,,688.94,689.134,,,,,,,,32,-166,79,208,211,74,116,78,67,-68,-209,-116,-125,-213,-74,112,-32,168,-121,117,-124,-213,222,-119,213,90,90,180,180,180,90,360,90,180,360,180,,,,,,,,,,,689.134,689.135,,0,20,20,20,1,16,novel,,,,,,,,,,,,,,,,,,,,,,,,,,,,,,,,,,,,,,,,,,,,,,,,,
,,14,8,${e://Field/PROLIFIC_PID,F,18,2023-11-03_17h56.08.700,MouseEye_CC,2023.2.2,Win32,60.0240096,1.28,,,1024,640,64.537,3.79,"125.67, 123.81, 137.18, 144.89, 133.92, 127.67, 145.56",740.93,11.26497525,42.69425621,27.83653633,Passed,143.0257583,,,,,,,,,,,,,,,,,,,,,training,2,6,0,left,a,,,,,689.137,690.338,35.84,-2,5,1,0,0,1.201,fixationPoint,690.338,690.434,690.434,693.74,35.84,10240,616.96,a,1,3.287,,693.74,693.939,,,,,,,,60,209,-18,209,72,124,172,208,211,-28,79,-213,222,-116,74,-68,-209,-170,-32,-214,-170,73,-20,175,-168,180,180,270,90,270,270,270,360,360,360,180,,,,,,,,,,,693.939,693.94,,0,21,21,21,1,12,novel,,,,,,,,,,,,,,,,,,,,,,,,,,,,,,,,,,,,,,,,,,,,,,,,,
,,14,8,${e://Field/PROLIFIC_PID,F,18,2023-11-03_17h56.08.700,MouseEye_CC,2023.2.2,Win32,60.0240096,1.28,,,1024,640,64.537,3.79,"125.67, 123.81, 137.18, 144.89, 133.92, 127.67, 145.56",740.93,11.26497525,42.69425621,27.83653633,Passed,143.0257583,,,,,,,,,,,,,,,,,,,,,training,2,7,180,right,s,,,,,693.942,695.571,35.84,-1,2,1,0,0,1.629,fixationPoint,695.571,695.673,695.673,697.941,35.84,10240,616.96,s,1,2.246,,697.941,698.132,,,,,,,,82,-168,-174,176,69,167,124,78,67,-176,122,-218,124,-21,120,224,-75,165,-19,28,-221,-216,-215,-32,-124,180,180,270,270,270,180,360,180,90,180,270,,,,,,,,,,,698.132,698.133,,0,22,22,22,1,5,repeated,,,,,,,,,,,,,,,,,,,,,,,,,,,,,,,,,,,,,,,,,,,,,,,,,
,,14,8,${e://Field/PROLIFIC_PID,F,18,2023-11-03_17h56.08.700,MouseEye_CC,2023.2.2,Win32,60.0240096,1.28,,,1024,640,64.537,3.79,"125.67, 123.81, 137.18, 144.89, 133.92, 127.67, 145.56",740.93,11.26497525,42.69425621,27.83653633,Passed,143.0257583,,,,,,,,,,,,,,,,,,,,,training,2,8,0,left,a,,,,,698.141,701.541,35.84,-2,3,1,0,0,3.397,fixationPoint,701.542,701.636,701.637,705.721,35.84,10240,616.96,a,1,4.055,,705.722,705.914,,,,,,,,4,-72,224,112,64,222,113,30,166,-126,-164,-170,-68,-80,-23,20,-161,121,-70,79,-76,-176,122,-77,162,360,90,90,90,180,360,90,270,90,180,360,,,,,,,,,,,705.914,705.918,,0,23,23,23,1,3,repeated,,,,,,,,,,,,,,,,,,,,,,,,,,,,,,,,,,,,,,,,,,,,,,,,,
,,14,8,${e://Field/PROLIFIC_PID,F,18,2023-11-03_17h56.08.700,MouseEye_CC,2023.2.2,Win32,60.0240096,1.28,,,1024,640,64.537,3.79,"125.67, 123.81, 137.18, 144.89, 133.92, 127.67, 145.56",740.93,11.26497525,42.69425621,27.83653633,Passed,143.0257583,,,,,,,,,,,,,,,,,,,,,training,2,9,180,right,s,,,,,705.925,707.152,35.84,5,15,1,0,0,1.226,fixationPoint,707.153,707.247,707.248,709.483,35.84,10240,616.96,s,1,2.208,,709.483,709.68,,,,,,,,17,76,165,-216,64,-116,160,-218,124,-68,-209,-114,-32,-170,-68,209,-18,173,-77,119,-172,176,69,160,161,360,90,90,180,270,90,90,180,90,180,90,,,,,,,,,,,709.68,709.682,,0,24,24,24,1,1,repeated,,,,,,,,,,,,,,,,,,,,,,,,,,,,,,,,,,,,,,,,,,,,,,,,,
,,14,8,${e://Field/PROLIFIC_PID,F,18,2023-11-03_17h56.08.700,MouseEye_CC,2023.2.2,Win32,60.0240096,1.28,,,1024,640,64.537,3.79,"125.67, 123.81, 137.18, 144.89, 133.92, 127.67, 145.56",740.93,11.26497525,42.69425621,27.83653633,Passed,143.0257583,,,,,,,,,,,,,,,,,,,,,training,2,10,180,right,s,,,,,709.684,710.783,35.84,-4,0,1,0,0,1.098,fixationPoint,710.784,710.879,710.879,712.782,35.84,10240,616.96,s,1,1.871,,712.783,712.979,,,,,,,,40,209,72,-221,169,-116,74,-29,210,-218,-127,-70,-117,-173,-114,209,-18,224,-75,28,-64,112,64,160,161,270,180,90,360,270,90,360,90,90,360,270,,,,,,,,,,,712.979,712.981,,0,25,25,25,1,2,repeated,,,,,,,,,,,,,,,,,,,,,,,,,,,,,,,,,,,,,,,,,,,,,,,,,
,,14,8,${e://Field/PROLIFIC_PID,F,18,2023-11-03_17h56.08.700,MouseEye_CC,2023.2.2,Win32,60.0240096,1.28,,,1024,640,64.537,3.79,"125.67, 123.81, 137.18, 144.89, 133.92, 127.67, 145.56",740.93,11.26497525,42.69425621,27.83653633,Passed,143.0257583,,,,,,,,,,,,,,,,,,,,,training,2,11,180,right,s,,,,,712.983,713.968,35.84,-3,1,1,0,0,0.984,fixationPoint,713.968,714.062,714.062,716.664,35.84,10240,616.96,s,1,2.583,,716.665,716.861,,,,,,,,97,69,-220,208,211,74,116,24,212,-128,16,-218,124,-120,120,-173,-216,-30,-161,-126,-216,79,-76,119,-172,270,360,180,360,90,270,360,270,270,180,270,,,,,,,,,,,716.861,716.863,,0,26,26,26,1,11,novel,,,,,,,,,,,,,,,,,,,,,,,,,,,,,,,,,,,,,,,,,,,,,,,,,
,,14,8,${e://Field/PROLIFIC_PID,F,18,2023-11-03_17h56.08.700,MouseEye_CC,2023.2.2,Win32,60.0240096,1.28,,,1024,640,64.537,3.79,"125.67, 123.81, 137.18, 144.89, 133.92, 127.67, 145.56",740.93,11.26497525,42.69425621,27.83653633,Passed,143.0257583,,,,,,,,,,,,,,,,,,,,,training,2,12,0,left,a,,,,,716.866,717.982,35.84,2,-3,1,0,0,1.116,fixationPoint,717.983,718.079,718.079,719.514,35.84,10240,616.96,a,1,1.418,,719.514,719.71,,,,,,,,61,-213,-74,30,166,124,172,175,28,-116,74,-29,210,-120,120,208,-126,224,-75,216,-224,-214,-170,-216,-215,270,270,360,360,270,180,360,360,270,90,90,,,,,,,,,,,719.71,719.712,,0,27,27,27,1,10,novel,,,,,,,,,,,,,,,,,,,,,,,,,,,,,,,,,,,,,,,,,,,,,,,,,
,,14,8,${e://Field/PROLIFIC_PID,F,18,2023-11-03_17h56.08.700,MouseEye_CC,2023.2.2,Win32,60.0240096,1.28,,,1024,640,64.537,3.79,"125.67, 123.81, 137.18, 144.89, 133.92, 127.67, 145.56",740.93,11.26497525,42.69425621,27.83653633,Passed,143.0257583,,,,,,,,,,,,,,,,,,,,,training,2,13,0,left,a,,,,,719.714,720.615,35.84,-2,2,1,0,0,0.901,fixationPoint,720.615,720.71,720.71,723.193,35.84,10240,616.96,a,1,2.453,,723.194,723.393,,,,,,,,69,173,-77,78,67,80,220,167,124,-65,77,-166,79,-174,23,-70,-117,-213,-74,-32,-124,69,-124,216,-224,270,180,180,360,90,270,270,180,180,360,90,,,,,,,,,,,723.393,723.395,,0,28,28,28,1,8,repeated,,,,,,,,,,,,,,,,,,,,,,,,,,,,,,,,,,,,,,,,,,,,,,,,,
,,14,8,${e://Field/PROLIFIC_PID,F,18,2023-11-03_17h56.08.700,MouseEye_CC,2023.2.2,Win32,60.0240096,1.28,,,1024,640,64.537,3.79,"125.67, 123.81, 137.18, 144.89, 133.92, 127.67, 145.56",740.93,11.26497525,42.69425621,27.83653633,Passed,143.0257583,,,,,,,,,,,,,,,,,,,,,training,2,14,180,right,s,,,,,723.397,724.39,35.84,-4,2,1,0,0,0.992,fixationPoint,724.39,724.492,724.492,726.726,35.84,10240,616.96,s,1,2.209,,726.726,726.926,,,,,,,,30,222,113,-174,23,-166,79,-29,210,-218,-127,-116,-125,-126,-164,216,-224,72,-166,175,-168,209,167,25,112,90,180,360,90,90,270,270,90,180,360,90,,,,,,,,,,,726.926,726.928,,0,29,29,29,1,14,novel,,,,,,,,,,,,,,,,,,,,,,,,,,,,,,,,,,,,,,,,,,,,,,,,,
,,14,8,${e://Field/PROLIFIC_PID,F,18,2023-11-03_17h56.08.700,MouseEye_CC,2023.2.2,Win32,60.0240096,1.28,,,1024,640,64.537,3.79,"125.67, 123.81, 137.18, 144.89, 133.92, 127.67, 145.56",740.93,11.26497525,42.69425621,27.83653633,Passed,143.0257583,,,,,,,,,,,,,,,,,,,,,training,2,15,180,right,s,,,,,726.93,728.191,35.84,1,-2,1,0,0,1.26,fixationPoint,728.191,728.283,728.283,732.63,35.84,10240,616.96,s,1,4.323,,732.63,732.824,,,,,,,,70,224,-75,112,64,213,32,20,27,-224,32,-31,169,-119,213,-173,-216,-126,-216,-116,-125,69,-124,165,-19,180,90,180,360,90,90,90,180,180,90,90,,,,,,,,,,,732.825,732.826,,0,30,30,30,1,7,repeated,,,,,,,,,,,,,,,,,,,,,,,,,,,,,,,,,,,,,,,,,,,,,,,,,
,,14,8,${e://Field/PROLIFIC_PID,F,18,2023-11-03_17h56.08.700,MouseEye_CC,2023.2.2,Win32,60.0240096,1.28,,,1024,640,64.537,3.79,"125.67, 123.81, 137.18, 144.89, 133.92, 127.67, 145.56",740.93,11.26497525,42.69425621,27.83653633,Passed,143.0257583,,,,,,,,,,,,,,,,,,,,,training,2,16,180,right,s,,,,,732.83,733.746,35.84,6,5,1,0,0,0.915,fixationPoint,733.746,733.841,733.841,736.032,35.84,10240,616.96,s,1,2.168,,736.033,736.232,,,,,,,,19,160,161,-116,160,-213,222,-31,169,-213,-74,-173,-114,-73,-165,165,-19,72,-166,27,-120,176,69,78,67,270,90,360,270,270,360,360,180,180,90,360,,,,,,,,,,,736.232,743.597,space,0,31,31,31,1,13,novel,7.313,,,,,,,,,,,,,,,,,,,,,,,,,,,,,,,,,,,,,,,,,,,,,,,,
,,14,8,${e://Field/PROLIFIC_PID,F,18,2023-11-03_17h56.08.700,MouseEye_CC,2023.2.2,Win32,60.0240096,1.28,,,1024,640,64.537,3.79,"125.67, 123.81, 137.18, 144.89, 133.92, 127.67, 145.56",740.93,11.26497525,42.69425621,27.83653633,Passed,143.0257583,,,,,,,,,,,,,,,,,,,,,training,3,1,180,right,s,,,,,743.603,744.806,35.84,0,-1,1,0,0,1.201,fixationPoint,744.806,744.905,744.907,746.643,35.84,10240,616.96,s,1,1.708,,746.644,746.838,,,,,,,,41,-224,32,160,161,30,166,125,118,-173,-114,-126,-164,-16,-26,119,-172,28,-221,112,-32,-174,23,-213,222,90,90,90,180,360,90,360,360,90,270,270,,,,,,,,,,,746.839,746.85,,0,32,32,32,1,4,repeated,,,,,,,,,,,,,,,,,,,,,,,,,,,,,,,,,,,,,,,,,,,,,,,,,
,,14,8,${e://Field/PROLIFIC_PID,F,18,2023-11-03_17h56.08.700,MouseEye_CC,2023.2.2,Win32,60.0240096,1.28,,,1024,640,64.537,3.79,"125.67, 123.81, 137.18, 144.89, 133.92, 127.67, 145.56",740.93,11.26497525,42.69425621,27.83653633,Passed,143.0257583,,,,,,,,,,,,,,,,,,,,,training,3,2,0,left,a,,,,,746.852,748.326,35.84,6,-1,1,0,0,1.473,fixationPoint,748.326,748.421,748.421,750.773,35.84,10240,616.96,a,1,2.332,,750.774,750.971,,,,,,,,71,-218,-127,208,211,124,172,125,118,-176,122,-224,32,-216,64,28,-221,215,-168,28,-24,-80,-23,-223,-31,180,180,270,360,90,270,270,360,180,270,180,,,,,,,,,,,750.971,750.974,,0,33,33,33,1,6,repeated,,,,,,,,,,,,,,,,,,,,,,,,,,,,,,,,,,,,,,,,,,,,,,,,,
,,14,8,${e://Field/PROLIFIC_PID,F,18,2023-11-03_17h56.08.700,MouseEye_CC,2023.2.2,Win32,60.0240096,1.28,,,1024,640,64.537,3.79,"125.67, 123.81, 137.18, 144.89, 133.92, 127.67, 145.56",740.93,11.26497525,42.69425621,27.83653633,Passed,143.0257583,,,,,,,,,,,,,,,,,,,,,training,3,3,0,left,a,,,,,750.976,752.074,35.84,-2,6,1,0,0,1.097,fixationPoint,752.074,752.171,752.172,753.337,35.84,10240,616.96,a,1,1.133,,753.338,753.537,,,,,,,,30,222,113,-77,162,-67,17,-19,16,-218,-127,-26,-66,-214,-170,79,-76,123,-220,216,-224,112,64,24,212,360,360,180,270,90,90,270,360,90,270,270,,,,,,,,,,,753.537,753.539,,0,34,34,34,1,14,novel,,,,,,,,,,,,,,,,,,,,,,,,,,,,,,,,,,,,,,,,,,,,,,,,,
,,14,8,${e://Field/PROLIFIC_PID,F,18,2023-11-03_17h56.08.700,MouseEye_CC,2023.2.2,Win32,60.0240096,1.28,,,1024,640,64.537,3.79,"125.67, 123.81, 137.18, 144.89, 133.92, 127.67, 145.56",740.93,11.26497525,42.69425621,27.83653633,Passed,143.0257583,,,,,,,,,,,,,,,,,,,,,training,3,4,0,left,a,,,,,753.541,754.858,35.84,-2,5,1,0,0,1.316,fixationPoint,754.858,754.953,754.953,759.405,35.84,10240,616.96,a,1,4.427,,759.405,759.602,,,,,,,,17,76,165,-216,64,-116,160,-218,124,-68,-209,-114,-32,-170,-68,209,-18,173,-77,119,-172,176,69,160,161,270,180,270,270,90,360,360,90,270,360,270,,,,,,,,,,,759.602,759.603,,0,35,35,35,1,1,repeated,,,,,,,,,,,,,,,,,,,,,,,,,,,,,,,,,,,,,,,,,,,,,,,,,
,,14,8,${e://Field/PROLIFIC_PID,F,18,2023-11-03_17h56.08.700,MouseEye_CC,2023.2.2,Win32,60.0240096,1.28,,,1024,640,64.537,3.79,"125.67, 123.81, 137.18, 144.89, 133.92, 127.67, 145.56",740.93,11.26497525,42.69425621,27.83653633,Passed,143.0257583,,,,,,,,,,,,,,,,,,,,,training,3,5,180,right,s,,,,,759.605,760.706,35.84,0,6,1,0,0,1.1,fixationPoint,760.706,760.802,760.802,762.438,35.84,10240,616.96,s,1,1.619,,762.438,762.638,,,,,,,,60,209,-18,25,112,112,64,213,32,-224,32,-67,17,-19,16,-170,-32,-124,-69,-73,-165,216,-224,168,-121,270,90,270,360,90,180,270,180,180,360,270,,,,,,,,,,,762.638,762.639,,0,36,36,36,1,12,novel,,,,,,,,,,,,,,,,,,,,,,,,,,,,,,,,,,,,,,,,,,,,,,,,,
,,14,8,${e://Field/PROLIFIC_PID,F,18,2023-11-03_17h56.08.700,MouseEye_CC,2023.2.2,Win32,60.0240096,1.28,,,1024,640,64.537,3.79,"125.67, 123.81, 137.18, 144.89, 133.92, 127.67, 145.56",740.93,11.26497525,42.69425621,27.83653633,Passed,143.0257583,,,,,,,,,,,,,,,,,,,,,training,3,6,0,left,a,,,,,762.641,764.107,35.84,2,-2,1,0,0,1.464,fixationPoint,764.107,764.204,764.205,767.487,35.84,10240,616.96,a,1,3.266,,767.488,767.684,,,,,,,,61,-213,-74,167,124,209,167,126,29,-67,17,-19,16,-128,16,224,-75,175,-168,216,-224,-68,-209,-170,-68,90,270,90,270,180,270,270,90,270,90,90,,,,,,,,,,,767.684,767.686,,0,37,37,37,1,10,novel,,,,,,,,,,,,,,,,,,,,,,,,,,,,,,,,,,,,,,,,,,,,,,,,,
,,14,8,${e://Field/PROLIFIC_PID,F,18,2023-11-03_17h56.08.700,MouseEye_CC,2023.2.2,Win32,60.0240096,1.28,,,1024,640,64.537,3.79,"125.67, 123.81, 137.18, 144.89, 133.92, 127.67, 145.56",740.93,11.26497525,42.69425621,27.83653633,Passed,143.0257583,,,,,,,,,,,,,,,,,,,,,training,3,7,0,left,a,,,,,767.687,768.723,35.84,2,1,1,0,0,1.034,fixationPoint,768.724,768.818,768.82,770.916,35.84,10240,616.96,a,1,2.07,,770.917,771.116,,,,,,,,69,173,-77,78,67,80,220,167,124,-65,77,-166,79,-174,23,-70,-117,-213,-74,-32,-124,69,-124,216,-224,90,90,360,90,270,270,180,90,90,360,360,,,,,,,,,,,771.117,771.12,,0,38,38,38,1,8,repeated,,,,,,,,,,,,,,,,,,,,,,,,,,,,,,,,,,,,,,,,,,,,,,,,,
,,14,8,${e://Field/PROLIFIC_PID,F,18,2023-11-03_17h56.08.700,MouseEye_CC,2023.2.2,Win32,60.0240096,1.28,,,1024,640,64.537,3.79,"125.67, 123.81, 137.18, 144.89, 133.92, 127.67, 145.56",740.93,11.26497525,42.69425621,27.83653633,Passed,143.0257583,,,,,,,,,,,,,,,,,,,,,training,3,8,0,left,a,,,,,771.127,772.222,35.84,3,-6,1,0,0,1.095,fixationPoint,772.222,772.316,772.316,775.086,35.84,10240,616.96,a,1,2.743,,775.086,775.286,,,,,,,,40,209,72,-221,169,-116,74,-29,210,-218,-127,-70,-117,-173,-114,209,-18,224,-75,28,-64,112,64,160,161,180,360,360,90,180,360,360,90,180,270,90,,,,,,,,,,,775.286,775.287,,0,39,39,39,1,2,repeated,,,,,,,,,,,,,,,,,,,,,,,,,,,,,,,,,,,,,,,,,,,,,,,,,
,,14,8,${e://Field/PROLIFIC_PID,F,18,2023-11-03_17h56.08.700,MouseEye_CC,2023.2.2,Win32,60.0240096,1.28,,,1024,640,64.537,3.79,"125.67, 123.81, 137.18, 144.89, 133.92, 127.67, 145.56",740.93,11.26497525,42.69425621,27.83653633,Passed,143.0257583,,,,,,,,,,,,,,,,,,,,,training,3,9,0,left,a,,,,,775.289,776.104,35.84,-2,-3,1,0,0,0.814,fixationPoint,776.104,776.199,776.199,777.47,35.84,10240,616.96,a,1,1.247,,777.47,777.665,,,,,,,,84,-73,-165,76,165,24,212,20,72,-116,74,-119,213,-221,169,121,-70,28,-64,164,-211,-216,-215,-170,-68,270,90,270,180,90,180,360,270,360,180,180,,,,,,,,,,,777.665,777.667,,0,40,40,40,1,9,novel,,,,,,,,,,,,,,,,,,,,,,,,,,,,,,,,,,,,,,,,,,,,,,,,,
,,14,8,${e://Field/PROLIFIC_PID,F,18,2023-11-03_17h56.08.700,MouseEye_CC,2023.2.2,Win32,60.0240096,1.28,,,1024,640,64.537,3.79,"125.67, 123.81, 137.18, 144.89, 133.92, 127.67, 145.56",740.93,11.26497525,42.69425621,27.83653633,Passed,143.0257583,,,,,,,,,,,,,,,,,,,,,training,3,10,180,right,s,,,,,777.669,778.47,35.84,1,1,1,0,0,0.799,fixationPoint,778.47,778.564,778.564,780.234,35.84,10240,616.96,s,1,1.649,,780.234,780.431,,,,,,,,70,224,-75,112,64,213,32,20,27,-224,32,-31,169,-119,213,-173,-216,-126,-216,-116,-125,69,-124,165,-19,270,360,90,180,360,270,270,90,270,180,180,,,,,,,,,,,780.432,780.433,,0,41,41,41,1,7,repeated,,,,,,,,,,,,,,,,,,,,,,,,,,,,,,,,,,,,,,,,,,,,,,,,,
,,14,8,${e://Field/PROLIFIC_PID,F,18,2023-11-03_17h56.08.700,MouseEye_CC,2023.2.2,Win32,60.0240096,1.28,,,1024,640,64.537,3.79,"125.67, 123.81, 137.18, 144.89, 133.92, 127.67, 145.56",740.93,11.26497525,42.69425621,27.83653633,Passed,143.0257583,,,,,,,,,,,,,,,,,,,,,training,3,11,180,right,s,,,,,780.435,781.468,35.84,1,0,1,0,0,1.033,fixationPoint,781.468,781.564,781.564,782.921,35.84,10240,616.96,s,1,1.34,,782.922,783.113,,,,,,,,97,69,-220,160,161,74,116,222,113,-221,169,-72,224,-120,120,-170,-68,-26,-66,-68,-209,72,-166,168,-121,360,270,180,180,90,360,270,90,270,270,90,,,,,,,,,,,783.113,783.116,,0,42,42,42,1,11,novel,,,,,,,,,,,,,,,,,,,,,,,,,,,,,,,,,,,,,,,,,,,,,,,,,
,,14,8,${e://Field/PROLIFIC_PID,F,18,2023-11-03_17h56.08.700,MouseEye_CC,2023.2.2,Win32,60.0240096,1.28,,,1024,640,64.537,3.79,"125.67, 123.81, 137.18, 144.89, 133.92, 127.67, 145.56",740.93,11.26497525,42.69425621,27.83653633,Passed,143.0257583,,,,,,,,,,,,,,,,,,,,,training,3,12,0,left,a,,,,,783.118,784.119,35.84,3,-4,1,0,0,1,fixationPoint,784.119,784.213,784.213,787.216,35.84,10240,616.96,a,1,2.985,,787.217,787.412,,,,,,,,4,-72,224,112,64,222,113,30,166,-126,-164,-170,-68,-80,-23,20,-161,121,-70,79,-76,-176,122,-77,162,270,360,360,90,90,180,270,180,270,90,90,,,,,,,,,,,787.412,787.415,,0,43,43,43,1,3,repeated,,,,,,,,,,,,,,,,,,,,,,,,,,,,,,,,,,,,,,,,,,,,,,,,,
,,14,8,${e://Field/PROLIFIC_PID,F,18,2023-11-03_17h56.08.700,MouseEye_CC,2023.2.2,Win32,60.0240096,1.28,,,1024,640,64.537,3.79,"125.67, 123.81, 137.18, 144.89, 133.92, 127.67, 145.56",740.93,11.26497525,42.69425621,27.83653633,Passed,143.0257583,,,,,,,,,,,,,,,,,,,,,training,3,13,180,right,s,,,,,787.416,788.451,35.84,-10,1,1,0,0,1.034,fixationPoint,788.451,788.545,788.545,791.085,35.84,10240,616.96,s,1,2.521,,791.085,791.278,,,,,,,,31,-216,64,20,27,74,23,176,69,-64,-67,-168,-174,-70,-117,208,-126,175,-168,73,-20,-29,210,-224,32,180,180,360,90,360,270,270,180,90,270,360,,,,,,,,,,,791.278,791.279,,0,44,44,44,1,15,novel,,,,,,,,,,,,,,,,,,,,,,,,,,,,,,,,,,,,,,,,,,,,,,,,,
,,14,8,${e://Field/PROLIFIC_PID,F,18,2023-11-03_17h56.08.700,MouseEye_CC,2023.2.2,Win32,60.0240096,1.28,,,1024,640,64.537,3.79,"125.67, 123.81, 137.18, 144.89, 133.92, 127.67, 145.56",740.93,11.26497525,42.69425621,27.83653633,Passed,143.0257583,,,,,,,,,,,,,,,,,,,,,training,3,14,180,right,s,,,,,791.282,792.383,35.84,-2,6,1,0,0,1.1,fixationPoint,792.384,792.478,792.478,794.067,35.84,10240,616.96,s,1,1.565,,794.067,794.261,,,,,,,,82,-168,-174,176,69,167,124,78,67,-176,122,-218,124,-21,120,224,-75,165,-19,28,-221,-216,-215,-32,-124,180,180,360,270,90,90,360,180,180,90,90,,,,,,,,,,,794.261,794.263,,0,45,45,45,1,5,repeated,,,,,,,,,,,,,,,,,,,,,,,,,,,,,,,,,,,,,,,,,,,,,,,,,
,,14,8,${e://Field/PROLIFIC_PID,F,18,2023-11-03_17h56.08.700,MouseEye_CC,2023.2.2,Win32,60.0240096,1.28,,,1024,640,64.537,3.79,"125.67, 123.81, 137.18, 144.89, 133.92, 127.67, 145.56",740.93,11.26497525,42.69425621,27.83653633,Passed,143.0257583,,,,,,,,,,,,,,,,,,,,,training,3,15,180,right,s,,,,,794.265,795.298,35.84,-9,1,1,0,0,1.033,fixationPoint,795.299,795.394,795.394,796.719,35.84,10240,616.96,s,1,1.305,,796.72,796.913,,,,,,,,19,160,161,-72,224,-176,122,-67,17,-216,-215,-116,-125,-223,-31,165,-19,209,-18,28,-221,126,29,124,172,270,90,180,360,270,360,270,90,90,270,270,,,,,,,,,,,796.914,796.915,,0,46,46,46,1,13,novel,,,,,,,,,,,,,,,,,,,,,,,,,,,,,,,,,,,,,,,,,,,,,,,,,
,,14,8,${e://Field/PROLIFIC_PID,F,18,2023-11-03_17h56.08.700,MouseEye_CC,2023.2.2,Win32,60.0240096,1.28,,,1024,640,64.537,3.79,"125.67, 123.81, 137.18, 144.89, 133.92, 127.67, 145.56",740.93,11.26497525,42.69425621,27.83653633,Passed,143.0257583,,,,,,,,,,,,,,,,,,,,,training,3,16,180,right,s,,,,,796.916,797.933,35.84,-2,1,1,0,0,1.016,fixationPoint,797.933,798.027,798.027,801.203,35.84,10240,616.96,s,1,3.156,,801.204,801.395,,,,,,,,32,-166,79,208,211,20,27,124,172,-68,-209,-73,-165,-80,-23,28,-64,79,-76,73,-20,-31,169,-221,169,90,180,270,360,270,180,360,90,90,90,180,,,,,,,,,,,801.395,803.115,space,0,47,47,47,1,16,novel,1.673,,,,,,,,,,,,,,,,,,,,,,,,,,,,,,,,,,,,,,,,,,,,,,,,
,,14,8,${e://Field/PROLIFIC_PID,F,18,2023-11-03_17h56.08.700,MouseEye_CC,2023.2.2,Win32,60.0240096,1.28,,,1024,640,64.537,3.79,"125.67, 123.81, 137.18, 144.89, 133.92, 127.67, 145.56",740.93,11.26497525,42.69425621,27.83653633,Passed,143.0257583,,,,,,,,,,,,,,,,,,,,,training,4,1,180,right,s,,,,,803.124,804.115,35.84,-1,2,1,0,0,0.989,fixationPoint,804.115,804.209,804.211,807.614,35.84,10240,616.96,s,1,3.373,,807.614,807.814,,,,,,,,69,173,-77,78,67,80,220,167,124,-65,77,-166,79,-174,23,-70,-117,-213,-74,-32,-124,69,-124,216,-224,360,90,270,360,360,360,90,270,90,270,270,,,,,,,,,,,807.814,807.824,,0,48,48,48,1,8,repeated,,,,,,,,,,,,,,,,,,,,,,,,,,,,,,,,,,,,,,,,,,,,,,,,,
,,14,8,${e://Field/PROLIFIC_PID,F,18,2023-11-03_17h56.08.700,MouseEye_CC,2023.2.2,Win32,60.0240096,1.28,,,1024,640,64.537,3.79,"125.67, 123.81, 137.18, 144.89, 133.92, 127.67, 145.56",740.93,11.26497525,42.69425621,27.83653633,Passed,143.0257583,,,,,,,,,,,,,,,,,,,,,training,4,2,0,left,a,,,,,807.826,809.029,35.84,-4,8,1,0,0,1.203,fixationPoint,809.029,809.124,809.124,812.979,35.84,10240,616.96,a,1,3.834,,812.979,813.173,,,,,,,,4,-72,224,112,64,222,113,30,166,-126,-164,-170,-68,-80,-23,20,-161,121,-70,79,-76,-176,122,-77,162,90,90,90,360,180,270,90,180,360,90,180,,,,,,,,,,,813.174,813.176,,0,49,49,49,1,3,repeated,,,,,,,,,,,,,,,,,,,,,,,,,,,,,,,,,,,,,,,,,,,,,,,,,
,,14,8,${e://Field/PROLIFIC_PID,F,18,2023-11-03_17h56.08.700,MouseEye_CC,2023.2.2,Win32,60.0240096,1.28,,,1024,640,64.537,3.79,"125.67, 123.81, 137.18, 144.89, 133.92, 127.67, 145.56",740.93,11.26497525,42.69425621,27.83653633,Passed,143.0257583,,,,,,,,,,,,,,,,,,,,,training,4,3,0,left,a,,,,,813.178,814.661,35.84,2,0,1,0,0,1.482,fixationPoint,814.662,814.757,814.757,816.927,35.84,10240,616.96,a,1,2.15,,816.927,817.13,,,,,,,,61,-213,-74,20,72,160,161,74,116,-77,162,-72,224,-176,122,224,-75,123,-220,72,-166,-16,-26,-17,-222,360,270,360,180,270,270,270,270,180,90,180,,,,,,,,,,,817.13,817.132,,0,50,50,50,1,10,novel,,,,,,,,,,,,,,,,,,,,,,,,,,,,,,,,,,,,,,,,,,,,,,,,,
,,14,8,${e://Field/PROLIFIC_PID,F,18,2023-11-03_17h56.08.700,MouseEye_CC,2023.2.2,Win32,60.0240096,1.28,,,1024,640,64.537,3.79,"125.67, 123.81, 137.18, 144.89, 133.92, 127.67, 145.56",740.93,11.26497525,42.69425621,27.83653633,Passed,143.0257583,,,,,,,,,,,,,,,,,,,,,training,4,4,180,right,s,,,,,817.133,818.195,35.84,-2,-2,1,0,0,1.062,fixationPoint,818.196,818.289,818.289,821.659,35.84,10240,616.96,s,1,3.35,,821.659,821.839,,,,,,,,70,224,-75,112,64,213,32,20,27,-224,32,-31,169,-119,213,-173,-216,-126,-216,-116,-125,69,-124,165,-19,180,180,360,90,360,360,360,270,270,90,180,,,,,,,,,,,821.839,821.84,,0,51,51,51,1,7,repeated,,,,,,,,,,,,,,,,,,,,,,,,,,,,,,,,,,,,,,,,,,,,,,,,,
,,14,8,${e://Field/PROLIFIC_PID,F,18,2023-11-03_17h56.08.700,MouseEye_CC,2023.2.2,Win32,60.0240096,1.28,,,1024,640,64.537,3.79,"125.67, 123.81, 137.18, 144.89, 133.92, 127.67, 145.56",740.93,11.26497525,42.69425621,27.83653633,Passed,143.0257583,,,,,,,,,,,,,,,,,,,,,training,4,5,0,left,a,,,,,821.842,822.81,35.84,0,0,1,0,0,0.968,fixationPoint,822.81,822.905,822.905,824.585,35.84,10240,616.96,a,1,1.652,,824.585,824.788,,,,,,,,19,160,161,-224,32,-119,213,-29,210,-173,-114,-68,-209,-216,-215,164,-211,28,-64,121,-70,209,72,80,220,90,270,180,360,270,270,360,360,180,360,90,,,,,,,,,,,824.788,824.79,,0,52,52,52,1,13,novel,,,,,,,,,,,,,,,,,,,,,,,,,,,,,,,,,,,,,,,,,,,,,,,,,
,,14,8,${e://Field/PROLIFIC_PID,F,18,2023-11-03_17h56.08.700,MouseEye_CC,2023.2.2,Win32,60.0240096,1.28,,,1024,640,64.537,3.79,"125.67, 123.81, 137.18, 144.89, 133.92, 127.67, 145.56",740.93,11.26497525,42.69425621,27.83653633,Passed,143.0257583,,,,,,,,,,,,,,,,,,,,,training,4,6,180,right,s,,,,,824.792,825.643,35.84,-4,0,1,0,0,0.851,fixationPoint,825.643,825.738,825.738,828.091,35.84,10240,616.96,s,1,2.335,,828.092,828.287,,,,,,,,97,69,-220,175,28,112,64,20,72,-166,79,-67,17,-119,213,-170,-32,-70,-117,-30,-161,168,-121,164,-211,360,360,180,90,180,180,180,360,270,360,180,,,,,,,,,,,828.287,828.288,,0,53,53,53,1,11,novel,,,,,,,,,,,,,,,,,,,,,,,,,,,,,,,,,,,,,,,,,,,,,,,,,
,,14,8,${e://Field/PROLIFIC_PID,F,18,2023-11-03_17h56.08.700,MouseEye_CC,2023.2.2,Win32,60.0240096,1.28,,,1024,640,64.537,3.79,"125.67, 123.81, 137.18, 144.89, 133.92, 127.67, 145.56",740.93,11.26497525,42.69425621,27.83653633,Passed,143.0257583,,,,,,,,,,,,,,,,,,,,,training,4,7,0,left,a,,,,,828.291,829.209,35.84,1,2,1,0,0,0.917,fixationPoint,829.209,829.304,829.304,830.805,35.84,10240,616.96,a,1,1.483,,830.805,831.009,,,,,,,,31,-216,64,76,165,176,69,222,113,-73,-165,-223,-31,-80,-23,119,-172,209,-18,69,-124,-218,124,-213,222,180,270,270,180,270,90,180,270,180,90,90,,,,,,,,,,,831.009,831.01,,0,54,54,54,1,15,novel,,,,,,,,,,,,,,,,,,,,,,,,,,,,,,,,,,,,,,,,,,,,,,,,,
,,14,8,${e://Field/PROLIFIC_PID,F,18,2023-11-03_17h56.08.700,MouseEye_CC,2023.2.2,Win32,60.0240096,1.28,,,1024,640,64.537,3.79,"125.67, 123.81, 137.18, 144.89, 133.92, 127.67, 145.56",740.93,11.26497525,42.69425621,27.83653633,Passed,143.0257583,,,,,,,,,,,,,,,,,,,,,training,4,8,0,left,a,,,,,831.011,832.027,35.84,1,-1,1,0,0,1.016,fixationPoint,832.027,832.12,832.121,834.645,35.84,10240,616.96,a,1,2.503,,834.646,834.84,,,,,,,,32,-166,79,213,32,20,72,175,28,-68,-209,-126,-164,-126,-216,28,-221,216,-224,69,-220,-72,224,-224,32,270,360,270,90,180,180,180,90,270,270,270,,,,,,,,,,,834.84,834.842,,0,55,55,55,1,16,novel,,,,,,,,,,,,,,,,,,,,,,,,,,,,,,,,,,,,,,,,,,,,,,,,,
,,14,8,${e://Field/PROLIFIC_PID,F,18,2023-11-03_17h56.08.700,MouseEye_CC,2023.2.2,Win32,60.0240096,1.28,,,1024,640,64.537,3.79,"125.67, 123.81, 137.18, 144.89, 133.92, 127.67, 145.56",740.93,11.26497525,42.69425621,27.83653633,Passed,143.0257583,,,,,,,,,,,,,,,,,,,,,training,4,9,180,right,s,,,,,834.848,835.759,35.84,0,-2,1,0,0,0.91,fixationPoint,835.76,835.861,835.863,838.523,35.84,10240,616.96,s,1,2.626,,838.524,838.718,,,,,,,,71,-218,-127,208,211,124,172,125,118,-176,122,-224,32,-216,64,28,-221,215,-168,28,-24,-80,-23,-223,-31,360,360,90,360,270,360,180,180,270,360,270,,,,,,,,,,,838.718,838.726,,0,56,56,56,1,6,repeated,,,,,,,,,,,,,,,,,,,,,,,,,,,,,,,,,,,,,,,,,,,,,,,,,
,,14,8,${e://Field/PROLIFIC_PID,F,18,2023-11-03_17h56.08.700,MouseEye_CC,2023.2.2,Win32,60.0240096,1.28,,,1024,640,64.537,3.79,"125.67, 123.81, 137.18, 144.89, 133.92, 127.67, 145.56",740.93,11.26497525,42.69425621,27.83653633,Passed,143.0257583,,,,,,,,,,,,,,,,,,,,,training,4,10,0,left,a,,,,,838.729,839.723,35.84,0,6,1,0,0,0.994,fixationPoint,839.724,839.818,839.818,841.554,35.84,10240,616.96,a,1,1.716,,841.555,841.75,,,,,,,,82,-168,-174,176,69,167,124,78,67,-176,122,-218,124,-21,120,224,-75,165,-19,28,-221,-216,-215,-32,-124,90,360,180,360,360,90,90,270,180,180,270,,,,,,,,,,,841.75,841.754,,0,57,57,57,1,5,repeated,,,,,,,,,,,,,,,,,,,,,,,,,,,,,,,,,,,,,,,,,,,,,,,,,
,,14,8,${e://Field/PROLIFIC_PID,F,18,2023-11-03_17h56.08.700,MouseEye_CC,2023.2.2,Win32,60.0240096,1.28,,,1024,640,64.537,3.79,"125.67, 123.81, 137.18, 144.89, 133.92, 127.67, 145.56",740.93,11.26497525,42.69425621,27.83653633,Passed,143.0257583,,,,,,,,,,,,,,,,,,,,,training,4,11,180,right,s,,,,,841.757,843.539,35.84,-1,-4,1,0,0,1.78,fixationPoint,843.54,843.634,843.634,846.187,35.84,10240,616.96,s,1,2.534,,846.188,846.384,,,,,,,,30,222,113,-120,120,-28,79,-29,210,-223,-31,-64,-67,-213,-74,79,-76,119,-172,27,-120,208,211,30,166,180,90,90,180,180,360,180,90,90,270,360,,,,,,,,,,,846.385,846.388,,0,58,58,58,1,14,novel,,,,,,,,,,,,,,,,,,,,,,,,,,,,,,,,,,,,,,,,,,,,,,,,,
,,14,8,${e://Field/PROLIFIC_PID,F,18,2023-11-03_17h56.08.700,MouseEye_CC,2023.2.2,Win32,60.0240096,1.28,,,1024,640,64.537,3.79,"125.67, 123.81, 137.18, 144.89, 133.92, 127.67, 145.56",740.93,11.26497525,42.69425621,27.83653633,Passed,143.0257583,,,,,,,,,,,,,,,,,,,,,training,4,12,0,left,a,,,,,846.39,847.588,35.84,-3,-1,1,0,0,1.197,fixationPoint,847.588,847.689,847.689,851.656,35.84,10240,616.96,a,1,3.947,,851.656,851.857,,,,,,,,41,-224,32,160,161,30,166,125,118,-173,-114,-126,-164,-16,-26,119,-172,28,-221,112,-32,-174,23,-213,222,180,270,270,90,360,90,90,360,90,180,360,,,,,,,,,,,851.857,851.859,,0,59,59,59,1,4,repeated,,,,,,,,,,,,,,,,,,,,,,,,,,,,,,,,,,,,,,,,,,,,,,,,,
,,14,8,${e://Field/PROLIFIC_PID,F,18,2023-11-03_17h56.08.700,MouseEye_CC,2023.2.2,Win32,60.0240096,1.28,,,1024,640,64.537,3.79,"125.67, 123.81, 137.18, 144.89, 133.92, 127.67, 145.56",740.93,11.26497525,42.69425621,27.83653633,Passed,143.0257583,,,,,,,,,,,,,,,,,,,,,training,4,13,0,left,a,,,,,851.86,853.354,35.84,3,-3,1,0,0,1.494,fixationPoint,853.354,853.448,853.448,855.383,35.84,10240,616.96,a,1,1.916,,855.384,855.582,,,,,,,,17,76,165,-216,64,-116,160,-218,124,-68,-209,-114,-32,-170,-68,209,-18,173,-77,119,-172,176,69,160,161,360,180,180,90,360,90,270,360,360,270,360,,,,,,,,,,,855.582,855.584,,0,60,60,60,1,1,repeated,,,,,,,,,,,,,,,,,,,,,,,,,,,,,,,,,,,,,,,,,,,,,,,,,
,,14,8,${e://Field/PROLIFIC_PID,F,18,2023-11-03_17h56.08.700,MouseEye_CC,2023.2.2,Win32,60.0240096,1.28,,,1024,640,64.537,3.79,"125.67, 123.81, 137.18, 144.89, 133.92, 127.67, 145.56",740.93,11.26497525,42.69425621,27.83653633,Passed,143.0257583,,,,,,,,,,,,,,,,,,,,,training,4,14,180,right,s,,,,,855.585,856.536,35.84,0,-2,1,0,0,0.949,fixationPoint,856.537,856.631,856.631,858.766,35.84,10240,616.96,s,1,2.117,,858.767,858.966,,,,,,,,84,-73,-165,20,27,25,112,209,72,-218,124,-28,79,-65,77,224,-75,28,-24,121,-70,-216,-215,-114,-32,180,360,180,360,360,180,90,180,270,360,270,,,,,,,,,,,858.966,858.968,,0,61,61,61,1,9,novel,,,,,,,,,,,,,,,,,,,,,,,,,,,,,,,,,,,,,,,,,,,,,,,,,
,,14,8,${e://Field/PROLIFIC_PID,F,18,2023-11-03_17h56.08.700,MouseEye_CC,2023.2.2,Win32,60.0240096,1.28,,,1024,640,64.537,3.79,"125.67, 123.81, 137.18, 144.89, 133.92, 127.67, 145.56",740.93,11.26497525,42.69425621,27.83653633,Passed,143.0257583,,,,,,,,,,,,,,,,,,,,,training,4,15,180,right,s,,,,,858.97,860.051,35.84,6,0,1,0,0,1.081,fixationPoint,860.051,860.147,860.147,862.616,35.84,10240,616.96,s,1,2.45,,862.616,862.81,,,,,,,,40,209,72,-221,169,-116,74,-29,210,-218,-127,-70,-117,-173,-114,209,-18,224,-75,28,-64,112,64,160,161,180,360,180,270,360,270,360,360,180,90,360,,,,,,,,,,,862.81,862.812,,0,62,62,62,1,2,repeated,,,,,,,,,,,,,,,,,,,,,,,,,,,,,,,,,,,,,,,,,,,,,,,,,
,,14,8,${e://Field/PROLIFIC_PID,F,18,2023-11-03_17h56.08.700,MouseEye_CC,2023.2.2,Win32,60.0240096,1.28,,,1024,640,64.537,3.79,"125.67, 123.81, 137.18, 144.89, 133.92, 127.67, 145.56",740.93,11.26497525,42.69425621,27.83653633,Passed,143.0257583,,,,,,,,,,,,,,,,,,,,,training,4,16,180,right,s,,,,,862.815,863.874,35.84,7,4,1,0,0,1.059,fixationPoint,863.874,863.963,863.963,867.419,35.84,10240,616.96,s,1,3.434,,867.419,867.611,,,,,,,,60,209,-18,80,220,124,215,74,116,-116,160,-221,169,-120,120,-114,-32,-216,-215,-73,-165,208,-126,79,-76,360,180,270,270,180,180,180,180,270,360,360,,,,,,,,,,,867.612,983.545,space,0,63,63,63,1,12,novel,115.879,,,,,,,,,,,,,,,,,,,,,,,,,,,,,,,,,,,,,,,,,,,,,,,,
,,14,8,${e://Field/PROLIFIC_PID,F,18,2023-11-03_17h56.08.700,MouseEye_CC,2023.2.2,Win32,60.0240096,1.28,,,1024,640,64.537,3.79,"125.67, 123.81, 137.18, 144.89, 133.92, 127.67, 145.56",740.93,11.26497525,42.69425621,27.83653633,Passed,143.0257583,,,,,,,,,,,,,,,,,,,,,training,5,1,0,left,a,,,,,983.554,986.675,35.84,-3,9,1,0,0,3.119,fixationPoint,986.675,986.763,986.765,987.842,35.84,10240,616.96,a,1,1.018,,987.842,988.036,,,,,,,,69,173,-77,78,67,80,220,167,124,-65,77,-166,79,-174,23,-70,-117,-213,-74,-32,-124,69,-124,216,-224,180,90,180,180,270,180,270,180,90,90,270,,,,,,,,,,,988.036,988.052,,0,64,64,64,1,8,repeated,,,,,,,,,,,,,,,,,,,,,,,,,,,,,,,,,,,,,,,,,,,,,,,,,
,,14,8,${e://Field/PROLIFIC_PID,F,18,2023-11-03_17h56.08.700,MouseEye_CC,2023.2.2,Win32,60.0240096,1.28,,,1024,640,64.537,3.79,"125.67, 123.81, 137.18, 144.89, 133.92, 127.67, 145.56",740.93,11.26497525,42.69425621,27.83653633,Passed,143.0257583,,,,,,,,,,,,,,,,,,,,,training,5,2,180,right,s,,,,,988.054,989.422,35.84,2,-1,1,0,0,1.367,fixationPoint,989.423,989.519,989.519,993.39,35.84,10240,616.96,s,1,3.843,,993.39,993.585,,,,,,,,71,-218,-127,208,211,124,172,125,118,-176,122,-224,32,-216,64,28,-221,215,-168,28,-24,-80,-23,-223,-31,180,270,180,360,180,270,180,90,360,90,180,,,,,,,,,,,993.585,993.587,,0,65,65,65,1,6,repeated,,,,,,,,,,,,,,,,,,,,,,,,,,,,,,,,,,,,,,,,,,,,,,,,,
,,14,8,${e://Field/PROLIFIC_PID,F,18,2023-11-03_17h56.08.700,MouseEye_CC,2023.2.2,Win32,60.0240096,1.28,,,1024,640,64.537,3.79,"125.67, 123.81, 137.18, 144.89, 133.92, 127.67, 145.56",740.93,11.26497525,42.69425621,27.83653633,Passed,143.0257583,,,,,,,,,,,,,,,,,,,,,training,5,3,180,right,s,,,,,993.59,994.689,35.84,-4,-1,1,0,0,1.098,fixationPoint,994.689,994.785,994.785,999.813,35.84,10240,616.96,s,1,5.008,,999.814,1000.019,,,,,,,,41,-224,32,160,161,30,166,125,118,-173,-114,-126,-164,-16,-26,119,-172,28,-221,112,-32,-174,23,-213,222,270,90,180,180,180,90,180,90,360,180,360,,,,,,,,,,,1000.02,1000.022,,0,66,66,66,1,4,repeated,,,,,,,,,,,,,,,,,,,,,,,,,,,,,,,,,,,,,,,,,,,,,,,,,
,,14,8,${e://Field/PROLIFIC_PID,F,18,2023-11-03_17h56.08.700,MouseEye_CC,2023.2.2,Win32,60.0240096,1.28,,,1024,640,64.537,3.79,"125.67, 123.81, 137.18, 144.89, 133.92, 127.67, 145.56",740.93,11.26497525,42.69425621,27.83653633,Passed,143.0257583,,,,,,,,,,,,,,,,,,,,,training,5,4,180,right,s,,,,,1000.025,1001.073,35.84,0,2,1,0,0,1.047,fixationPoint,1001.073,1001.166,1001.166,1002.771,35.84,10240,616.96,s,1,1.583,,1002.771,1002.966,,,,,,,,61,-213,-74,20,72,80,220,167,124,-67,17,-29,210,-166,79,117,-124,28,-221,173,-77,-214,-170,-173,-216,180,90,360,180,270,270,90,90,180,180,270,,,,,,,,,,,1002.966,1002.969,,0,67,67,67,1,10,novel,,,,,,,,,,,,,,,,,,,,,,,,,,,,,,,,,,,,,,,,,,,,,,,,,
,,14,8,${e://Field/PROLIFIC_PID,F,18,2023-11-03_17h56.08.700,MouseEye_CC,2023.2.2,Win32,60.0240096,1.28,,,1024,640,64.537,3.79,"125.67, 123.81, 137.18, 144.89, 133.92, 127.67, 145.56",740.93,11.26497525,42.69425621,27.83653633,Passed,143.0257583,,,,,,,,,,,,,,,,,,,,,training,5,5,0,left,a,,,,,1002.971,1004.055,35.84,-4,1,1,0,0,1.084,fixationPoint,1004.055,1004.15,1004.15,1006.995,35.84,10240,616.96,a,1,2.826,,1006.996,1007.195,,,,,,,,82,-168,-174,176,69,167,124,78,67,-176,122,-218,124,-21,120,224,-75,165,-19,28,-221,-216,-215,-32,-124,90,180,180,360,270,360,270,270,360,90,180,,,,,,,,,,,1007.196,1007.199,,0,68,68,68,1,5,repeated,,,,,,,,,,,,,,,,,,,,,,,,,,,,,,,,,,,,,,,,,,,,,,,,,
,,14,8,${e://Field/PROLIFIC_PID,F,18,2023-11-03_17h56.08.700,MouseEye_CC,2023.2.2,Win32,60.0240096,1.28,,,1024,640,64.537,3.79,"125.67, 123.81, 137.18, 144.89, 133.92, 127.67, 145.56",740.93,11.26497525,42.69425621,27.83653633,Passed,143.0257583,,,,,,,,,,,,,,,,,,,,,training,5,6,0,left,a,,,,,1007.207,1008.305,35.84,0,1,1,0,0,1.095,fixationPoint,1008.306,1008.399,1008.4,1010.269,35.84,10240,616.96,a,1,1.841,,1010.27,1010.464,,,,,,,,60,209,-18,208,211,209,72,74,116,-21,120,-221,169,-28,79,-223,-31,-73,-165,-124,-69,112,-32,173,-77,180,90,360,90,180,180,360,270,360,90,180,,,,,,,,,,,1010.464,1010.467,,0,69,69,69,1,12,novel,,,,,,,,,,,,,,,,,,,,,,,,,,,,,,,,,,,,,,,,,,,,,,,,,
,,14,8,${e://Field/PROLIFIC_PID,F,18,2023-11-03_17h56.08.700,MouseEye_CC,2023.2.2,Win32,60.0240096,1.28,,,1024,640,64.537,3.79,"125.67, 123.81, 137.18, 144.89, 133.92, 127.67, 145.56",740.93,11.26497525,42.69425621,27.83653633,Passed,143.0257583,,,,,,,,,,,,,,,,,,,,,training,5,7,180,right,s,,,,,1010.47,1011.4,35.84,4,-1,1,0,0,0.93,fixationPoint,1011.401,1011.498,1011.498,1014.082,35.84,10240,616.96,s,1,2.565,,1014.084,1014.28,,,,,,,,19,160,161,-174,217,-218,124,-67,17,-170,-68,-126,-164,-218,-127,28,-221,121,-70,119,-172,25,112,208,211,90,90,270,90,180,90,90,180,270,360,90,,,,,,,,,,,1014.281,1014.283,,0,70,70,70,1,13,novel,,,,,,,,,,,,,,,,,,,,,,,,,,,,,,,,,,,,,,,,,,,,,,,,,
,,14,8,${e://Field/PROLIFIC_PID,F,18,2023-11-03_17h56.08.700,MouseEye_CC,2023.2.2,Win32,60.0240096,1.28,,,1024,640,64.537,3.79,"125.67, 123.81, 137.18, 144.89, 133.92, 127.67, 145.56",740.93,11.26497525,42.69425621,27.83653633,Passed,143.0257583,,,,,,,,,,,,,,,,,,,,,training,5,8,180,right,s,,,,,1014.286,1015.369,35.84,0,-2,1,0,0,1.082,fixationPoint,1015.37,1015.463,1015.463,1018.877,35.84,10240,616.96,s,1,3.382,,1018.877,1019.08,,,,,,,,32,-166,79,213,32,74,116,209,167,-73,-165,-124,-69,-80,-23,216,-224,69,-124,121,-70,-28,79,-116,160,180,90,270,270,360,90,270,270,90,360,90,,,,,,,,,,,1019.08,1019.082,,0,71,71,71,1,16,novel,,,,,,,,,,,,,,,,,,,,,,,,,,,,,,,,,,,,,,,,,,,,,,,,,
,,14,8,${e://Field/PROLIFIC_PID,F,18,2023-11-03_17h56.08.700,MouseEye_CC,2023.2.2,Win32,60.0240096,1.28,,,1024,640,64.537,3.79,"125.67, 123.81, 137.18, 144.89, 133.92, 127.67, 145.56",740.93,11.26497525,42.69425621,27.83653633,Passed,143.0257583,,,,,,,,,,,,,,,,,,,,,training,5,9,0,left,a,,,,,1019.084,1020.087,35.84,2,2,1,0,0,1.001,fixationPoint,1020.087,1020.179,1020.18,1023.465,35.84,10240,616.96,a,1,3.266,,1023.465,1023.662,,,,,,,,84,-73,-165,78,67,20,27,208,211,-19,16,-176,122,-77,162,123,-220,119,-172,27,-120,-30,-161,-126,-164,270,270,360,180,180,270,270,90,180,270,180,,,,,,,,,,,1023.662,1023.663,,0,72,72,72,1,9,novel,,,,,,,,,,,,,,,,,,,,,,,,,,,,,,,,,,,,,,,,,,,,,,,,,
,,14,8,${e://Field/PROLIFIC_PID,F,18,2023-11-03_17h56.08.700,MouseEye_CC,2023.2.2,Win32,60.0240096,1.28,,,1024,640,64.537,3.79,"125.67, 123.81, 137.18, 144.89, 133.92, 127.67, 145.56",740.93,11.26497525,42.69425621,27.83653633,Passed,143.0257583,,,,,,,,,,,,,,,,,,,,,training,5,10,0,left,a,,,,,1023.665,1024.77,35.84,2,-2,1,0,0,1.104,fixationPoint,1024.77,1024.862,1024.862,1026.381,35.84,10240,616.96,a,1,1.497,,1026.381,1026.585,,,,,,,,40,209,72,-221,169,-116,74,-29,210,-218,-127,-70,-117,-173,-114,209,-18,224,-75,28,-64,112,64,160,161,90,90,270,360,90,360,270,180,360,360,360,,,,,,,,,,,1026.585,1026.585,,0,73,73,73,1,2,repeated,,,,,,,,,,,,,,,,,,,,,,,,,,,,,,,,,,,,,,,,,,,,,,,,,
,,14,8,${e://Field/PROLIFIC_PID,F,18,2023-11-03_17h56.08.700,MouseEye_CC,2023.2.2,Win32,60.0240096,1.28,,,1024,640,64.537,3.79,"125.67, 123.81, 137.18, 144.89, 133.92, 127.67, 145.56",740.93,11.26497525,42.69425621,27.83653633,Passed,143.0257583,,,,,,,,,,,,,,,,,,,,,training,5,11,180,right,s,,,,,1026.589,1028.483,35.84,2,-2,1,0,0,1.894,fixationPoint,1028.483,1028.578,1028.578,1031.063,35.84,10240,616.96,s,1,2.467,,1031.063,1031.26,,,,,,,,70,224,-75,112,64,213,32,20,27,-224,32,-31,169,-119,213,-173,-216,-126,-216,-116,-125,69,-124,165,-19,180,180,270,90,270,360,90,360,270,180,360,,,,,,,,,,,1031.26,1031.262,,0,74,74,74,1,7,repeated,,,,,,,,,,,,,,,,,,,,,,,,,,,,,,,,,,,,,,,,,,,,,,,,,
,,14,8,${e://Field/PROLIFIC_PID,F,18,2023-11-03_17h56.08.700,MouseEye_CC,2023.2.2,Win32,60.0240096,1.28,,,1024,640,64.537,3.79,"125.67, 123.81, 137.18, 144.89, 133.92, 127.67, 145.56",740.93,11.26497525,42.69425621,27.83653633,Passed,143.0257583,,,,,,,,,,,,,,,,,,,,,training,5,12,180,right,s,,,,,1031.264,1032.532,35.84,2,-2,1,0,0,1.267,fixationPoint,1032.532,1032.626,1032.627,1035.67,35.84,10240,616.96,s,1,3.027,,1035.67,1035.871,,,,,,,,97,69,-220,160,161,76,165,78,67,-128,16,-116,160,-120,120,-124,-69,-173,-114,-32,-124,173,-77,28,-64,90,90,270,90,360,360,180,270,90,360,270,,,,,,,,,,,1035.871,1035.873,,0,75,75,75,1,11,novel,,,,,,,,,,,,,,,,,,,,,,,,,,,,,,,,,,,,,,,,,,,,,,,,,
,,14,8,${e://Field/PROLIFIC_PID,F,18,2023-11-03_17h56.08.700,MouseEye_CC,2023.2.2,Win32,60.0240096,1.28,,,1024,640,64.537,3.79,"125.67, 123.81, 137.18, 144.89, 133.92, 127.67, 145.56",740.93,11.26497525,42.69425621,27.83653633,Passed,143.0257583,,,,,,,,,,,,,,,,,,,,,training,5,13,0,left,a,,,,,1035.875,1037.545,35.84,-2,1,1,0,0,1.67,fixationPoint,1037.545,1037.642,1037.642,1039.525,35.84,10240,616.96,a,1,1.85,,1039.527,1039.725,,,,,,,,31,-216,64,20,72,25,112,125,118,-32,-124,-80,-23,-64,-67,165,-19,28,-24,168,-121,-213,222,-172,170,90,360,270,180,180,180,90,180,180,360,90,,,,,,,,,,,1039.725,1039.729,,0,76,76,76,1,15,novel,,,,,,,,,,,,,,,,,,,,,,,,,,,,,,,,,,,,,,,,,,,,,,,,,
,,14,8,${e://Field/PROLIFIC_PID,F,18,2023-11-03_17h56.08.700,MouseEye_CC,2023.2.2,Win32,60.0240096,1.28,,,1024,640,64.537,3.79,"125.67, 123.81, 137.18, 144.89, 133.92, 127.67, 145.56",740.93,11.26497525,42.69425621,27.83653633,Passed,143.0257583,,,,,,,,,,,,,,,,,,,,,training,5,14,180,right,s,,,,,1039.736,1040.547,35.84,-9,-2,1,0,0,0.81,fixationPoint,1040.548,1040.642,1040.643,1046.192,35.84,10240,616.96,s,1,5.517,,1046.193,1046.391,,,,,,,,4,-72,224,112,64,222,113,30,166,-126,-164,-170,-68,-80,-23,20,-161,121,-70,79,-76,-176,122,-77,162,180,90,270,90,270,90,90,90,180,360,270,,,,,,,,,,,1046.391,1046.394,,0,77,77,77,1,3,repeated,,,,,,,,,,,,,,,,,,,,,,,,,,,,,,,,,,,,,,,,,,,,,,,,,
,,14,8,${e://Field/PROLIFIC_PID,F,18,2023-11-03_17h56.08.700,MouseEye_CC,2023.2.2,Win32,60.0240096,1.28,,,1024,640,64.537,3.79,"125.67, 123.81, 137.18, 144.89, 133.92, 127.67, 145.56",740.93,11.26497525,42.69425621,27.83653633,Passed,143.0257583,,,,,,,,,,,,,,,,,,,,,training,5,15,0,left,a,,,,,1046.398,1047.594,35.84,2,4,1,0,0,1.196,fixationPoint,1047.594,1047.691,1047.691,1050.244,35.84,10240,616.96,a,1,2.535,,1050.245,1050.44,,,,,,,,30,222,113,-120,120,-21,120,-176,122,-214,-170,-218,-127,-126,-164,73,-20,119,-172,215,-168,20,27,20,72,270,360,90,90,270,180,180,270,360,90,180,,,,,,,,,,,1050.441,1050.443,,0,78,78,78,1,14,novel,,,,,,,,,,,,,,,,,,,,,,,,,,,,,,,,,,,,,,,,,,,,,,,,,
,,14,8,${e://Field/PROLIFIC_PID,F,18,2023-11-03_17h56.08.700,MouseEye_CC,2023.2.2,Win32,60.0240096,1.28,,,1024,640,64.537,3.79,"125.67, 123.81, 137.18, 144.89, 133.92, 127.67, 145.56",740.93,11.26497525,42.69425621,27.83653633,Passed,143.0257583,,,,,,,,,,,,,,,,,,,,,training,5,16,0,left,a,,,,,1050.445,1051.645,35.84,0,3,1,0,0,1.2,fixationPoint,1051.646,1051.747,1051.747,1055.592,35.84,10240,616.96,a,1,3.819,,1055.592,1055.788,,,,,,,,17,76,165,-216,64,-116,160,-218,124,-68,-209,-114,-32,-170,-68,209,-18,173,-77,119,-172,176,69,160,161,360,180,360,360,90,90,90,180,180,180,360,,,,,,,,,,,1055.788,1060.457,space,0,79,79,79,1,1,repeated,4.614,,,,,,,,,,,,,,,,,,,,,,,,,,,,,,,,,,,,,,,,,,,,,,,,
,,14,8,${e://Field/PROLIFIC_PID,F,18,2023-11-03_17h56.08.700,MouseEye_CC,2023.2.2,Win32,60.0240096,1.28,,,1024,640,64.537,3.79,"125.67, 123.81, 137.18, 144.89, 133.92, 127.67, 145.56",740.93,11.26497525,42.69425621,27.83653633,Passed,143.0257583,,,,,,,,,,,,,,,,,,,,,training,6,1,0,left,a,,,,,1060.46,1061.624,35.84,-4,2,1,0,0,1.164,fixationPoint,1061.624,1061.72,1061.721,1064.939,35.84,10240,616.96,s,0,3.201,,1064.94,1068.935,,,,,,,,97,69,-220,164,219,20,72,125,118,-67,17,-224,32,-172,170,-223,-31,-213,-74,-116,-125,121,-70,164,-211,90,90,90,90,270,180,180,270,270,90,360,,,,,,,,,,,1068.935,1068.944,,0,80,80,80,1,11,novel,,,,,,,,,,,,,,,,,,,,,,,,,,,,,,,,,,,,,,,,,,,,,,,,,
,,14,8,${e://Field/PROLIFIC_PID,F,18,2023-11-03_17h56.08.700,MouseEye_CC,2023.2.2,Win32,60.0240096,1.28,,,1024,640,64.537,3.79,"125.67, 123.81, 137.18, 144.89, 133.92, 127.67, 145.56",740.93,11.26497525,42.69425621,27.83653633,Passed,143.0257583,,,,,,,,,,,,,,,,,,,,,training,6,2,0,left,a,,,,,1068.947,1073.744,35.84,3,0,1,0,0,4.794,fixationPoint,1073.744,1073.825,1073.827,1076.608,35.84,10240,616.96,a,1,2.75,,1076.609,1076.806,,,,,,,,31,-216,64,126,29,164,219,78,67,-68,-209,-216,-215,-173,-216,72,-166,20,-161,28,-64,-116,160,-166,79,180,360,180,90,360,360,180,360,180,180,90,,,,,,,,,,,1076.806,1076.808,,0,81,81,81,1,15,novel,,,,,,,,,,,,,,,,,,,,,,,,,,,,,,,,,,,,,,,,,,,,,,,,,
,,14,8,${e://Field/PROLIFIC_PID,F,18,2023-11-03_17h56.08.700,MouseEye_CC,2023.2.2,Win32,60.0240096,1.28,,,1024,640,64.537,3.79,"125.67, 123.81, 137.18, 144.89, 133.92, 127.67, 145.56",740.93,11.26497525,42.69425621,27.83653633,Passed,143.0257583,,,,,,,,,,,,,,,,,,,,,training,6,3,180,right,s,,,,,1076.815,1077.607,35.84,1,0,1,0,0,0.791,fixationPoint,1077.607,1077.7,1077.701,1079.42,35.84,10240,616.96,s,1,1.694,,1079.42,1079.609,,,,,,,,71,-218,-127,208,211,124,172,125,118,-176,122,-224,32,-216,64,28,-221,215,-168,28,-24,-80,-23,-223,-31,270,90,360,180,270,180,360,180,180,360,360,,,,,,,,,,,1079.609,1079.61,,0,82,82,82,1,6,repeated,,,,,,,,,,,,,,,,,,,,,,,,,,,,,,,,,,,,,,,,,,,,,,,,,
,,14,8,${e://Field/PROLIFIC_PID,F,18,2023-11-03_17h56.08.700,MouseEye_CC,2023.2.2,Win32,60.0240096,1.28,,,1024,640,64.537,3.79,"125.67, 123.81, 137.18, 144.89, 133.92, 127.67, 145.56",740.93,11.26497525,42.69425621,27.83653633,Passed,143.0257583,,,,,,,,,,,,,,,,,,,,,training,6,4,180,right,s,,,,,1079.611,1081.151,35.84,-2,-2,1,0,0,1.538,fixationPoint,1081.151,1081.249,1081.249,1083.417,35.84,10240,616.96,s,1,2.147,,1083.418,1083.616,,,,,,,,84,-73,-165,124,172,125,118,208,211,-166,79,-120,120,-174,23,20,-161,119,-172,216,-224,-114,-32,-223,-31,270,360,180,360,270,360,360,180,90,360,270,,,,,,,,,,,1083.616,1083.618,,0,83,83,83,1,9,novel,,,,,,,,,,,,,,,,,,,,,,,,,,,,,,,,,,,,,,,,,,,,,,,,,
,,14,8,${e://Field/PROLIFIC_PID,F,18,2023-11-03_17h56.08.700,MouseEye_CC,2023.2.2,Win32,60.0240096,1.28,,,1024,640,64.537,3.79,"125.67, 123.81, 137.18, 144.89, 133.92, 127.67, 145.56",740.93,11.26497525,42.69425621,27.83653633,Passed,143.0257583,,,,,,,,,,,,,,,,,,,,,training,6,5,0,left,a,,,,,1083.62,1084.338,35.84,2,-1,1,0,0,0.716,fixationPoint,1084.338,1084.432,1084.432,1087.388,35.84,10240,616.96,a,1,2.935,,1087.388,1087.582,,,,,,,,17,76,165,-216,64,-116,160,-218,124,-68,-209,-114,-32,-170,-68,209,-18,173,-77,119,-172,176,69,160,161,270,90,180,90,360,90,180,360,90,90,180,,,,,,,,,,,1087.582,1087.584,,0,84,84,84,1,1,repeated,,,,,,,,,,,,,,,,,,,,,,,,,,,,,,,,,,,,,,,,,,,,,,,,,
,,14,8,${e://Field/PROLIFIC_PID,F,18,2023-11-03_17h56.08.700,MouseEye_CC,2023.2.2,Win32,60.0240096,1.28,,,1024,640,64.537,3.79,"125.67, 123.81, 137.18, 144.89, 133.92, 127.67, 145.56",740.93,11.26497525,42.69425621,27.83653633,Passed,143.0257583,,,,,,,,,,,,,,,,,,,,,training,6,6,180,right,s,,,,,1087.586,1088.321,35.84,2,2,1,0,0,0.734,fixationPoint,1088.321,1088.415,1088.416,1092.648,35.84,10240,616.96,s,1,4.213,,1092.648,1092.847,,,,,,,,4,-72,224,112,64,222,113,30,166,-126,-164,-170,-68,-80,-23,20,-161,121,-70,79,-76,-176,122,-77,162,270,180,360,270,180,270,180,270,90,360,270,,,,,,,,,,,1092.847,1092.848,,0,85,85,85,1,3,repeated,,,,,,,,,,,,,,,,,,,,,,,,,,,,,,,,,,,,,,,,,,,,,,,,,
,,14,8,${e://Field/PROLIFIC_PID,F,18,2023-11-03_17h56.08.700,MouseEye_CC,2023.2.2,Win32,60.0240096,1.28,,,1024,640,64.537,3.79,"125.67, 123.81, 137.18, 144.89, 133.92, 127.67, 145.56",740.93,11.26497525,42.69425621,27.83653633,Passed,143.0257583,,,,,,,,,,,,,,,,,,,,,training,6,7,0,left,a,,,,,1092.851,1093.704,35.84,1,4,1,0,0,0.853,fixationPoint,1093.704,1093.797,1093.797,1095.885,35.84,10240,616.96,a,1,2.049,,1095.885,1096.08,,,,,,,,70,224,-75,112,64,213,32,20,27,-224,32,-31,169,-119,213,-173,-216,-126,-216,-116,-125,69,-124,165,-19,270,270,90,360,90,360,360,360,270,180,270,,,,,,,,,,,1096.08,1096.082,,0,86,86,86,1,7,repeated,,,,,,,,,,,,,,,,,,,,,,,,,,,,,,,,,,,,,,,,,,,,,,,,,
,,14,8,${e://Field/PROLIFIC_PID,F,18,2023-11-03_17h56.08.700,MouseEye_CC,2023.2.2,Win32,60.0240096,1.28,,,1024,640,64.537,3.79,"125.67, 123.81, 137.18, 144.89, 133.92, 127.67, 145.56",740.93,11.26497525,42.69425621,27.83653633,Passed,143.0257583,,,,,,,,,,,,,,,,,,,,,training,6,8,180,right,s,,,,,1096.084,1096.867,35.84,4,2,1,0,0,0.781,fixationPoint,1096.867,1096.962,1096.962,1101.297,35.84,10240,616.96,s,1,4.316,,1101.297,1101.495,,,,,,,,60,209,-18,125,118,167,124,175,28,-221,169,-19,16,-116,160,-170,-68,-16,-26,-216,-215,175,-168,119,-172,180,270,180,270,270,90,180,270,90,180,270,,,,,,,,,,,1101.495,1101.497,,0,87,87,87,1,12,novel,,,,,,,,,,,,,,,,,,,,,,,,,,,,,,,,,,,,,,,,,,,,,,,,,
,,14,8,${e://Field/PROLIFIC_PID,F,18,2023-11-03_17h56.08.700,MouseEye_CC,2023.2.2,Win32,60.0240096,1.28,,,1024,640,64.537,3.79,"125.67, 123.81, 137.18, 144.89, 133.92, 127.67, 145.56",740.93,11.26497525,42.69425621,27.83653633,Passed,143.0257583,,,,,,,,,,,,,,,,,,,,,training,6,9,0,left,a,,,,,1101.5,1102.349,35.84,6,0,1,0,0,0.849,fixationPoint,1102.349,1102.445,1102.445,1104.068,35.84,10240,616.96,a,1,1.603,,1104.068,1104.262,,,,,,,,61,-213,-74,175,28,124,215,126,29,-21,120,-166,79,-128,16,224,-75,79,-76,20,-161,-114,-32,-17,-222,90,180,270,270,90,90,270,180,270,270,270,,,,,,,,,,,1104.262,1104.262,,0,88,88,88,1,10,novel,,,,,,,,,,,,,,,,,,,,,,,,,,,,,,,,,,,,,,,,,,,,,,,,,
,,14,8,${e://Field/PROLIFIC_PID,F,18,2023-11-03_17h56.08.700,MouseEye_CC,2023.2.2,Win32,60.0240096,1.28,,,1024,640,64.537,3.79,"125.67, 123.81, 137.18, 144.89, 133.92, 127.67, 145.56",740.93,11.26497525,42.69425621,27.83653633,Passed,143.0257583,,,,,,,,,,,,,,,,,,,,,training,6,10,0,left,a,,,,,1104.264,1104.98,35.84,0,-2,1,0,0,0.716,fixationPoint,1104.981,1105.078,1105.078,1106.565,35.84,10240,616.96,a,1,1.469,,1106.565,1106.76,,,,,,,,30,222,113,-176,122,-116,74,-116,160,-114,-32,-16,-26,-26,-66,117,-124,112,-32,216,-224,20,72,76,165,90,180,270,90,90,270,180,90,180,90,360,,,,,,,,,,,1106.761,1106.762,,0,89,89,89,1,14,novel,,,,,,,,,,,,,,,,,,,,,,,,,,,,,,,,,,,,,,,,,,,,,,,,,
,,14,8,${e://Field/PROLIFIC_PID,F,18,2023-11-03_17h56.08.700,MouseEye_CC,2023.2.2,Win32,60.0240096,1.28,,,1024,640,64.537,3.79,"125.67, 123.81, 137.18, 144.89, 133.92, 127.67, 145.56",740.93,11.26497525,42.69425621,27.83653633,Passed,143.0257583,,,,,,,,,,,,,,,,,,,,,training,6,11,0,left,a,,,,,1106.764,1107.6,35.84,0,2,1,0,0,0.834,fixationPoint,1107.601,1107.7,1107.702,1109.165,35.84,10240,616.96,a,1,1.435,,1109.165,1109.364,,,,,,,,41,-224,32,160,161,30,166,125,118,-173,-114,-126,-164,-16,-26,119,-172,28,-221,112,-32,-174,23,-213,222,90,180,180,180,180,270,180,360,360,180,90,,,,,,,,,,,1109.365,1109.367,,0,90,90,90,1,4,repeated,,,,,,,,,,,,,,,,,,,,,,,,,,,,,,,,,,,,,,,,,,,,,,,,,
,,14,8,${e://Field/PROLIFIC_PID,F,18,2023-11-03_17h56.08.700,MouseEye_CC,2023.2.2,Win32,60.0240096,1.28,,,1024,640,64.537,3.79,"125.67, 123.81, 137.18, 144.89, 133.92, 127.67, 145.56",740.93,11.26497525,42.69425621,27.83653633,Passed,143.0257583,,,,,,,,,,,,,,,,,,,,,training,6,12,180,right,s,,,,,1109.373,1110.199,35.84,4,2,1,0,0,0.824,fixationPoint,1110.2,1110.294,1110.294,1111.7,35.84,10240,616.96,s,1,1.378,,1111.7,1111.892,,,,,,,,32,-166,79,30,166,112,64,126,29,-68,-209,-32,-124,-126,-164,209,-18,28,-24,215,-168,-19,16,-21,120,180,360,360,180,270,90,270,360,270,180,180,,,,,,,,,,,1111.893,1111.895,,0,91,91,91,1,16,novel,,,,,,,,,,,,,,,,,,,,,,,,,,,,,,,,,,,,,,,,,,,,,,,,,
,,14,8,${e://Field/PROLIFIC_PID,F,18,2023-11-03_17h56.08.700,MouseEye_CC,2023.2.2,Win32,60.0240096,1.28,,,1024,640,64.537,3.79,"125.67, 123.81, 137.18, 144.89, 133.92, 127.67, 145.56",740.93,11.26497525,42.69425621,27.83653633,Passed,143.0257583,,,,,,,,,,,,,,,,,,,,,training,6,13,180,right,s,,,,,1111.897,1112.62,35.84,2,-1,1,0,0,0.722,fixationPoint,1112.621,1112.724,1112.724,1114.278,35.84,10240,616.96,s,1,1.532,,1114.279,1114.48,,,,,,,,82,-168,-174,176,69,167,124,78,67,-176,122,-218,124,-21,120,224,-75,165,-19,28,-221,-216,-215,-32,-124,270,90,180,270,180,360,360,180,90,180,180,,,,,,,,,,,1114.48,1114.482,,0,92,92,92,1,5,repeated,,,,,,,,,,,,,,,,,,,,,,,,,,,,,,,,,,,,,,,,,,,,,,,,,
,,14,8,${e://Field/PROLIFIC_PID,F,18,2023-11-03_17h56.08.700,MouseEye_CC,2023.2.2,Win32,60.0240096,1.28,,,1024,640,64.537,3.79,"125.67, 123.81, 137.18, 144.89, 133.92, 127.67, 145.56",740.93,11.26497525,42.69425621,27.83653633,Passed,143.0257583,,,,,,,,,,,,,,,,,,,,,training,6,14,180,right,s,,,,,1114.483,1115.165,35.84,-3,-4,1,0,0,0.681,fixationPoint,1115.165,1115.263,1115.264,1118.895,35.84,10240,616.96,s,1,3.61,,1118.895,1119.091,,,,,,,,40,209,72,-221,169,-116,74,-29,210,-218,-127,-70,-117,-173,-114,209,-18,224,-75,28,-64,112,64,160,161,360,360,270,90,270,90,270,360,360,180,180,,,,,,,,,,,1119.091,1119.093,,0,93,93,93,1,2,repeated,,,,,,,,,,,,,,,,,,,,,,,,,,,,,,,,,,,,,,,,,,,,,,,,,
,,14,8,${e://Field/PROLIFIC_PID,F,18,2023-11-03_17h56.08.700,MouseEye_CC,2023.2.2,Win32,60.0240096,1.28,,,1024,640,64.537,3.79,"125.67, 123.81, 137.18, 144.89, 133.92, 127.67, 145.56",740.93,11.26497525,42.69425621,27.83653633,Passed,143.0257583,,,,,,,,,,,,,,,,,,,,,training,6,15,180,right,s,,,,,1119.095,1119.778,35.84,5,0,1,0,0,0.683,fixationPoint,1119.779,1119.875,1119.875,1121.017,35.84,10240,616.96,s,1,1.111,,1121.017,1121.207,,,,,,,,19,160,161,-213,222,-67,126,-176,122,-126,-216,-17,-222,-124,-69,123,-220,173,-77,112,-32,208,211,76,165,360,180,90,180,360,360,90,360,180,180,270,,,,,,,,,,,1121.207,1121.209,,0,94,94,94,1,13,novel,,,,,,,,,,,,,,,,,,,,,,,,,,,,,,,,,,,,,,,,,,,,,,,,,
,,14,8,${e://Field/PROLIFIC_PID,F,18,2023-11-03_17h56.08.700,MouseEye_CC,2023.2.2,Win32,60.0240096,1.28,,,1024,640,64.537,3.79,"125.67, 123.81, 137.18, 144.89, 133.92, 127.67, 145.56",740.93,11.26497525,42.69425621,27.83653633,Passed,143.0257583,,,,,,,,,,,,,,,,,,,,,training,6,16,0,left,a,,,,,1121.211,1122.097,35.84,-1,4,1,0,0,0.885,fixationPoint,1122.098,1122.191,1122.191,1125.013,35.84,10240,616.96,a,1,2.802,,1125.013,1125.206,,,,,,,,69,173,-77,78,67,80,220,167,124,-65,77,-166,79,-174,23,-70,-117,-213,-74,-32,-124,69,-124,216,-224,360,180,90,360,90,360,270,360,180,360,90,,,,,,,,,,,1125.207,1126.546,space,0,95,95,95,1,8,repeated,1.284,,,,,,,,,,,,,,,,,,,,,,,,,,,,,,,,,,,,,,,,,,,,,,,,
,,14,8,${e://Field/PROLIFIC_PID,F,18,2023-11-03_17h56.08.700,MouseEye_CC,2023.2.2,Win32,60.0240096,1.28,,,1024,640,64.537,3.79,"125.67, 123.81, 137.18, 144.89, 133.92, 127.67, 145.56",740.93,11.26497525,42.69425621,27.83653633,Passed,143.0257583,,,,,,,,,,,,,,,,,,,,,training,7,1,180,right,s,,,,,1126.547,1127.526,35.84,1,-2,1,0,0,0.979,fixationPoint,1127.527,1127.623,1127.623,1130.142,35.84,10240,616.96,s,1,2.499,,1130.143,1130.33,,,,,,,,32,-166,79,30,166,124,215,124,172,-216,-215,-30,-161,-32,-124,123,-220,168,-121,69,-220,-67,17,-221,169,270,180,90,90,360,270,270,360,90,360,270,,,,,,,,,,,1130.33,1130.337,,0,96,96,96,1,16,novel,,,,,,,,,,,,,,,,,,,,,,,,,,,,,,,,,,,,,,,,,,,,,,,,,
,,14,8,${e://Field/PROLIFIC_PID,F,18,2023-11-03_17h56.08.700,MouseEye_CC,2023.2.2,Win32,60.0240096,1.28,,,1024,640,64.537,3.79,"125.67, 123.81, 137.18, 144.89, 133.92, 127.67, 145.56",740.93,11.26497525,42.69425621,27.83653633,Passed,143.0257583,,,,,,,,,,,,,,,,,,,,,training,7,2,180,right,s,,,,,1130.338,1131.525,35.84,-1,1,1,0,0,1.187,fixationPoint,1131.527,1131.622,1131.623,1133.194,35.84,10240,616.96,s,1,1.554,,1133.195,1133.388,,,,,,,,31,-216,64,167,124,78,67,125,118,-218,-127,-17,-222,-116,-125,79,-76,168,-121,209,-18,-128,16,-176,122,270,180,270,270,180,180,90,90,90,180,180,,,,,,,,,,,1133.388,1133.392,,0,97,97,97,1,15,novel,,,,,,,,,,,,,,,,,,,,,,,,,,,,,,,,,,,,,,,,,,,,,,,,,
,,14,8,${e://Field/PROLIFIC_PID,F,18,2023-11-03_17h56.08.700,MouseEye_CC,2023.2.2,Win32,60.0240096,1.28,,,1024,640,64.537,3.79,"125.67, 123.81, 137.18, 144.89, 133.92, 127.67, 145.56",740.93,11.26497525,42.69425621,27.83653633,Passed,143.0257583,,,,,,,,,,,,,,,,,,,,,training,7,3,180,right,s,,,,,1133.394,1134.157,35.84,-1,2,1,0,0,0.763,fixationPoint,1134.158,1134.255,1134.255,1135.277,35.84,10240,616.96,s,1,0.995,,1135.277,1135.471,,,,,,,,60,209,-18,126,29,76,165,222,113,-67,126,-28,79,-172,170,-70,-117,-32,-124,-218,-127,168,-121,20,-161,270,270,360,270,360,270,270,90,270,180,180,,,,,,,,,,,1135.472,1135.474,,0,98,98,98,1,12,novel,,,,,,,,,,,,,,,,,,,,,,,,,,,,,,,,,,,,,,,,,,,,,,,,,
,,14,8,${e://Field/PROLIFIC_PID,F,18,2023-11-03_17h56.08.700,MouseEye_CC,2023.2.2,Win32,60.0240096,1.28,,,1024,640,64.537,3.79,"125.67, 123.81, 137.18, 144.89, 133.92, 127.67, 145.56",740.93,11.26497525,42.69425621,27.83653633,Passed,143.0257583,,,,,,,,,,,,,,,,,,,,,training,7,4,0,left,a,,,,,1135.477,1136.393,35.84,3,-1,1,0,0,0.916,fixationPoint,1136.394,1136.487,1136.487,1138.077,35.84,10240,616.96,a,1,1.57,,1138.077,1138.271,,,,,,,,84,-73,-165,74,116,125,118,30,166,-65,77,-19,16,-67,17,28,-24,175,-168,224,-75,-173,-216,-213,-74,180,360,180,180,270,360,180,180,90,270,90,,,,,,,,,,,1138.272,1138.273,,0,99,99,99,1,9,novel,,,,,,,,,,,,,,,,,,,,,,,,,,,,,,,,,,,,,,,,,,,,,,,,,
,,14,8,${e://Field/PROLIFIC_PID,F,18,2023-11-03_17h56.08.700,MouseEye_CC,2023.2.2,Win32,60.0240096,1.28,,,1024,640,64.537,3.79,"125.67, 123.81, 137.18, 144.89, 133.92, 127.67, 145.56",740.93,11.26497525,42.69425621,27.83653633,Passed,143.0257583,,,,,,,,,,,,,,,,,,,,,training,7,5,0,left,a,,,,,1138.275,1139.676,35.84,-2,2,1,0,0,1.4,fixationPoint,1139.676,1139.769,1139.769,1141.391,35.84,10240,616.96,a,1,1.6,,1141.392,1141.586,,,,,,,,30,222,113,-221,169,-174,23,-128,16,-223,-31,-80,-23,-16,-26,72,-166,209,-18,224,-75,74,23,213,32,180,90,360,270,90,90,270,180,270,360,270,,,,,,,,,,,1141.587,1141.588,,0,100,100,100,1,14,novel,,,,,,,,,,,,,,,,,,,,,,,,,,,,,,,,,,,,,,,,,,,,,,,,,
,,14,8,${e://Field/PROLIFIC_PID,F,18,2023-11-03_17h56.08.700,MouseEye_CC,2023.2.2,Win32,60.0240096,1.28,,,1024,640,64.537,3.79,"125.67, 123.81, 137.18, 144.89, 133.92, 127.67, 145.56",740.93,11.26497525,42.69425621,27.83653633,Passed,143.0257583,,,,,,,,,,,,,,,,,,,,,training,7,6,180,right,s,,,,,1141.589,1142.308,35.84,3,1,1,0,0,0.718,fixationPoint,1142.308,1142.403,1142.403,1145.545,35.84,10240,616.96,s,1,3.12,,1145.546,1145.741,,,,,,,,70,224,-75,112,64,213,32,20,27,-224,32,-31,169,-119,213,-173,-216,-126,-216,-116,-125,69,-124,165,-19,90,180,90,180,180,360,180,360,90,270,90,,,,,,,,,,,1145.742,1145.744,,0,101,101,101,1,7,repeated,,,,,,,,,,,,,,,,,,,,,,,,,,,,,,,,,,,,,,,,,,,,,,,,,
,,14,8,${e://Field/PROLIFIC_PID,F,18,2023-11-03_17h56.08.700,MouseEye_CC,2023.2.2,Win32,60.0240096,1.28,,,1024,640,64.537,3.79,"125.67, 123.81, 137.18, 144.89, 133.92, 127.67, 145.56",740.93,11.26497525,42.69425621,27.83653633,Passed,143.0257583,,,,,,,,,,,,,,,,,,,,,training,7,7,0,left,a,,,,,1145.75,1146.675,35.84,2,7,1,0,0,0.925,fixationPoint,1146.675,1146.769,1146.77,1148.44,35.84,10240,616.96,a,1,1.642,,1148.44,1148.641,,,,,,,,82,-168,-174,176,69,167,124,78,67,-176,122,-218,124,-21,120,224,-75,165,-19,28,-221,-216,-215,-32,-124,360,270,90,270,180,90,270,180,270,90,180,,,,,,,,,,,1148.641,1148.643,,0,102,102,102,1,5,repeated,,,,,,,,,,,,,,,,,,,,,,,,,,,,,,,,,,,,,,,,,,,,,,,,,
,,14,8,${e://Field/PROLIFIC_PID,F,18,2023-11-03_17h56.08.700,MouseEye_CC,2023.2.2,Win32,60.0240096,1.28,,,1024,640,64.537,3.79,"125.67, 123.81, 137.18, 144.89, 133.92, 127.67, 145.56",740.93,11.26497525,42.69425621,27.83653633,Passed,143.0257583,,,,,,,,,,,,,,,,,,,,,training,7,8,180,right,s,,,,,1148.644,1149.375,35.84,-2,2,1,0,0,0.73,fixationPoint,1149.376,1149.468,1149.468,1154.19,35.84,10240,616.96,s,1,4.703,,1154.19,1154.384,,,,,,,,4,-72,224,112,64,222,113,30,166,-126,-164,-170,-68,-80,-23,20,-161,121,-70,79,-76,-176,122,-77,162,90,180,360,180,360,180,270,180,90,90,180,,,,,,,,,,,1154.384,1154.387,,0,103,103,103,1,3,repeated,,,,,,,,,,,,,,,,,,,,,,,,,,,,,,,,,,,,,,,,,,,,,,,,,
,,14,8,${e://Field/PROLIFIC_PID,F,18,2023-11-03_17h56.08.700,MouseEye_CC,2023.2.2,Win32,60.0240096,1.28,,,1024,640,64.537,3.79,"125.67, 123.81, 137.18, 144.89, 133.92, 127.67, 145.56",740.93,11.26497525,42.69425621,27.83653633,Passed,143.0257583,,,,,,,,,,,,,,,,,,,,,training,7,9,180,right,s,,,,,1154.388,1155.188,35.84,-3,2,1,0,0,0.799,fixationPoint,1155.188,1155.284,1155.284,1157.452,35.84,10240,616.96,s,1,2.15,,1157.452,1157.649,,,,,,,,19,160,161,-67,17,-19,16,-166,79,-30,-161,-168,-174,-214,-170,208,-126,28,-24,119,-172,80,220,20,27,90,180,90,180,180,90,360,270,270,360,360,,,,,,,,,,,1157.649,1157.652,,0,104,104,104,1,13,novel,,,,,,,,,,,,,,,,,,,,,,,,,,,,,,,,,,,,,,,,,,,,,,,,,
,,14,8,${e://Field/PROLIFIC_PID,F,18,2023-11-03_17h56.08.700,MouseEye_CC,2023.2.2,Win32,60.0240096,1.28,,,1024,640,64.537,3.79,"125.67, 123.81, 137.18, 144.89, 133.92, 127.67, 145.56",740.93,11.26497525,42.69425621,27.83653633,Passed,143.0257583,,,,,,,,,,,,,,,,,,,,,training,7,10,180,right,s,,,,,1157.654,1158.728,35.84,-2,6,1,0,0,1.073,fixationPoint,1158.728,1158.799,1158.799,1160.151,35.84,10240,616.96,s,1,1.327,,1160.152,1160.349,,,,,,,,71,-218,-127,208,211,124,172,125,118,-176,122,-224,32,-216,64,28,-221,215,-168,28,-24,-80,-23,-223,-31,270,360,270,90,270,180,270,270,180,360,90,,,,,,,,,,,1160.349,1160.35,,0,105,105,105,1,6,repeated,,,,,,,,,,,,,,,,,,,,,,,,,,,,,,,,,,,,,,,,,,,,,,,,,
,,14,8,${e://Field/PROLIFIC_PID,F,18,2023-11-03_17h56.08.700,MouseEye_CC,2023.2.2,Win32,60.0240096,1.28,,,1024,640,64.537,3.79,"125.67, 123.81, 137.18, 144.89, 133.92, 127.67, 145.56",740.93,11.26497525,42.69425621,27.83653633,Passed,143.0257583,,,,,,,,,,,,,,,,,,,,,training,7,11,180,right,s,,,,,1160.351,1161.115,35.84,-8,-3,1,0,0,0.763,fixationPoint,1161.116,1161.216,1161.216,1163.118,35.84,10240,616.96,a,0,1.887,,1163.118,1167.109,,,,,,,,41,-224,32,160,161,30,166,125,118,-173,-114,-126,-164,-16,-26,119,-172,28,-221,112,-32,-174,23,-213,222,90,180,270,360,270,360,360,270,180,90,270,,,,,,,,,,,1167.109,1167.11,,0,106,106,106,1,4,repeated,,,,,,,,,,,,,,,,,,,,,,,,,,,,,,,,,,,,,,,,,,,,,,,,,
,,14,8,${e://Field/PROLIFIC_PID,F,18,2023-11-03_17h56.08.700,MouseEye_CC,2023.2.2,Win32,60.0240096,1.28,,,1024,640,64.537,3.79,"125.67, 123.81, 137.18, 144.89, 133.92, 127.67, 145.56",740.93,11.26497525,42.69425621,27.83653633,Passed,143.0257583,,,,,,,,,,,,,,,,,,,,,training,7,12,0,left,a,,,,,1167.112,1168.519,35.84,-2,-5,1,0,0,1.406,fixationPoint,1168.519,1168.614,1168.614,1171.148,35.84,10240,616.96,a,1,2.518,,1171.149,1171.347,,,,,,,,69,173,-77,78,67,80,220,167,124,-65,77,-166,79,-174,23,-70,-117,-213,-74,-32,-124,69,-124,216,-224,180,90,270,90,360,90,90,90,360,270,270,,,,,,,,,,,1171.347,1171.348,,0,107,107,107,1,8,repeated,,,,,,,,,,,,,,,,,,,,,,,,,,,,,,,,,,,,,,,,,,,,,,,,,
,,14,8,${e://Field/PROLIFIC_PID,F,18,2023-11-03_17h56.08.700,MouseEye_CC,2023.2.2,Win32,60.0240096,1.28,,,1024,640,64.537,3.79,"125.67, 123.81, 137.18, 144.89, 133.92, 127.67, 145.56",740.93,11.26497525,42.69425621,27.83653633,Passed,143.0257583,,,,,,,,,,,,,,,,,,,,,training,7,13,0,left,a,,,,,1171.35,1172.086,35.84,3,-3,1,0,0,0.735,fixationPoint,1172.086,1172.179,1172.179,1174.282,35.84,10240,616.96,a,1,2.077,,1174.285,1174.5,,,,,,,,40,209,72,-221,169,-116,74,-29,210,-218,-127,-70,-117,-173,-114,209,-18,224,-75,28,-64,112,64,160,161,270,270,360,270,360,270,360,180,180,270,270,,,,,,,,,,,1174.5,1174.503,,0,108,108,108,1,2,repeated,,,,,,,,,,,,,,,,,,,,,,,,,,,,,,,,,,,,,,,,,,,,,,,,,
,,14,8,${e://Field/PROLIFIC_PID,F,18,2023-11-03_17h56.08.700,MouseEye_CC,2023.2.2,Win32,60.0240096,1.28,,,1024,640,64.537,3.79,"125.67, 123.81, 137.18, 144.89, 133.92, 127.67, 145.56",740.93,11.26497525,42.69425621,27.83653633,Passed,143.0257583,,,,,,,,,,,,,,,,,,,,,training,7,14,0,left,a,,,,,1174.508,1176.252,35.84,1,-1,1,0,0,1.742,fixationPoint,1176.252,1176.346,1176.348,1178.652,35.84,10240,616.96,a,1,2.27,,1178.653,1178.846,,,,,,,,97,69,-220,74,23,20,72,112,64,-213,222,-218,124,-120,120,-214,-170,-218,-127,-26,-66,121,-70,123,-220,360,90,90,360,90,180,180,360,90,180,180,,,,,,,,,,,1178.846,1178.848,,0,109,109,109,1,11,novel,,,,,,,,,,,,,,,,,,,,,,,,,,,,,,,,,,,,,,,,,,,,,,,,,
,,14,8,${e://Field/PROLIFIC_PID,F,18,2023-11-03_17h56.08.700,MouseEye_CC,2023.2.2,Win32,60.0240096,1.28,,,1024,640,64.537,3.79,"125.67, 123.81, 137.18, 144.89, 133.92, 127.67, 145.56",740.93,11.26497525,42.69425621,27.83653633,Passed,143.0257583,,,,,,,,,,,,,,,,,,,,,training,7,15,0,left,a,,,,,1178.852,1179.568,35.84,-2,-2,1,0,0,0.715,fixationPoint,1179.568,1179.661,1179.661,1181.249,35.84,10240,616.96,a,1,1.559,,1181.249,1181.437,,,,,,,,61,-213,-74,209,167,124,215,208,211,-213,222,-116,74,-67,126,208,-126,215,-168,112,-32,-124,-69,-173,-216,360,360,270,360,360,180,270,360,90,90,270,,,,,,,,,,,1181.437,1181.439,,0,110,110,110,1,10,novel,,,,,,,,,,,,,,,,,,,,,,,,,,,,,,,,,,,,,,,,,,,,,,,,,
,,14,8,${e://Field/PROLIFIC_PID,F,18,2023-11-03_17h56.08.700,MouseEye_CC,2023.2.2,Win32,60.0240096,1.28,,,1024,640,64.537,3.79,"125.67, 123.81, 137.18, 144.89, 133.92, 127.67, 145.56",740.93,11.26497525,42.69425621,27.83653633,Passed,143.0257583,,,,,,,,,,,,,,,,,,,,,training,7,16,0,left,a,,,,,1181.44,1182.25,35.84,5,0,1,0,0,0.809,fixationPoint,1182.25,1182.348,1182.348,1185.563,35.84,10240,616.96,a,1,3.194,,1185.564,1185.76,,,,,,,,17,76,165,-216,64,-116,160,-218,124,-68,-209,-114,-32,-170,-68,209,-18,173,-77,119,-172,176,69,160,161,360,180,270,360,270,90,90,270,90,270,360,,,,,,,,,,,1185.76,1186.963,space,0,111,111,111,1,1,repeated,1.159,,,,,,,,,,,,,,,,,,,,,,,,,,,,,,,,,,,,,,,,,,,,,,,,
,,14,8,${e://Field/PROLIFIC_PID,F,18,2023-11-03_17h56.08.700,MouseEye_CC,2023.2.2,Win32,60.0240096,1.28,,,1024,640,64.537,3.79,"125.67, 123.81, 137.18, 144.89, 133.92, 127.67, 145.56",740.93,11.26497525,42.69425621,27.83653633,Passed,143.0257583,,,,,,,,,,,,,,,,,,,,,training,8,1,0,left,a,,,,,1186.966,1187.89,35.84,-2,-2,1,0,0,0.924,fixationPoint,1187.89,1187.977,1187.977,1189.183,35.84,10240,616.96,a,1,1.187,,1189.183,1189.376,,,,,,,,60,209,-18,167,124,126,29,78,67,-19,16,-116,74,-77,162,-170,-32,-124,-69,-126,-216,28,-221,168,-121,180,270,270,90,360,90,270,180,360,360,90,,,,,,,,,,,1189.376,1189.385,,0,112,112,112,1,12,novel,,,,,,,,,,,,,,,,,,,,,,,,,,,,,,,,,,,,,,,,,,,,,,,,,
,,14,8,${e://Field/PROLIFIC_PID,F,18,2023-11-03_17h56.08.700,MouseEye_CC,2023.2.2,Win32,60.0240096,1.28,,,1024,640,64.537,3.79,"125.67, 123.81, 137.18, 144.89, 133.92, 127.67, 145.56",740.93,11.26497525,42.69425621,27.83653633,Passed,143.0257583,,,,,,,,,,,,,,,,,,,,,training,8,2,0,left,a,,,,,1189.386,1190.107,35.84,2,1,1,0,0,0.721,fixationPoint,1190.108,1190.198,1190.198,1192.662,35.84,10240,616.96,a,1,2.445,,1192.662,1192.858,,,,,,,,31,-216,64,213,32,126,29,74,116,-223,-31,-173,-114,-168,-174,28,-64,168,-121,73,-20,-29,210,-166,79,360,270,360,90,270,180,90,270,360,90,180,,,,,,,,,,,1192.858,1192.86,,0,113,113,113,1,15,novel,,,,,,,,,,,,,,,,,,,,,,,,,,,,,,,,,,,,,,,,,,,,,,,,,
,,14,8,${e://Field/PROLIFIC_PID,F,18,2023-11-03_17h56.08.700,MouseEye_CC,2023.2.2,Win32,60.0240096,1.28,,,1024,640,64.537,3.79,"125.67, 123.81, 137.18, 144.89, 133.92, 127.67, 145.56",740.93,11.26497525,42.69425621,27.83653633,Passed,143.0257583,,,,,,,,,,,,,,,,,,,,,training,8,3,0,left,a,,,,,1192.861,1193.586,35.84,6,-2,1,0,0,0.724,fixationPoint,1193.586,1193.675,1193.675,1196.829,35.84,10240,616.96,a,1,3.135,,1196.829,1197.027,,,,,,,,41,-224,32,160,161,30,166,125,118,-173,-114,-126,-164,-16,-26,119,-172,28,-221,112,-32,-174,23,-213,222,180,270,270,360,360,360,270,180,270,360,360,,,,,,,,,,,1197.027,1197.029,,0,114,114,114,1,4,repeated,,,,,,,,,,,,,,,,,,,,,,,,,,,,,,,,,,,,,,,,,,,,,,,,,
,,14,8,${e://Field/PROLIFIC_PID,F,18,2023-11-03_17h56.08.700,MouseEye_CC,2023.2.2,Win32,60.0240096,1.28,,,1024,640,64.537,3.79,"125.67, 123.81, 137.18, 144.89, 133.92, 127.67, 145.56",740.93,11.26497525,42.69425621,27.83653633,Passed,143.0257583,,,,,,,,,,,,,,,,,,,,,training,8,4,180,right,s,,,,,1197.031,1197.762,35.84,6,-3,1,0,0,0.731,fixationPoint,1197.762,1197.857,1197.858,1200.911,35.84,10240,616.96,s,1,3.036,,1200.911,1201.106,,,,,,,,61,-213,-74,160,161,209,72,209,167,-216,64,-28,79,-174,217,215,-168,27,-120,224,-75,-214,-170,-173,-216,270,90,270,360,270,360,270,90,90,270,180,,,,,,,,,,,1201.106,1201.108,,0,115,115,115,1,10,novel,,,,,,,,,,,,,,,,,,,,,,,,,,,,,,,,,,,,,,,,,,,,,,,,,
,,14,8,${e://Field/PROLIFIC_PID,F,18,2023-11-03_17h56.08.700,MouseEye_CC,2023.2.2,Win32,60.0240096,1.28,,,1024,640,64.537,3.79,"125.67, 123.81, 137.18, 144.89, 133.92, 127.67, 145.56",740.93,11.26497525,42.69425621,27.83653633,Passed,143.0257583,,,,,,,,,,,,,,,,,,,,,training,8,5,180,right,s,,,,,1201.111,1202.115,35.84,4,2,1,0,0,1.003,fixationPoint,1202.115,1202.244,1202.244,1204.211,35.84,10240,616.96,s,1,1.943,,1204.211,1204.407,,,,,,,,71,-218,-127,208,211,124,172,125,118,-176,122,-224,32,-216,64,28,-221,215,-168,28,-24,-80,-23,-223,-31,360,270,180,360,180,90,90,90,180,270,90,,,,,,,,,,,1204.407,1204.408,,0,116,116,116,1,6,repeated,,,,,,,,,,,,,,,,,,,,,,,,,,,,,,,,,,,,,,,,,,,,,,,,,
,,14,8,${e://Field/PROLIFIC_PID,F,18,2023-11-03_17h56.08.700,MouseEye_CC,2023.2.2,Win32,60.0240096,1.28,,,1024,640,64.537,3.79,"125.67, 123.81, 137.18, 144.89, 133.92, 127.67, 145.56",740.93,11.26497525,42.69425621,27.83653633,Passed,143.0257583,,,,,,,,,,,,,,,,,,,,,training,8,6,180,right,s,,,,,1204.411,1205.162,35.84,3,-1,1,0,0,0.751,fixationPoint,1205.162,1205.256,1205.257,1208.613,35.84,10240,616.96,s,1,3.338,,1208.615,1208.813,,,,,,,,70,224,-75,112,64,213,32,20,27,-224,32,-31,169,-119,213,-173,-216,-126,-216,-116,-125,69,-124,165,-19,360,180,270,270,360,360,270,90,90,270,270,,,,,,,,,,,1208.813,1208.815,,0,117,117,117,1,7,repeated,,,,,,,,,,,,,,,,,,,,,,,,,,,,,,,,,,,,,,,,,,,,,,,,,
,,14,8,${e://Field/PROLIFIC_PID,F,18,2023-11-03_17h56.08.700,MouseEye_CC,2023.2.2,Win32,60.0240096,1.28,,,1024,640,64.537,3.79,"125.67, 123.81, 137.18, 144.89, 133.92, 127.67, 145.56",740.93,11.26497525,42.69425621,27.83653633,Passed,143.0257583,,,,,,,,,,,,,,,,,,,,,training,8,7,180,right,s,,,,,1208.821,1210.128,35.84,1,3,1,0,0,1.305,fixationPoint,1210.129,1210.23,1210.231,1212.065,35.84,10240,616.96,s,1,1.806,,1212.066,1212.257,,,,,,,,17,76,165,-216,64,-116,160,-218,124,-68,-209,-114,-32,-170,-68,209,-18,173,-77,119,-172,176,69,160,161,180,360,90,360,90,360,90,180,180,270,360,,,,,,,,,,,1212.257,1212.262,,0,118,118,118,1,1,repeated,,,,,,,,,,,,,,,,,,,,,,,,,,,,,,,,,,,,,,,,,,,,,,,,,
,,14,8,${e://Field/PROLIFIC_PID,F,18,2023-11-03_17h56.08.700,MouseEye_CC,2023.2.2,Win32,60.0240096,1.28,,,1024,640,64.537,3.79,"125.67, 123.81, 137.18, 144.89, 133.92, 127.67, 145.56",740.93,11.26497525,42.69425621,27.83653633,Passed,143.0257583,,,,,,,,,,,,,,,,,,,,,training,8,8,180,right,s,,,,,1212.266,1212.992,35.84,4,2,1,0,0,0.725,fixationPoint,1212.992,1213.087,1213.088,1217.04,35.84,10240,616.96,s,1,3.932,,1217.041,1217.237,,,,,,,,4,-72,224,112,64,222,113,30,166,-126,-164,-170,-68,-80,-23,20,-161,121,-70,79,-76,-176,122,-77,162,270,180,90,270,270,180,270,180,270,180,270,,,,,,,,,,,1217.237,1217.239,,0,119,119,119,1,3,repeated,,,,,,,,,,,,,,,,,,,,,,,,,,,,,,,,,,,,,,,,,,,,,,,,,
