InstrStartPage.started,InstrStartPage.stopped,participant,designid,prolificid,Gender,Age,date,expName,psychopyVersion,OS,frameRate,ratio_monitor2CRT,VirtualChinrest.started,VirtualChinrest.stopped,xRes,yRes,viewingdistance_cm,pixeldensity_px2mm,BallPos,squarePos,mm2degree,px2degree,CRT_px2degree,PassVirtualChinrest,foveaRadius_inPixel,InstrRedo.started,InstrRedo.stopped,VirtualChinrest_Redo.started,VirtualChinrest_Redo.stopped,Redo_virtualChinrest,Instruction1.started,Instruction1.stopped,keyPractice.started,keyPractice.stopped,key_keyprac.keys,key_keyprac.corr,key_keyprac.rt,key_keyprac.duration,keyPracFeedback.started,keyPracFeedback.stopped,keyPracLoop.thisRepN,keyPracLoop.thisTrialN,keyPracLoop.thisN,keyPracLoop.thisIndex,keyPracLoop.ran,phase,block,trial,targOrientdeg,targOrient,corrAnswer,Instruction2.started,Instruction2.stopped,Instruction3.started,Instruction3.stopped,fixation.started,fixation.stopped,fixationSize,mouseintial.x,mouseintial.y,mouseintial.leftButton,mouseintial.midButton,mouseintial.rightButton,mouseintial.time,mouseintial.clicked_name,greenFixation.started,greenFixation.stopped,trial.started,trial.stopped,letterSize,apertureSize,searchsize,key_respMain.keys,key_respMain.corr,key_respMain.rt,key_respMain.duration,trialFeedback.started,trialFeedback.stopped,trialsPractice.thisRepN,trialsPractice.thisTrialN,trialsPractice.thisN,trialsPractice.thisIndex,trialsPractice.ran,targetQuad,Tcondition,targcell,tlocx,tlocy,d1x,d1y,d2x,d2y,d3x,d3y,d4x,d4y,d5x,d5y,d6x,d6y,d7x,d7y,d8x,d8y,d9x,d9y,d10x,d10y,d11x,d11y,d1Orient,d2Orient,d3Orient,d4Orient,d5Orient,d6Orient,d7Orient,d8Orient,d9Orient,d10Orient,d11Orient,CheckInstr.started,CheckInstr.stopped,key_checkInstr.keys,key_checkInstr.corr,key_checkInstr.rt,key_checkInstr.duration,CheckInstr_FB.started,CheckInstr_FB.stopped,Instruction_MainExp.started,Instruction_MainExp.stopped,TakeABreak.started,TakeABreak.stopped,key_respBreak.keys,trials.thisRepN,trials.thisTrialN,trials.thisN,trials.thisIndex,trials.ran,configurationNumber,CCCondition,key_respBreak.rt,key_respBreak.duration,displayTestingPhase.started,displayTestingPhase.stopped,key_respTesting.keys,key_respTesting.corr,key_respTesting.rt,key_respTesting.duration,TakeABreak2.started,TakeABreak2.stopped,key_RespBreak.keys,Testingtrials.thisRepN,Testingtrials.thisTrialN,Testingtrials.thisN,Testingtrials.thisIndex,Testingtrials.ran,key_RespBreak.rt,key_RespBreak.duration,RecogQuestion.started,RecogQuestion.stopped,key_AnswerQues.keys,key_AnswerQues.rt,key_AnswerQues.duration,Disclose.started,Disclose.stopped,InstrRT.started,InstrRT.stopped,fixation_RT.started,fixation_RT.stopped,mouseInitial.x,mouseInitial.y,mouseInitial.leftButton,mouseInitial.midButton,mouseInitial.rightButton,mouseInitial.time,mouseInitial.clicked_name,displayRT.started,displayRT.stopped,key_respRT.keys,key_respRT.corr,key_respRT.rt,key_respRT.duration,RTtrials.thisRepN,RTtrials.thisTrialN,RTtrials.thisN,RTtrials.thisIndex,RTtrials.ran,EndOfExperiment.started,EndOfExperiment.stopped
9.99999E-05,14.3436,16,9,${e://Field/PROLIFIC_PID,F,18,2023-11-03_18h38.24.797,MouseEye_CC,2023.2.2,Win32,59.99520038,1,,,,,,,,,,,,,,,,,,,,,,,,,,,,,,,,,,,,,,,,,,,,,,,,,,,,,,,,,,,,,,,,,,,,,,,,,,,,,,,,,,,,,,,,,,,,,,,,,,,,,,,,,,,,,,,,,,,,,,,,,,,,,,,,,,,,,,,,,,,,,,,,,,,,,,,,,,,,,,,,,,,,,,,,,,,,,,,,,,
,,16,9,${e://Field/PROLIFIC_PID,F,18,2023-11-03_18h38.24.797,MouseEye_CC,2023.2.2,Win32,59.99520038,1.377416118,14.3438,127.6816,1366,768,54.916,4,"152.77, 161.4, 157.95, 155.91, 161.95, 155.91, 131.13",684.16,9.585623456,38.34249382,27.83653633,Passed,128.4473543,,,,,,,,,,,,,,,,,,,,,,,,,,,,,,,,,,,,,,,,,,,,,,,,,,,,,,,,,,,,,,,,,,,,,,,,,,,,,,,,,,,,,,,,,,,,,,,,,,,,,,,,,,,,,,,,,,,,,,,,,,,,,,,,,,,,,,,,,,,,,,,,,,,,,,,,,,,,,,,,,,,,,
,,16,9,${e://Field/PROLIFIC_PID,F,18,2023-11-03_18h38.24.797,MouseEye_CC,2023.2.2,Win32,59.99520038,1.377416118,,,1366,768,54.916,4,"152.77, 161.4, 157.95, 155.91, 161.95, 155.91, 131.13",684.16,9.585623456,38.34249382,27.83653633,Passed,128.4473543,127.6817,127.69,,,,,,,,,,,,,,,,,,,,,,,,,,,,,,,,,,,,,,,,,,,,,,,,,,,,,,,,,,,,,,,,,,,,,,,,,,,,,,,,,,,,,,,,,,,,,,,,,,,,,,,,,,,,,,,,,,,,,,,,,,,,,,,,,,,,,,,,,,,,,,,,,,,,,,,,,,,,,,,,,,,
,,16,9,${e://Field/PROLIFIC_PID,F,18,2023-11-03_18h38.24.797,MouseEye_CC,2023.2.2,Win32,59.99520038,1.28,,,1366,768,52.112,4.1,"152.77, 161.4, 157.95, 155.91, 161.95, 155.91, 131.13",684.16,9.096183435,37.29435209,27.83653633,Passed,124.9360795,,,127.6902,210.6024,failed,,,,,,,,,,,,,,,,,,,,,,,,,,,,,,,,,,,,,,,,,,,,,,,,,,,,,,,,,,,,,,,,,,,,,,,,,,,,,,,,,,,,,,,,,,,,,,,,,,,,,,,,,,,,,,,,,,,,,,,,,,,,,,,,,,,,,,,,,,,,,,,,,,,,,,,,,,,,,,,,
,,16,9,${e://Field/PROLIFIC_PID,F,18,2023-11-03_18h38.24.797,MouseEye_CC,2023.2.2,Win32,59.99520038,1.28,,,1366,768,52.112,4.1,"152.77, 161.4, 157.95, 155.91, 161.95, 155.91, 131.13",684.16,9.096183435,37.29435209,27.83653633,Passed,124.9360795,,,,,,210.6028,230.7366,,,,,,,,,,,,,,,,,,,,,,,,,,,,,,,,,,,,,,,,,,,,,,,,,,,,,,,,,,,,,,,,,,,,,,,,,,,,,,,,,,,,,,,,,,,,,,,,,,,,,,,,,,,,,,,,,,,,,,,,,,,,,,,,,,,,,,,,,,,,,,,,,,,,,,,,,,,,,,
,,16,9,${e://Field/PROLIFIC_PID,F,18,2023-11-03_18h38.24.797,MouseEye_CC,2023.2.2,Win32,59.99520038,1.28,,,1366,768,52.112,4.1,"152.77, 161.4, 157.95, 155.91, 161.95, 155.91, 131.13",684.16,9.096183435,37.29435209,27.83653633,Passed,124.9360795,,,,,,,,230.7529,232.8356,a,1,1.5373,,232.8357,233.336,0,0,0,0,1,practice,1,1,0,left,a,,,,,,,,,,,,,,,,,,,,,,,,,,,,,,,,,,,,,,,,,,,,,,,,,,,,,,,,,,,,,,,,,,,,,,,,,,,,,,,,,,,,,,,,,,,,,,,,,,,,,,,,,,,,,,,,,,,,,,,,,,,,,,,,,,,,,,,,,,,
,,16,9,${e://Field/PROLIFIC_PID,F,18,2023-11-03_18h38.24.797,MouseEye_CC,2023.2.2,Win32,59.99520038,1.28,,,1366,768,52.112,4.1,"152.77, 161.4, 157.95, 155.91, 161.95, 155.91, 131.13",684.16,9.096183435,37.29435209,27.83653633,Passed,124.9360795,,,,,,,,233.3374,235.0023,a,1,1.1463,,235.0024,235.5028,0,1,1,1,1,practice,1,2,0,left,a,,,,,,,,,,,,,,,,,,,,,,,,,,,,,,,,,,,,,,,,,,,,,,,,,,,,,,,,,,,,,,,,,,,,,,,,,,,,,,,,,,,,,,,,,,,,,,,,,,,,,,,,,,,,,,,,,,,,,,,,,,,,,,,,,,,,,,,,,,,
,,16,9,${e://Field/PROLIFIC_PID,F,18,2023-11-03_18h38.24.797,MouseEye_CC,2023.2.2,Win32,59.99520038,1.28,,,1366,768,52.112,4.1,"152.77, 161.4, 157.95, 155.91, 161.95, 155.91, 131.13",684.16,9.096183435,37.29435209,27.83653633,Passed,124.9360795,,,,,,,,235.5033,236.6192,a,1,0.5863,,236.6192,237.1195,0,2,2,2,1,practice,1,3,0,left,a,,,,,,,,,,,,,,,,,,,,,,,,,,,,,,,,,,,,,,,,,,,,,,,,,,,,,,,,,,,,,,,,,,,,,,,,,,,,,,,,,,,,,,,,,,,,,,,,,,,,,,,,,,,,,,,,,,,,,,,,,,,,,,,,,,,,,,,,,,,
,,16,9,${e://Field/PROLIFIC_PID,F,18,2023-11-03_18h38.24.797,MouseEye_CC,2023.2.2,Win32,59.99520038,1.28,,,1366,768,52.112,4.1,"152.77, 161.4, 157.95, 155.91, 161.95, 155.91, 131.13",684.16,9.096183435,37.29435209,27.83653633,Passed,124.9360795,,,,,,,,237.1201,238.2696,s,1,0.6249,,238.2697,238.7695,0,3,3,3,1,practice,1,4,180,right,s,,,,,,,,,,,,,,,,,,,,,,,,,,,,,,,,,,,,,,,,,,,,,,,,,,,,,,,,,,,,,,,,,,,,,,,,,,,,,,,,,,,,,,,,,,,,,,,,,,,,,,,,,,,,,,,,,,,,,,,,,,,,,,,,,,,,,,,,,,,
,,16,9,${e://Field/PROLIFIC_PID,F,18,2023-11-03_18h38.24.797,MouseEye_CC,2023.2.2,Win32,59.99520038,1.28,,,1366,768,52.112,4.1,"152.77, 161.4, 157.95, 155.91, 161.95, 155.91, 131.13",684.16,9.096183435,37.29435209,27.83653633,Passed,124.9360795,,,,,,,,238.77,239.7528,s,1,0.4711,,239.7528,240.253,0,4,4,4,1,practice,1,5,180,right,s,,,,,,,,,,,,,,,,,,,,,,,,,,,,,,,,,,,,,,,,,,,,,,,,,,,,,,,,,,,,,,,,,,,,,,,,,,,,,,,,,,,,,,,,,,,,,,,,,,,,,,,,,,,,,,,,,,,,,,,,,,,,,,,,,,,,,,,,,,,
,,16,9,${e://Field/PROLIFIC_PID,F,18,2023-11-03_18h38.24.797,MouseEye_CC,2023.2.2,Win32,59.99520038,1.28,,,1366,768,52.112,4.1,"152.77, 161.4, 157.95, 155.91, 161.95, 155.91, 131.13",684.16,9.096183435,37.29435209,27.83653633,Passed,124.9360795,,,,,,,,240.2534,241.3031,a,1,0.5319,,241.3031,241.8031,0,5,5,5,1,practice,1,6,0,left,a,,,,,,,,,,,,,,,,,,,,,,,,,,,,,,,,,,,,,,,,,,,,,,,,,,,,,,,,,,,,,,,,,,,,,,,,,,,,,,,,,,,,,,,,,,,,,,,,,,,,,,,,,,,,,,,,,,,,,,,,,,,,,,,,,,,,,,,,,,,
,,16,9,${e://Field/PROLIFIC_PID,F,18,2023-11-03_18h38.24.797,MouseEye_CC,2023.2.2,Win32,59.99520038,1.28,,,1366,768,52.112,4.1,"152.77, 161.4, 157.95, 155.91, 161.95, 155.91, 131.13",684.16,9.096183435,37.29435209,27.83653633,Passed,124.9360795,,,,,,,,,,,,,,,,,,,,,,,,,,,241.8044,248.6877,,,,,,,,,,,,,,,,,,,,,,,,,,,,,,,,,,,,,,,,,,,,,,,,,,,,,,,,,,,,,,,,,,,,,,,,,,,,,,,,,,,,,,,,,,,,,,,,,,,,,,,,,,,,,,,,,,,,,,,,,,,,,,,,,,,,,,,,,
,,16,9,${e://Field/PROLIFIC_PID,F,18,2023-11-03_18h38.24.797,MouseEye_CC,2023.2.2,Win32,59.99520038,1.28,,,1366,768,52.112,4.1,"152.77, 161.4, 157.95, 155.91, 161.95, 155.91, 131.13",684.16,9.096183435,37.29435209,27.83653633,Passed,124.9360795,,,,,,,,,,,,,,,,,,,,,,,,,,,,,248.6879,275.4222,,,,,,,,,,,,,,,,,,,,,,,,,,,,,,,,,,,,,,,,,,,,,,,,,,,,,,,,,,,,,,,,,,,,,,,,,,,,,,,,,,,,,,,,,,,,,,,,,,,,,,,,,,,,,,,,,,,,,,,,,,,,,,,,,,,,,,,
,,16,9,${e://Field/PROLIFIC_PID,F,18,2023-11-03_18h38.24.797,MouseEye_CC,2023.2.2,Win32,59.99520038,1.28,,,1366,768,52.112,4.1,"152.77, 161.4, 157.95, 155.91, 161.95, 155.91, 131.13",684.16,9.096183435,37.29435209,27.83653633,Passed,124.9360795,,,,,,,,,,,,,,,,,,,,,practice,0,1,0,left,a,,,,,275.445,284.4549,35.84,-3,-3,1,0,0,9.0097,fixationPoint,284.455,284.555,284.5551,288.0884,35.84,10240,616.96,a,1,3.508,,288.0886,288.2886,0,0,0,0,1,4,sparse,90,217,-164,68,123,222,26,214,216,-218,159,-120,223,-110,82,-115,-130,-224,-120,-68,-219,79,-175,19,-128,90,270,360,90,270,270,180,90,90,90,270,,,,,,,,,,,,,,,,,,,,,,,,,,,,,,,,,,,,,,,,,,,,,,,,,,,,,,,,,,,,,,,,,,,,,
,,16,9,${e://Field/PROLIFIC_PID,F,18,2023-11-03_18h38.24.797,MouseEye_CC,2023.2.2,Win32,59.99520038,1.28,,,1366,768,52.112,4.1,"152.77, 161.4, 157.95, 155.91, 161.95, 155.91, 131.13",684.16,9.096183435,37.29435209,27.83653633,Passed,124.9360795,,,,,,,,,,,,,,,,,,,,,practice,0,2,0,left,a,,,,,288.2894,289.6382,35.84,-3,-3,1,0,0,1.3486,fixationPoint,289.6383,289.7382,289.7382,291.4719,35.84,10240,616.96,a,1,1.7095,,291.4721,291.6721,0,1,1,1,1,1,rich,39,169,66,-126,125,-169,169,-130,19,-169,-116,-125,-167,-224,-216,218,-129,171,-218,18,-208,166,26,17,170,180,90,360,270,90,90,90,270,180,180,270,,,,,,,,,,,,,,,,,,,,,,,,,,,,,,,,,,,,,,,,,,,,,,,,,,,,,,,,,,,,,,,,,,,,,
,,16,9,${e://Field/PROLIFIC_PID,F,18,2023-11-03_18h38.24.797,MouseEye_CC,2023.2.2,Win32,59.99520038,1.28,,,1366,768,52.112,4.1,"152.77, 161.4, 157.95, 155.91, 161.95, 155.91, 131.13",684.16,9.096183435,37.29435209,27.83653633,Passed,124.9360795,,,,,,,,,,,,,,,,,,,,,practice,0,3,0,left,a,,,,,291.6728,292.4554,35.84,-3,-3,1,0,0,0.7826,fixationPoint,292.4554,292.5554,292.5554,293.9719,35.84,10240,616.96,a,1,1.3935,,293.972,294.1722,0,2,2,2,1,2,sparse,22,-162,126,222,26,17,170,126,172,-25,-117,-175,-206,-224,-216,116,-19,130,-174,217,-164,-218,159,-21,162,90,90,180,360,360,270,360,360,360,360,180,,,,,,,,,,,,,,,,,,,,,,,,,,,,,,,,,,,,,,,,,,,,,,,,,,,,,,,,,,,,,,,,,,,,,
,,16,9,${e://Field/PROLIFIC_PID,F,18,2023-11-03_18h38.24.797,MouseEye_CC,2023.2.2,Win32,59.99520038,1.28,,,1366,768,52.112,4.1,"152.77, 161.4, 157.95, 155.91, 161.95, 155.91, 131.13",684.16,9.096183435,37.29435209,27.83653633,Passed,124.9360795,,,,,,,,,,,,,,,,,,,,,practice,0,4,180,right,s,,,,,294.1729,294.8056,35.84,-3,-3,1,0,0,0.6326,fixationPoint,294.8057,294.9053,294.9053,296.477,35.84,10240,616.96,s,1,1.5512,,296.477,296.6719,0,3,3,3,1,4,sparse,76,19,-128,159,121,214,216,219,165,-218,159,-162,126,-219,119,-169,-116,-111,-31,-175,-206,18,-208,81,-114,90,270,180,180,270,180,360,360,360,270,360,,,,,,,,,,,,,,,,,,,,,,,,,,,,,,,,,,,,,,,,,,,,,,,,,,,,,,,,,,,,,,,,,,,,,
,,16,9,${e://Field/PROLIFIC_PID,F,18,2023-11-03_18h38.24.797,MouseEye_CC,2023.2.2,Win32,59.99520038,1.28,,,1366,768,52.112,4.1,"152.77, 161.4, 157.95, 155.91, 161.95, 155.91, 131.13",684.16,9.096183435,37.29435209,27.83653633,Passed,124.9360795,,,,,,,,,,,,,,,,,,,,,practice,0,5,180,right,s,,,,,296.6726,297.2055,35.84,-3,-3,1,0,0,0.5327,fixationPoint,297.2056,297.3057,297.3057,298.5262,35.84,10240,616.96,s,1,1.2002,,298.5262,298.7224,0,4,4,4,1,3,sparse,85,-19,-173,219,165,68,123,214,216,-160,68,-64,120,-226,34,162,-21,224,-216,167,-163,-167,-74,-224,-216,360,360,360,90,180,270,90,360,270,270,360,,,,,,,,,,,,,,,,,,,,,,,,,,,,,,,,,,,,,,,,,,,,,,,,,,,,,,,,,,,,,,,,,,,,,
,,16,9,${e://Field/PROLIFIC_PID,F,18,2023-11-03_18h38.24.797,MouseEye_CC,2023.2.2,Win32,59.99520038,1.28,,,1366,768,52.112,4.1,"152.77, 161.4, 157.95, 155.91, 161.95, 155.91, 131.13",684.16,9.096183435,37.29435209,27.83653633,Passed,124.9360795,,,,,,,,,,,,,,,,,,,,,practice,0,6,180,right,s,,,,,298.7231,299.2554,35.84,-3,-3,1,0,0,0.5322,fixationPoint,299.2555,299.3554,299.3555,300.76,35.84,10240,616.96,s,1,1.3838,,300.76,300.9571,0,5,5,5,1,3,sparse,95,-21,-224,126,172,219,165,166,26,-166,207,-223,206,-219,119,169,-75,18,-208,224,-216,-72,-121,-115,-130,180,180,360,180,360,180,270,180,90,180,360,,,,,,,,,,,,,,,,,,,,,,,,,,,,,,,,,,,,,,,,,,,,,,,,,,,,,,,,,,,,,,,,,,,,,
,,16,9,${e://Field/PROLIFIC_PID,F,18,2023-11-03_18h38.24.797,MouseEye_CC,2023.2.2,Win32,59.99520038,1.28,,,1366,768,52.112,4.1,"152.77, 161.4, 157.95, 155.91, 161.95, 155.91, 131.13",684.16,9.096183435,37.29435209,27.83653633,Passed,124.9360795,,,,,,,,,,,,,,,,,,,,,practice,0,7,0,left,a,,,,,300.9574,301.4557,35.84,-3,-3,1,0,0,0.4982,fixationPoint,301.4557,301.5592,301.5592,302.8892,35.84,10240,616.96,a,1,1.3056,,302.8892,303.0892,0,6,6,6,1,1,rich,7,62,223,-166,207,-226,34,-162,126,-169,-116,-168,-160,-161,-27,15,-162,162,-21,79,-175,219,165,219,129,180,180,360,180,270,360,180,360,270,180,360,,,,,,,,,,,,,,,,,,,,,,,,,,,,,,,,,,,,,,,,,,,,,,,,,,,,,,,,,,,,,,,,,,,,,
,,16,9,${e://Field/PROLIFIC_PID,F,18,2023-11-03_18h38.24.797,MouseEye_CC,2023.2.2,Win32,59.99520038,1.28,,,1366,768,52.112,4.1,"152.77, 161.4, 157.95, 155.91, 161.95, 155.91, 131.13",684.16,9.096183435,37.29435209,27.83653633,Passed,124.9360795,,,,,,,,,,,,,,,,,,,,,practice,0,8,180,right,s,,,,,303.0899,304.1727,35.84,-3,-3,1,0,0,1.0826,fixationPoint,304.1727,304.2726,304.2727,306.7724,35.84,10240,616.96,s,1,2.4759,,306.7725,306.9726,0,7,7,7,1,2,sparse,24,-64,120,18,215,126,172,33,121,-206,-170,-64,-162,-218,-78,130,-174,211,-74,168,-130,-164,32,-21,162,90,180,270,360,180,90,180,180,180,360,270,,,,,,,,,,,,,,,,,,,,,,,,,,,,,,,,,,,,,,,,,,,,,,,,,,,,,,,,,,,,,,,,,,,,,
,,16,9,${e://Field/PROLIFIC_PID,F,18,2023-11-03_18h38.24.797,MouseEye_CC,2023.2.2,Win32,59.99520038,1.28,,,1366,768,52.112,4.1,"152.77, 161.4, 157.95, 155.91, 161.95, 155.91, 131.13",684.16,9.096183435,37.29435209,27.83653633,Passed,124.9360795,,,,,,,,,,,,,,,,,,,,,practice,0,9,180,right,s,,,,,306.9733,307.4227,35.84,-3,-3,1,0,0,0.4492,fixationPoint,307.4227,307.5225,307.5225,309.2062,35.84,10240,616.96,s,1,1.6507,,309.2063,309.4058,0,8,8,8,1,3,sparse,85,-19,-173,127,30,62,223,217,67,-110,82,-21,162,-80,218,167,-163,126,-79,130,-174,-125,-167,-68,-219,360,360,360,180,360,360,180,270,90,360,180,,,,,,,,,,,,,,,,,,,,,,,,,,,,,,,,,,,,,,,,,,,,,,,,,,,,,,,,,,,,,,,,,,,,,
,,16,9,${e://Field/PROLIFIC_PID,F,18,2023-11-03_18h38.24.797,MouseEye_CC,2023.2.2,Win32,59.99520038,1.28,,,1366,768,52.112,4.1,"152.77, 161.4, 157.95, 155.91, 161.95, 155.91, 131.13",684.16,9.096183435,37.29435209,27.83653633,Passed,124.9360795,,,,,,,,,,,,,,,,,,,,,practice,0,10,180,right,s,,,,,309.4066,309.8725,35.84,-3,-3,1,0,0,0.4658,fixationPoint,309.8725,309.973,309.9732,312.1396,35.84,10240,616.96,s,1,2.1383,,312.1398,312.34,0,9,9,9,1,1,rich,9,160,209,-166,207,-226,34,-120,223,-224,-120,-118,-217,-218,-78,112,-209,126,-113,169,-75,178,160,110,129,180,90,90,270,360,270,360,180,360,180,360,,,,,,,,,,,,,,,,,,,,,,,,,,,,,,,,,,,,,,,,,,,,,,,,,,,,,,,,,,,,,,,,,,,,,
,,16,9,${e://Field/PROLIFIC_PID,F,18,2023-11-03_18h38.24.797,MouseEye_CC,2023.2.2,Win32,59.99520038,1.28,,,1366,768,52.112,4.1,"152.77, 161.4, 157.95, 155.91, 161.95, 155.91, 131.13",684.16,9.096183435,37.29435209,27.83653633,Passed,124.9360795,,,,,,,,,,,,,,,,,,,,,practice,0,11,180,right,s,,,,,312.3408,312.8563,35.84,-3,-3,1,0,0,0.5153,fixationPoint,312.8563,312.956,312.956,315.5398,35.84,10240,616.96,s,1,2.5584,,315.5399,315.7398,0,10,10,10,1,4,sparse,80,218,-129,62,223,159,121,110,129,-218,159,-223,206,-75,173,-169,-116,-118,-217,-125,-167,217,-164,169,-75,360,270,360,180,360,180,180,270,360,180,90,,,,,,,,,,,,,,,,,,,,,,,,,,,,,,,,,,,,,,,,,,,,,,,,,,,,,,,,,,,,,,,,,,,,,
,,16,9,${e://Field/PROLIFIC_PID,F,18,2023-11-03_18h38.24.797,MouseEye_CC,2023.2.2,Win32,59.99520038,1.28,,,1366,768,52.112,4.1,"152.77, 161.4, 157.95, 155.91, 161.95, 155.91, 131.13",684.16,9.096183435,37.29435209,27.83653633,Passed,124.9360795,,,,,,,,,,,,,,,,,,,,,practice,0,12,0,left,a,,,,,315.7405,316.1733,35.84,-3,-3,1,0,0,0.4325,fixationPoint,316.1734,316.2731,316.2732,317.4898,35.84,10240,616.96,a,1,1.1897,,317.4899,317.6899,0,11,11,11,1,3,sparse,75,-25,-117,110,129,125,63,214,216,-164,32,-27,117,-126,125,171,-218,126,-113,167,-163,-21,-224,-212,-21,270,180,180,360,180,270,360,270,360,180,270,,,,,,,,,,,,,,,,,,,,,,,,,,,,,,,,,,,,,,,,,,,,,,,,,,,,,,,,,,,,,,,,,,,,,
,,16,9,${e://Field/PROLIFIC_PID,F,18,2023-11-03_18h38.24.797,MouseEye_CC,2023.2.2,Win32,59.99520038,1.28,,,1366,768,52.112,4.1,"152.77, 161.4, 157.95, 155.91, 161.95, 155.91, 131.13",684.16,9.096183435,37.29435209,27.83653633,Passed,124.9360795,,,,,,,,,,,,,,,,,,,,,,,,,,,,,,,,,,,,,,,,,,,,,,,,,,,,,,,,,,,,,,,,,,,,,,,,,,,,,,,,,,,,,,,,,,,,,,,,,317.6911,328.8749,a,1,11.1518,,,,,,,,,,,,,,,,,,,,,,,,,,,,,,,,,,,,,,,,,,,,,,,,,,,,,,,,,,,,,,,,
,,16,9,${e://Field/PROLIFIC_PID,F,18,2023-11-03_18h38.24.797,MouseEye_CC,2023.2.2,Win32,59.99520038,1.28,,,1366,768,52.112,4.1,"152.77, 161.4, 157.95, 155.91, 161.95, 155.91, 131.13",684.16,9.096183435,37.29435209,27.83653633,Passed,124.9360795,,,,,,,,,,,,,,,,,,,,,,,,,,,,,,,,,,,,,,,,,,,,,,,,,,,,,,,,,,,,,,,,,,,,,,,,,,,,,,,,,,,,,,,,,,,,,,,,,,,,,,,328.8751,332.0908,,,,,,,,,,,,,,,,,,,,,,,,,,,,,,,,,,,,,,,,,,,,,,,,,,,,,,,,,,,,,
,,16,9,${e://Field/PROLIFIC_PID,F,18,2023-11-03_18h38.24.797,MouseEye_CC,2023.2.2,Win32,59.99520038,1.28,,,1366,768,52.112,4.1,"152.77, 161.4, 157.95, 155.91, 161.95, 155.91, 131.13",684.16,9.096183435,37.29435209,27.83653633,Passed,124.9360795,,,,,,,,,,,,,,,,,,,,,,,,,,,,,,,,,,,,,,,,,,,,,,,,,,,,,,,,,,,,,,,,,,,,,,,,,,,,,,,,,,,,,,,,,,,,,,,,,,,,,,,,,332.0911,334.5742,,,,,,,,,,,,,,,,,,,,,,,,,,,,,,,,,,,,,,,,,,,,,,,,,,,,,,,,,,,
,,16,9,${e://Field/PROLIFIC_PID,F,18,2023-11-03_18h38.24.797,MouseEye_CC,2023.2.2,Win32,59.99520038,1.28,,,1366,768,52.112,4.1,"152.77, 161.4, 157.95, 155.91, 161.95, 155.91, 131.13",684.16,9.096183435,37.29435209,27.83653633,Passed,124.9360795,,,,,,,,,,,,,,,,,,,,,training,1,1,0,left,a,,,,,334.6583,335.874,35.84,-3,-3,1,0,0,1.2156,fixationPoint,335.874,335.974,335.9741,338.391,35.84,10240,616.96,a,1,2.4021,,338.3911,338.5908,,,,,,,,6,17,210,-218,124,-18,73,-24,224,-116,-24,-176,-224,-17,-64,167,-25,67,-128,217,-32,118,66,71,24,90,90,180,270,180,270,360,90,90,270,180,,,,,,,,,,,338.5909,338.5927,,0,0,0,0,1,14,novel,,,,,,,,,,,,,,,,,,,,,,,,,,,,,,,,,,,,,,,,,,,,,,,,,
,,16,9,${e://Field/PROLIFIC_PID,F,18,2023-11-03_18h38.24.797,MouseEye_CC,2023.2.2,Win32,59.99520038,1.28,,,1366,768,52.112,4.1,"152.77, 161.4, 157.95, 155.91, 161.95, 155.91, 131.13",684.16,9.096183435,37.29435209,27.83653633,Passed,124.9360795,,,,,,,,,,,,,,,,,,,,,training,1,2,0,left,a,,,,,338.5932,339.5576,35.84,-3,-3,1,0,0,0.9644,fixationPoint,339.5576,339.6576,339.6576,340.7579,35.84,10240,616.96,a,1,1.083,,340.7579,340.9577,,,,,,,,50,224,31,-28,120,-68,19,-169,222,-21,-118,-224,-220,-176,-224,21,-169,22,-26,167,-25,118,66,162,219,270,270,90,270,270,180,270,360,270,270,90,,,,,,,,,,,340.9577,340.9578,,0,1,1,1,1,13,novel,,,,,,,,,,,,,,,,,,,,,,,,,,,,,,,,,,,,,,,,,,,,,,,,,
,,16,9,${e://Field/PROLIFIC_PID,F,18,2023-11-03_18h38.24.797,MouseEye_CC,2023.2.2,Win32,59.99520038,1.28,,,1366,768,52.112,4.1,"152.77, 161.4, 157.95, 155.91, 161.95, 155.91, 131.13",684.16,9.096183435,37.29435209,27.83653633,Passed,124.9360795,,,,,,,,,,,,,,,,,,,,,training,1,3,180,right,s,,,,,340.9581,341.5238,35.84,-3,-3,1,0,0,0.5656,fixationPoint,341.5238,341.6244,341.6244,343.091,35.84,10240,616.96,s,1,1.4495,,343.0911,343.2911,,,,,,,,60,217,-32,122,124,220,72,127,173,-174,19,-218,124,-25,172,-160,-69,-176,-224,-211,-115,117,-172,165,-68,360,180,90,360,270,180,90,90,270,180,90,,,,,,,,,,,343.2912,343.2914,,0,2,2,2,1,7,repeated,,,,,,,,,,,,,,,,,,,,,,,,,,,,,,,,,,,,,,,,,,,,,,,,,
,,16,9,${e://Field/PROLIFIC_PID,F,18,2023-11-03_18h38.24.797,MouseEye_CC,2023.2.2,Win32,59.99520038,1.28,,,1366,768,52.112,4.1,"152.77, 161.4, 157.95, 155.91, 161.95, 155.91, 131.13",684.16,9.096183435,37.29435209,27.83653633,Passed,124.9360795,,,,,,,,,,,,,,,,,,,,,training,1,4,180,right,s,,,,,343.2919,343.8075,35.84,-3,-3,1,0,0,0.5155,fixationPoint,343.8075,343.9075,343.9075,344.7742,35.84,10240,616.96,s,1,0.8621,,344.7742,344.9746,,,,,,,,48,116,31,-66,176,-68,19,-77,71,-69,-122,-76,-17,-21,-118,160,-168,22,-26,121,-128,168,22,222,117,90,180,180,180,270,90,360,90,90,180,90,,,,,,,,,,,344.9746,344.9749,,0,3,3,3,1,1,repeated,,,,,,,,,,,,,,,,,,,,,,,,,,,,,,,,,,,,,,,,,,,,,,,,,
,,16,9,${e://Field/PROLIFIC_PID,F,18,2023-11-03_18h38.24.797,MouseEye_CC,2023.2.2,Win32,59.99520038,1.28,,,1366,768,52.112,4.1,"152.77, 161.4, 157.95, 155.91, 161.95, 155.91, 131.13",684.16,9.096183435,37.29435209,27.83653633,Passed,124.9360795,,,,,,,,,,,,,,,,,,,,,training,1,5,0,left,a,,,,,344.9753,345.5078,35.84,-3,-3,1,0,0,0.5323,fixationPoint,345.5078,345.6077,345.6078,347.308,35.84,10240,616.96,a,1,1.6831,,347.3081,347.5079,,,,,,,,95,-26,-222,69,168,26,161,66,213,-25,172,-174,19,-163,77,121,-128,123,-79,117,-172,-68,-165,-160,-69,270,180,360,360,90,360,270,360,90,360,90,,,,,,,,,,,347.508,347.5082,,0,4,4,4,1,6,repeated,,,,,,,,,,,,,,,,,,,,,,,,,,,,,,,,,,,,,,,,,,,,,,,,,
,,16,9,${e://Field/PROLIFIC_PID,F,18,2023-11-03_18h38.24.797,MouseEye_CC,2023.2.2,Win32,59.99520038,1.28,,,1366,768,52.112,4.1,"152.77, 161.4, 157.95, 155.91, 161.95, 155.91, 131.13",684.16,9.096183435,37.29435209,27.83653633,Passed,124.9360795,,,,,,,,,,,,,,,,,,,,,training,1,6,180,right,s,,,,,347.5085,348.0748,35.84,-3,-3,1,0,0,0.5662,fixationPoint,348.0748,348.1746,348.1746,349.2078,35.84,10240,616.96,s,1,1.0238,,349.2078,349.408,,,,,,,,41,-216,24,28,72,26,161,168,65,-166,-20,-76,-17,-220,-72,68,-68,160,-168,113,-21,-30,26,-169,222,270,180,180,180,270,270,270,90,180,270,360,,,,,,,,,,,349.4081,349.4084,,0,5,5,5,1,15,novel,,,,,,,,,,,,,,,,,,,,,,,,,,,,,,,,,,,,,,,,,,,,,,,,,
,,16,9,${e://Field/PROLIFIC_PID,F,18,2023-11-03_18h38.24.797,MouseEye_CC,2023.2.2,Win32,59.99520038,1.28,,,1366,768,52.112,4.1,"152.77, 161.4, 157.95, 155.91, 161.95, 155.91, 131.13",684.16,9.096183435,37.29435209,27.83653633,Passed,124.9360795,,,,,,,,,,,,,,,,,,,,,training,1,7,180,right,s,,,,,349.4087,349.9414,35.84,-3,-3,1,0,0,0.5326,fixationPoint,349.9414,350.0413,350.0414,351.5749,35.84,10240,616.96,s,1,1.5165,,351.575,351.7748,,,,,,,,98,112,-215,116,31,69,168,112,220,-71,215,-24,224,-120,66,-67,-77,-160,-69,-220,-166,221,-162,162,-123,180,270,90,90,90,270,270,360,180,90,360,,,,,,,,,,,351.7749,351.775,,0,6,6,6,1,12,novel,,,,,,,,,,,,,,,,,,,,,,,,,,,,,,,,,,,,,,,,,,,,,,,,,
,,16,9,${e://Field/PROLIFIC_PID,F,18,2023-11-03_18h38.24.797,MouseEye_CC,2023.2.2,Win32,59.99520038,1.28,,,1366,768,52.112,4.1,"152.77, 161.4, 157.95, 155.91, 161.95, 155.91, 131.13",684.16,9.096183435,37.29435209,27.83653633,Passed,124.9360795,,,,,,,,,,,,,,,,,,,,,training,1,8,0,left,a,,,,,351.7753,352.3248,35.84,-3,-3,1,0,0,0.5493,fixationPoint,352.3249,352.425,352.4252,353.9747,35.84,10240,616.96,a,1,1.5417,,353.9747,354.175,,,,,,,,76,25,-124,26,22,17,210,222,117,-161,112,-163,77,-218,124,-120,-120,-211,-115,-212,-20,67,-221,79,-28,270,360,180,270,360,180,360,90,360,360,90,,,,,,,,,,,354.175,354.1751,,0,7,7,7,1,8,repeated,,,,,,,,,,,,,,,,,,,,,,,,,,,,,,,,,,,,,,,,,,,,,,,,,
,,16,9,${e://Field/PROLIFIC_PID,F,18,2023-11-03_18h38.24.797,MouseEye_CC,2023.2.2,Win32,59.99520038,1.28,,,1366,768,52.112,4.1,"152.77, 161.4, 157.95, 155.91, 161.95, 155.91, 131.13",684.16,9.096183435,37.29435209,27.83653633,Passed,124.9360795,,,,,,,,,,,,,,,,,,,,,training,1,9,0,left,a,,,,,354.1755,354.6414,35.84,-3,-3,1,0,0,0.4658,fixationPoint,354.6415,354.7413,354.7414,356.4753,35.84,10240,616.96,a,1,1.7164,,356.4754,356.675,,,,,,,,25,-28,120,71,24,26,161,168,22,-68,-165,-172,-175,-21,-118,68,-68,22,-26,21,-169,-174,19,-120,66,90,270,180,270,90,360,270,180,360,180,270,,,,,,,,,,,356.675,356.6752,,0,8,8,8,1,16,novel,,,,,,,,,,,,,,,,,,,,,,,,,,,,,,,,,,,,,,,,,,,,,,,,,
,,16,9,${e://Field/PROLIFIC_PID,F,18,2023-11-03_18h38.24.797,MouseEye_CC,2023.2.2,Win32,59.99520038,1.28,,,1366,768,52.112,4.1,"152.77, 161.4, 157.95, 155.91, 161.95, 155.91, 131.13",684.16,9.096183435,37.29435209,27.83653633,Passed,124.9360795,,,,,,,,,,,,,,,,,,,,,training,1,10,180,right,s,,,,,356.6756,357.1751,35.84,-3,-3,1,0,0,0.4995,fixationPoint,357.1752,357.2752,357.2752,358.2585,35.84,10240,616.96,s,1,0.9684,,358.2585,358.4585,,,,,,,,58,113,-21,122,124,118,66,168,22,-30,26,-28,120,-120,213,-17,-64,-121,-162,-120,-120,160,-220,21,-169,270,180,90,180,90,90,360,90,270,270,90,,,,,,,,,,,358.4585,358.4586,,0,9,9,9,1,11,novel,,,,,,,,,,,,,,,,,,,,,,,,,,,,,,,,,,,,,,,,,,,,,,,,,
,,16,9,${e://Field/PROLIFIC_PID,F,18,2023-11-03_18h38.24.797,MouseEye_CC,2023.2.2,Win32,59.99520038,1.28,,,1366,768,52.112,4.1,"152.77, 161.4, 157.95, 155.91, 161.95, 155.91, 131.13",684.16,9.096183435,37.29435209,27.83653633,Passed,124.9360795,,,,,,,,,,,,,,,,,,,,,training,1,11,180,right,s,,,,,358.459,358.9916,35.84,-3,-3,1,0,0,0.5326,fixationPoint,358.9917,359.0916,359.0916,359.9753,35.84,10240,616.96,s,1,0.8747,,359.9753,360.1749,,,,,,,,43,-112,20,28,72,224,31,26,161,-224,-220,-18,-172,-116,-24,25,-124,22,-26,113,-21,-172,170,-25,172,180,270,270,90,90,270,360,180,180,360,180,,,,,,,,,,,360.1749,360.1749,,0,10,10,10,1,3,repeated,,,,,,,,,,,,,,,,,,,,,,,,,,,,,,,,,,,,,,,,,,,,,,,,,
,,16,9,${e://Field/PROLIFIC_PID,F,18,2023-11-03_18h38.24.797,MouseEye_CC,2023.2.2,Win32,59.99520038,1.28,,,1366,768,52.112,4.1,"152.77, 161.4, 157.95, 155.91, 161.95, 155.91, 131.13",684.16,9.096183435,37.29435209,27.83653633,Passed,124.9360795,,,,,,,,,,,,,,,,,,,,,training,1,12,180,right,s,,,,,360.1753,360.6747,35.84,-3,-3,1,0,0,0.4994,fixationPoint,360.6748,360.7752,360.7752,361.5748,35.84,10240,616.96,s,1,0.7945,,361.5749,361.7754,,,,,,,,61,-220,-72,162,219,224,210,67,77,-216,223,-169,222,-218,124,28,-68,113,-21,209,-115,-172,-175,-116,-224,180,360,270,90,180,180,360,180,90,180,360,,,,,,,,,,,361.7754,361.7756,,0,11,11,11,1,10,novel,,,,,,,,,,,,,,,,,,,,,,,,,,,,,,,,,,,,,,,,,,,,,,,,,
,,16,9,${e://Field/PROLIFIC_PID,F,18,2023-11-03_18h38.24.797,MouseEye_CC,2023.2.2,Win32,59.99520038,1.28,,,1366,768,52.112,4.1,"152.77, 161.4, 157.95, 155.91, 161.95, 155.91, 131.13",684.16,9.096183435,37.29435209,27.83653633,Passed,124.9360795,,,,,,,,,,,,,,,,,,,,,training,1,13,180,right,s,,,,,361.776,362.2249,35.84,-3,-3,1,0,0,0.4489,fixationPoint,362.225,362.3253,362.3253,363.9585,35.84,10240,616.96,s,1,1.6249,,363.9586,364.1584,,,,,,,,40,220,72,-25,172,-112,20,-120,213,-76,-17,-21,-118,-26,-222,121,-128,221,-162,219,-212,222,169,20,127,270,90,90,360,90,360,270,360,90,90,180,,,,,,,,,,,364.1584,364.1585,,0,12,12,12,1,2,repeated,,,,,,,,,,,,,,,,,,,,,,,,,,,,,,,,,,,,,,,,,,,,,,,,,
,,16,9,${e://Field/PROLIFIC_PID,F,18,2023-11-03_18h38.24.797,MouseEye_CC,2023.2.2,Win32,59.99520038,1.28,,,1366,768,52.112,4.1,"152.77, 161.4, 157.95, 155.91, 161.95, 155.91, 131.13",684.16,9.096183435,37.29435209,27.83653633,Passed,124.9360795,,,,,,,,,,,,,,,,,,,,,training,1,14,0,left,a,,,,,364.1589,364.6084,35.84,-3,-3,1,0,0,0.4494,fixationPoint,364.6085,364.7088,364.7088,365.6255,35.84,10240,616.96,a,1,0.9001,,365.6255,365.8256,,,,,,,,53,-116,-24,69,168,17,210,67,77,-169,222,-28,120,-120,115,113,-21,221,-74,67,-128,-116,-80,-120,-120,90,90,360,180,180,270,270,90,360,360,360,,,,,,,,,,,365.8256,365.8258,,0,13,13,13,1,9,novel,,,,,,,,,,,,,,,,,,,,,,,,,,,,,,,,,,,,,,,,,,,,,,,,,
,,16,9,${e://Field/PROLIFIC_PID,F,18,2023-11-03_18h38.24.797,MouseEye_CC,2023.2.2,Win32,59.99520038,1.28,,,1366,768,52.112,4.1,"152.77, 161.4, 157.95, 155.91, 161.95, 155.91, 131.13",684.16,9.096183435,37.29435209,27.83653633,Passed,124.9360795,,,,,,,,,,,,,,,,,,,,,training,1,15,0,left,a,,,,,365.8263,366.2753,35.84,-3,-3,1,0,0,0.4489,fixationPoint,366.2753,366.3755,366.3755,367.2088,35.84,10240,616.96,a,1,0.8199,,367.209,367.4088,,,,,,,,51,-212,-20,26,22,222,169,122,124,-71,215,-216,223,-163,77,67,-221,167,-25,165,-68,-172,-175,-116,-80,270,360,90,270,360,270,180,360,180,270,360,,,,,,,,,,,367.4088,367.409,,0,14,14,14,1,5,repeated,,,,,,,,,,,,,,,,,,,,,,,,,,,,,,,,,,,,,,,,,,,,,,,,,
,,16,9,${e://Field/PROLIFIC_PID,F,18,2023-11-03_18h38.24.797,MouseEye_CC,2023.2.2,Win32,59.99520038,1.28,,,1366,768,52.112,4.1,"152.77, 161.4, 157.95, 155.91, 161.95, 155.91, 131.13",684.16,9.096183435,37.29435209,27.83653633,Passed,124.9360795,,,,,,,,,,,,,,,,,,,,,training,1,16,0,left,a,,,,,367.4093,367.9089,35.84,-3,-3,1,0,0,0.4995,fixationPoint,367.9091,368.0089,368.009,370.4925,35.84,10240,616.96,a,1,2.4645,,370.4927,370.6924,,,,,,,,3,-120,213,220,72,122,124,66,213,-120,-120,-116,-224,-21,-118,219,-212,217,-32,79,-28,-30,26,-216,24,360,360,360,270,90,360,180,360,180,90,90,,,,,,,,,,,370.6924,373.8755,space,0,15,15,15,1,4,repeated,3.1745,,,,,,,,,,,,,,,,,,,,,,,,,,,,,,,,,,,,,,,,,,,,,,,,
,,16,9,${e://Field/PROLIFIC_PID,F,18,2023-11-03_18h38.24.797,MouseEye_CC,2023.2.2,Win32,59.99520038,1.28,,,1366,768,52.112,4.1,"152.77, 161.4, 157.95, 155.91, 161.95, 155.91, 131.13",684.16,9.096183435,37.29435209,27.83653633,Passed,124.9360795,,,,,,,,,,,,,,,,,,,,,training,2,1,180,right,s,,,,,373.8821,375.5092,35.84,-3,-3,1,0,0,1.627,fixationPoint,375.5092,375.6088,375.6089,376.5761,35.84,10240,616.96,s,1,0.9492,,376.5762,376.7759,,,,,,,,53,-116,-24,161,116,220,72,127,173,-28,120,-68,19,-169,222,25,-124,162,-123,160,-220,-76,-17,-224,-220,90,270,180,180,90,360,180,90,180,270,360,,,,,,,,,,,376.7759,376.7769,,0,16,16,16,1,9,novel,,,,,,,,,,,,,,,,,,,,,,,,,,,,,,,,,,,,,,,,,,,,,,,,,
,,16,9,${e://Field/PROLIFIC_PID,F,18,2023-11-03_18h38.24.797,MouseEye_CC,2023.2.2,Win32,59.99520038,1.28,,,1366,768,52.112,4.1,"152.77, 161.4, 157.95, 155.91, 161.95, 155.91, 131.13",684.16,9.096183435,37.29435209,27.83653633,Passed,124.9360795,,,,,,,,,,,,,,,,,,,,,training,2,2,0,left,a,,,,,376.7772,377.476,35.84,-3,-3,1,0,0,0.6987,fixationPoint,377.476,377.576,377.576,378.4092,35.84,10240,616.96,a,1,0.8257,,378.4092,378.6094,,,,,,,,43,-112,20,28,72,224,31,26,161,-224,-220,-18,-172,-116,-24,25,-124,22,-26,113,-21,-172,170,-25,172,90,180,180,180,270,270,90,90,270,270,90,,,,,,,,,,,378.6095,378.6096,,0,17,17,17,1,3,repeated,,,,,,,,,,,,,,,,,,,,,,,,,,,,,,,,,,,,,,,,,,,,,,,,,
,,16,9,${e://Field/PROLIFIC_PID,F,18,2023-11-03_18h38.24.797,MouseEye_CC,2023.2.2,Win32,59.99520038,1.28,,,1366,768,52.112,4.1,"152.77, 161.4, 157.95, 155.91, 161.95, 155.91, 131.13",684.16,9.096183435,37.29435209,27.83653633,Passed,124.9360795,,,,,,,,,,,,,,,,,,,,,training,2,3,0,left,a,,,,,378.61,379.0594,35.84,-3,-3,1,0,0,0.4493,fixationPoint,379.0594,379.1594,379.1595,380.5596,35.84,10240,616.96,a,1,1.3821,,380.5596,380.7595,,,,,,,,50,224,31,-112,20,-25,172,-24,224,-21,-118,-116,-24,-121,-162,67,-128,64,-167,217,-32,127,173,116,31,90,90,270,90,180,270,270,270,360,180,270,,,,,,,,,,,380.7596,380.7597,,0,18,18,18,1,13,novel,,,,,,,,,,,,,,,,,,,,,,,,,,,,,,,,,,,,,,,,,,,,,,,,,
,,16,9,${e://Field/PROLIFIC_PID,F,18,2023-11-03_18h38.24.797,MouseEye_CC,2023.2.2,Win32,59.99520038,1.28,,,1366,768,52.112,4.1,"152.77, 161.4, 157.95, 155.91, 161.95, 155.91, 131.13",684.16,9.096183435,37.29435209,27.83653633,Passed,124.9360795,,,,,,,,,,,,,,,,,,,,,training,2,4,180,right,s,,,,,380.76,381.376,35.84,-3,-3,1,0,0,0.616,fixationPoint,381.3761,381.4758,381.4758,384.393,35.84,10240,616.96,s,1,2.8998,,384.3931,384.5929,,,,,,,,95,-26,-222,69,168,26,161,66,213,-25,172,-174,19,-163,77,121,-128,123,-79,117,-172,-68,-165,-160,-69,270,90,360,270,180,90,90,90,180,90,270,,,,,,,,,,,384.593,384.5932,,0,19,19,19,1,6,repeated,,,,,,,,,,,,,,,,,,,,,,,,,,,,,,,,,,,,,,,,,,,,,,,,,
,,16,9,${e://Field/PROLIFIC_PID,F,18,2023-11-03_18h38.24.797,MouseEye_CC,2023.2.2,Win32,59.99520038,1.28,,,1366,768,52.112,4.1,"152.77, 161.4, 157.95, 155.91, 161.95, 155.91, 131.13",684.16,9.096183435,37.29435209,27.83653633,Passed,124.9360795,,,,,,,,,,,,,,,,,,,,,training,2,5,0,left,a,,,,,384.5935,385.3263,35.84,-3,-3,1,0,0,0.7328,fixationPoint,385.3263,385.4263,385.4264,386.5599,35.84,10240,616.96,a,1,1.1158,,386.5599,386.7598,,,,,,,,60,217,-32,122,124,220,72,127,173,-174,19,-218,124,-25,172,-160,-69,-176,-224,-211,-115,117,-172,165,-68,360,360,270,90,360,90,270,270,90,90,360,,,,,,,,,,,386.7598,386.7599,,0,20,20,20,1,7,repeated,,,,,,,,,,,,,,,,,,,,,,,,,,,,,,,,,,,,,,,,,,,,,,,,,
,,16,9,${e://Field/PROLIFIC_PID,F,18,2023-11-03_18h38.24.797,MouseEye_CC,2023.2.2,Win32,59.99520038,1.28,,,1366,768,52.112,4.1,"152.77, 161.4, 157.95, 155.91, 161.95, 155.91, 131.13",684.16,9.096183435,37.29435209,27.83653633,Passed,124.9360795,,,,,,,,,,,,,,,,,,,,,training,2,6,180,right,s,,,,,386.7603,387.2844,35.84,-3,-3,1,0,0,0.524,fixationPoint,387.2845,387.3763,387.3764,389.5433,35.84,10240,616.96,s,1,2.1508,,389.5434,389.7433,,,,,,,,76,25,-124,26,22,17,210,222,117,-161,112,-163,77,-218,124,-120,-120,-211,-115,-212,-20,67,-221,79,-28,90,90,270,90,180,90,90,180,270,360,90,,,,,,,,,,,389.7433,389.7435,,0,21,21,21,1,8,repeated,,,,,,,,,,,,,,,,,,,,,,,,,,,,,,,,,,,,,,,,,,,,,,,,,
,,16,9,${e://Field/PROLIFIC_PID,F,18,2023-11-03_18h38.24.797,MouseEye_CC,2023.2.2,Win32,59.99520038,1.28,,,1366,768,52.112,4.1,"152.77, 161.4, 157.95, 155.91, 161.95, 155.91, 131.13",684.16,9.096183435,37.29435209,27.83653633,Passed,124.9360795,,,,,,,,,,,,,,,,,,,,,training,2,7,0,left,a,,,,,389.7439,390.3428,35.84,-3,-3,1,0,0,0.5988,fixationPoint,390.3428,390.4434,390.4435,392.5101,35.84,10240,616.96,a,1,2.0553,,392.5102,392.71,,,,,,,,41,-216,24,28,72,26,22,26,161,-17,-64,-160,-69,-170,-114,167,-25,28,-68,117,-172,-120,115,-218,124,180,270,360,360,180,270,180,180,180,360,360,,,,,,,,,,,392.7102,392.7103,,0,22,22,22,1,15,novel,,,,,,,,,,,,,,,,,,,,,,,,,,,,,,,,,,,,,,,,,,,,,,,,,
,,16,9,${e://Field/PROLIFIC_PID,F,18,2023-11-03_18h38.24.797,MouseEye_CC,2023.2.2,Win32,59.99520038,1.28,,,1366,768,52.112,4.1,"152.77, 161.4, 157.95, 155.91, 161.95, 155.91, 131.13",684.16,9.096183435,37.29435209,27.83653633,Passed,124.9360795,,,,,,,,,,,,,,,,,,,,,training,2,8,0,left,a,,,,,392.7107,393.2267,35.84,-3,-3,1,0,0,0.5159,fixationPoint,393.2268,393.3267,393.3268,395.4099,35.84,10240,616.96,a,1,2.0662,,395.41,395.6102,,,,,,,,6,17,210,-120,115,-216,24,-68,19,-17,-64,-80,-208,-121,-162,79,-28,167,-25,121,-128,161,160,161,116,90,360,360,270,90,90,270,360,180,360,360,,,,,,,,,,,395.6102,395.6105,,0,23,23,23,1,14,novel,,,,,,,,,,,,,,,,,,,,,,,,,,,,,,,,,,,,,,,,,,,,,,,,,
,,16,9,${e://Field/PROLIFIC_PID,F,18,2023-11-03_18h38.24.797,MouseEye_CC,2023.2.2,Win32,59.99520038,1.28,,,1366,768,52.112,4.1,"152.77, 161.4, 157.95, 155.91, 161.95, 155.91, 131.13",684.16,9.096183435,37.29435209,27.83653633,Passed,124.9360795,,,,,,,,,,,,,,,,,,,,,training,2,9,0,left,a,,,,,395.6109,396.1266,35.84,-3,-3,1,0,0,0.5157,fixationPoint,396.1266,396.2268,396.2269,398.0103,35.84,10240,616.96,a,1,1.7702,,398.0104,398.21,,,,,,,,58,113,-21,224,210,168,22,69,119,-216,24,-163,77,-68,19,-224,-220,-21,-118,-121,-162,221,-74,209,-115,180,360,180,180,270,270,90,360,90,360,90,,,,,,,,,,,398.21,398.2101,,0,24,24,24,1,11,novel,,,,,,,,,,,,,,,,,,,,,,,,,,,,,,,,,,,,,,,,,,,,,,,,,
,,16,9,${e://Field/PROLIFIC_PID,F,18,2023-11-03_18h38.24.797,MouseEye_CC,2023.2.2,Win32,59.99520038,1.28,,,1366,768,52.112,4.1,"152.77, 161.4, 157.95, 155.91, 161.95, 155.91, 131.13",684.16,9.096183435,37.29435209,27.83653633,Passed,124.9360795,,,,,,,,,,,,,,,,,,,,,training,2,10,180,right,s,,,,,398.2105,398.7433,35.84,-3,-3,1,0,0,0.5327,fixationPoint,398.7433,398.8437,398.8437,399.7273,35.84,10240,616.96,s,1,0.8672,,399.7274,399.927,,,,,,,,51,-212,-20,26,22,222,169,122,124,-71,215,-216,223,-163,77,67,-221,167,-25,165,-68,-172,-175,-116,-80,90,360,360,360,270,180,360,90,180,90,270,,,,,,,,,,,399.927,399.9272,,0,25,25,25,1,5,repeated,,,,,,,,,,,,,,,,,,,,,,,,,,,,,,,,,,,,,,,,,,,,,,,,,
,,16,9,${e://Field/PROLIFIC_PID,F,18,2023-11-03_18h38.24.797,MouseEye_CC,2023.2.2,Win32,59.99520038,1.28,,,1366,768,52.112,4.1,"152.77, 161.4, 157.95, 155.91, 161.95, 155.91, 131.13",684.16,9.096183435,37.29435209,27.83653633,Passed,124.9360795,,,,,,,,,,,,,,,,,,,,,training,2,11,0,left,a,,,,,399.9275,400.4433,35.84,-3,-3,1,0,0,0.5157,fixationPoint,400.4434,400.5439,400.544,402.0601,35.84,10240,616.96,a,1,1.4992,,402.0602,402.2606,,,,,,,,3,-120,213,220,72,122,124,66,213,-120,-120,-116,-224,-21,-118,219,-212,217,-32,79,-28,-30,26,-216,24,360,180,360,360,90,180,270,90,360,270,180,,,,,,,,,,,402.2606,402.2608,,0,26,26,26,1,4,repeated,,,,,,,,,,,,,,,,,,,,,,,,,,,,,,,,,,,,,,,,,,,,,,,,,
,,16,9,${e://Field/PROLIFIC_PID,F,18,2023-11-03_18h38.24.797,MouseEye_CC,2023.2.2,Win32,59.99520038,1.28,,,1366,768,52.112,4.1,"152.77, 161.4, 157.95, 155.91, 161.95, 155.91, 131.13",684.16,9.096183435,37.29435209,27.83653633,Passed,124.9360795,,,,,,,,,,,,,,,,,,,,,training,2,12,180,right,s,,,,,402.2611,402.8773,35.84,-3,-3,1,0,0,0.6161,fixationPoint,402.8773,402.977,402.977,404.8607,35.84,10240,616.96,s,1,1.8716,,404.8607,405.0605,,,,,,,,61,-220,-72,69,119,222,117,116,31,-169,222,-120,115,-18,73,209,-115,67,-221,112,-215,-116,-224,-18,-172,360,270,180,360,180,270,180,90,180,90,180,,,,,,,,,,,405.0605,405.0608,,0,27,27,27,1,10,novel,,,,,,,,,,,,,,,,,,,,,,,,,,,,,,,,,,,,,,,,,,,,,,,,,
,,16,9,${e://Field/PROLIFIC_PID,F,18,2023-11-03_18h38.24.797,MouseEye_CC,2023.2.2,Win32,59.99520038,1.28,,,1366,768,52.112,4.1,"152.77, 161.4, 157.95, 155.91, 161.95, 155.91, 131.13",684.16,9.096183435,37.29435209,27.83653633,Passed,124.9360795,,,,,,,,,,,,,,,,,,,,,training,2,13,0,left,a,,,,,405.0611,405.6771,35.84,-3,-3,1,0,0,0.6159,fixationPoint,405.6771,405.7769,405.7769,407.1103,35.84,10240,616.96,a,1,1.3286,,407.1103,407.3107,,,,,,,,25,-28,120,69,168,162,219,17,210,-166,-20,-212,-20,-21,-31,117,-172,123,-79,162,-123,-218,124,-30,26,360,270,180,180,270,270,360,360,180,180,270,,,,,,,,,,,407.3107,407.3109,,0,28,28,28,1,16,novel,,,,,,,,,,,,,,,,,,,,,,,,,,,,,,,,,,,,,,,,,,,,,,,,,
,,16,9,${e://Field/PROLIFIC_PID,F,18,2023-11-03_18h38.24.797,MouseEye_CC,2023.2.2,Win32,59.99520038,1.28,,,1366,768,52.112,4.1,"152.77, 161.4, 157.95, 155.91, 161.95, 155.91, 131.13",684.16,9.096183435,37.29435209,27.83653633,Passed,124.9360795,,,,,,,,,,,,,,,,,,,,,training,2,14,180,right,s,,,,,407.3113,407.827,35.84,-3,-3,1,0,0,0.5156,fixationPoint,407.8271,407.928,407.928,409.6276,35.84,10240,616.96,s,1,1.683,,409.6277,409.8276,,,,,,,,40,220,72,-25,172,-112,20,-120,213,-76,-17,-21,-118,-26,-222,121,-128,221,-162,219,-212,222,169,20,127,270,270,360,360,360,90,180,90,360,360,180,,,,,,,,,,,409.8276,409.8279,,0,29,29,29,1,2,repeated,,,,,,,,,,,,,,,,,,,,,,,,,,,,,,,,,,,,,,,,,,,,,,,,,
,,16,9,${e://Field/PROLIFIC_PID,F,18,2023-11-03_18h38.24.797,MouseEye_CC,2023.2.2,Win32,59.99520038,1.28,,,1366,768,52.112,4.1,"152.77, 161.4, 157.95, 155.91, 161.95, 155.91, 131.13",684.16,9.096183435,37.29435209,27.83653633,Passed,124.9360795,,,,,,,,,,,,,,,,,,,,,training,2,15,180,right,s,,,,,409.8283,410.361,35.84,-3,-3,1,0,0,0.5326,fixationPoint,410.361,410.4609,410.461,413.6439,35.84,10240,616.96,s,1,3.178,,413.644,413.8443,,,,,,,,98,112,-215,162,219,28,72,220,72,-169,222,-120,213,-172,170,-21,-118,-121,-162,-170,-114,167,-25,67,-221,360,270,90,180,180,90,270,270,360,90,90,,,,,,,,,,,413.8443,413.8445,,0,30,30,30,1,12,novel,,,,,,,,,,,,,,,,,,,,,,,,,,,,,,,,,,,,,,,,,,,,,,,,,
,,16,9,${e://Field/PROLIFIC_PID,F,18,2023-11-03_18h38.24.797,MouseEye_CC,2023.2.2,Win32,59.99520038,1.28,,,1366,768,52.112,4.1,"152.77, 161.4, 157.95, 155.91, 161.95, 155.91, 131.13",684.16,9.096183435,37.29435209,27.83653633,Passed,124.9360795,,,,,,,,,,,,,,,,,,,,,training,2,16,180,right,s,,,,,413.8448,414.4273,35.84,-3,-3,1,0,0,0.5824,fixationPoint,414.4273,414.5272,414.5273,415.778,35.84,10240,616.96,s,1,1.2395,,415.7781,415.9779,,,,,,,,48,116,31,-66,176,-68,19,-77,71,-69,-122,-76,-17,-21,-118,160,-168,22,-26,121,-128,168,22,222,117,360,360,180,360,360,270,180,270,180,90,90,,,,,,,,,,,415.978,419.2115,space,0,31,31,31,1,1,repeated,3.2244,,,,,,,,,,,,,,,,,,,,,,,,,,,,,,,,,,,,,,,,,,,,,,,,
,,16,9,${e://Field/PROLIFIC_PID,F,18,2023-11-03_18h38.24.797,MouseEye_CC,2023.2.2,Win32,59.99520038,1.28,,,1366,768,52.112,4.1,"152.77, 161.4, 157.95, 155.91, 161.95, 155.91, 131.13",684.16,9.096183435,37.29435209,27.83653633,Passed,124.9360795,,,,,,,,,,,,,,,,,,,,,training,3,1,0,left,a,,,,,419.2186,420.878,35.84,-3,-3,1,0,0,1.6593,fixationPoint,420.878,420.9778,420.9779,422.5114,35.84,10240,616.96,a,1,1.5235,,422.5115,422.7114,,,,,,,,58,113,-21,116,31,161,160,162,219,-71,215,-68,19,-208,74,-21,-31,-116,-224,-224,-220,160,-168,28,-68,180,90,270,270,180,90,360,90,90,360,360,,,,,,,,,,,422.7114,422.7128,,0,32,32,32,1,11,novel,,,,,,,,,,,,,,,,,,,,,,,,,,,,,,,,,,,,,,,,,,,,,,,,,
,,16,9,${e://Field/PROLIFIC_PID,F,18,2023-11-03_18h38.24.797,MouseEye_CC,2023.2.2,Win32,59.99520038,1.28,,,1366,768,52.112,4.1,"152.77, 161.4, 157.95, 155.91, 161.95, 155.91, 131.13",684.16,9.096183435,37.29435209,27.83653633,Passed,124.9360795,,,,,,,,,,,,,,,,,,,,,training,3,2,180,right,s,,,,,422.7134,423.161,35.84,-3,-3,1,0,0,0.4475,fixationPoint,423.161,423.2614,423.2614,424.295,35.84,10240,616.96,s,1,1.0205,,424.295,424.4949,,,,,,,,43,-112,20,28,72,224,31,26,161,-224,-220,-18,-172,-116,-24,25,-124,22,-26,113,-21,-172,170,-25,172,180,180,90,360,90,180,270,360,180,90,90,,,,,,,,,,,424.4949,424.495,,0,33,33,33,1,3,repeated,,,,,,,,,,,,,,,,,,,,,,,,,,,,,,,,,,,,,,,,,,,,,,,,,
,,16,9,${e://Field/PROLIFIC_PID,F,18,2023-11-03_18h38.24.797,MouseEye_CC,2023.2.2,Win32,59.99520038,1.28,,,1366,768,52.112,4.1,"152.77, 161.4, 157.95, 155.91, 161.95, 155.91, 131.13",684.16,9.096183435,37.29435209,27.83653633,Passed,124.9360795,,,,,,,,,,,,,,,,,,,,,training,3,3,180,right,s,,,,,424.4954,425.0444,35.84,-3,-3,1,0,0,0.5489,fixationPoint,425.0445,425.1449,425.1449,426.5616,35.84,10240,616.96,s,1,1.4052,,426.5616,426.7616,,,,,,,,76,25,-124,26,22,17,210,222,117,-161,112,-163,77,-218,124,-120,-120,-211,-115,-212,-20,67,-221,79,-28,180,270,270,360,360,270,90,180,90,270,360,,,,,,,,,,,426.7624,426.7626,,0,34,34,34,1,8,repeated,,,,,,,,,,,,,,,,,,,,,,,,,,,,,,,,,,,,,,,,,,,,,,,,,
,,16,9,${e://Field/PROLIFIC_PID,F,18,2023-11-03_18h38.24.797,MouseEye_CC,2023.2.2,Win32,59.99520038,1.28,,,1366,768,52.112,4.1,"152.77, 161.4, 157.95, 155.91, 161.95, 155.91, 131.13",684.16,9.096183435,37.29435209,27.83653633,Passed,124.9360795,,,,,,,,,,,,,,,,,,,,,training,3,4,0,left,a,,,,,426.7637,427.2115,35.84,-3,-3,1,0,0,0.4478,fixationPoint,427.2116,427.3116,427.3116,428.4285,35.84,10240,616.96,a,1,1.1004,,428.4286,428.6279,,,,,,,,61,-220,-72,69,119,161,116,222,169,-28,120,-216,223,-163,77,117,-172,162,-123,221,-162,-67,-77,-116,-24,180,180,360,90,90,90,180,90,360,90,360,,,,,,,,,,,428.628,428.6281,,0,35,35,35,1,10,novel,,,,,,,,,,,,,,,,,,,,,,,,,,,,,,,,,,,,,,,,,,,,,,,,,
,,16,9,${e://Field/PROLIFIC_PID,F,18,2023-11-03_18h38.24.797,MouseEye_CC,2023.2.2,Win32,59.99520038,1.28,,,1366,768,52.112,4.1,"152.77, 161.4, 157.95, 155.91, 161.95, 155.91, 131.13",684.16,9.096183435,37.29435209,27.83653633,Passed,124.9360795,,,,,,,,,,,,,,,,,,,,,training,3,5,180,right,s,,,,,428.6283,428.9614,35.84,-3,-3,1,0,0,0.3331,fixationPoint,428.9614,429.0617,429.0618,431.4123,35.84,10240,616.96,s,1,2.3372,,431.4123,431.6118,,,,,,,,25,-28,120,168,22,127,173,20,127,-220,-166,-224,-220,-21,-118,209,-115,221,-74,221,-162,-77,71,-68,19,90,360,360,360,360,270,180,360,90,90,180,,,,,,,,,,,431.6118,431.612,,0,36,36,36,1,16,novel,,,,,,,,,,,,,,,,,,,,,,,,,,,,,,,,,,,,,,,,,,,,,,,,,
,,16,9,${e://Field/PROLIFIC_PID,F,18,2023-11-03_18h38.24.797,MouseEye_CC,2023.2.2,Win32,59.99520038,1.28,,,1366,768,52.112,4.1,"152.77, 161.4, 157.95, 155.91, 161.95, 155.91, 131.13",684.16,9.096183435,37.29435209,27.83653633,Passed,124.9360795,,,,,,,,,,,,,,,,,,,,,training,3,6,0,left,a,,,,,431.6124,432.0784,35.84,-3,-3,1,0,0,0.466,fixationPoint,432.0785,432.1785,432.1785,433.8283,35.84,10240,616.96,a,1,1.6419,,433.8283,434.0286,,,,,,,,3,-120,213,220,72,122,124,66,213,-120,-120,-116,-224,-21,-118,219,-212,217,-32,79,-28,-30,26,-216,24,180,360,180,90,360,270,180,360,180,360,360,,,,,,,,,,,434.0286,434.0288,,0,37,37,37,1,4,repeated,,,,,,,,,,,,,,,,,,,,,,,,,,,,,,,,,,,,,,,,,,,,,,,,,
,,16,9,${e://Field/PROLIFIC_PID,F,18,2023-11-03_18h38.24.797,MouseEye_CC,2023.2.2,Win32,59.99520038,1.28,,,1366,768,52.112,4.1,"152.77, 161.4, 157.95, 155.91, 161.95, 155.91, 131.13",684.16,9.096183435,37.29435209,27.83653633,Passed,124.9360795,,,,,,,,,,,,,,,,,,,,,training,3,7,180,right,s,,,,,434.0292,434.5119,35.84,-3,-3,1,0,0,0.4827,fixationPoint,434.512,434.6119,434.6119,436.2616,35.84,10240,616.96,s,1,1.6414,,436.2616,436.4618,,,,,,,,98,112,-215,17,210,168,22,162,219,-163,77,-28,120,-66,176,-170,-114,-116,-224,-76,-17,64,-167,117,-172,270,180,90,180,360,180,270,180,180,180,90,,,,,,,,,,,436.4618,436.4619,,0,38,38,38,1,12,novel,,,,,,,,,,,,,,,,,,,,,,,,,,,,,,,,,,,,,,,,,,,,,,,,,
,,16,9,${e://Field/PROLIFIC_PID,F,18,2023-11-03_18h38.24.797,MouseEye_CC,2023.2.2,Win32,59.99520038,1.28,,,1366,768,52.112,4.1,"152.77, 161.4, 157.95, 155.91, 161.95, 155.91, 131.13",684.16,9.096183435,37.29435209,27.83653633,Passed,124.9360795,,,,,,,,,,,,,,,,,,,,,training,3,8,180,right,s,,,,,436.4623,436.8784,35.84,-3,-3,1,0,0,0.4161,fixationPoint,436.8785,436.9786,436.9787,437.8622,35.84,10240,616.96,s,1,0.8679,,437.8622,438.0616,,,,,,,,51,-212,-20,26,22,222,169,122,124,-71,215,-216,223,-163,77,67,-221,167,-25,165,-68,-172,-175,-116,-80,270,180,180,360,360,90,180,360,180,270,360,,,,,,,,,,,438.0617,438.0618,,0,39,39,39,1,5,repeated,,,,,,,,,,,,,,,,,,,,,,,,,,,,,,,,,,,,,,,,,,,,,,,,,
,,16,9,${e://Field/PROLIFIC_PID,F,18,2023-11-03_18h38.24.797,MouseEye_CC,2023.2.2,Win32,59.99520038,1.28,,,1366,768,52.112,4.1,"152.77, 161.4, 157.95, 155.91, 161.95, 155.91, 131.13",684.16,9.096183435,37.29435209,27.83653633,Passed,124.9360795,,,,,,,,,,,,,,,,,,,,,training,3,9,0,left,a,,,,,438.0622,438.4784,35.84,-3,-3,1,0,0,0.4161,fixationPoint,438.4786,438.5789,438.579,440.3289,35.84,10240,616.96,a,1,1.735,,440.329,440.5285,,,,,,,,6,17,210,-76,121,-161,112,-172,170,-160,-69,-18,-172,-69,-122,26,-219,79,-28,162,-123,66,213,222,169,270,360,90,180,90,90,270,180,90,360,360,,,,,,,,,,,440.5286,440.5287,,0,40,40,40,1,14,novel,,,,,,,,,,,,,,,,,,,,,,,,,,,,,,,,,,,,,,,,,,,,,,,,,
,,16,9,${e://Field/PROLIFIC_PID,F,18,2023-11-03_18h38.24.797,MouseEye_CC,2023.2.2,Win32,59.99520038,1.28,,,1366,768,52.112,4.1,"152.77, 161.4, 157.95, 155.91, 161.95, 155.91, 131.13",684.16,9.096183435,37.29435209,27.83653633,Passed,124.9360795,,,,,,,,,,,,,,,,,,,,,training,3,10,0,left,a,,,,,440.5292,440.8788,35.84,-3,-3,1,0,0,0.3496,fixationPoint,440.8788,440.9789,440.979,442.0121,35.84,10240,616.96,a,1,1.0283,,442.0122,442.2125,,,,,,,,41,-216,24,66,213,17,210,26,22,-160,-69,-26,-222,-69,-122,160,-168,112,-215,217,-32,-18,73,-208,74,360,180,180,360,90,180,270,270,180,90,270,,,,,,,,,,,442.2125,442.2128,,0,41,41,41,1,15,novel,,,,,,,,,,,,,,,,,,,,,,,,,,,,,,,,,,,,,,,,,,,,,,,,,
,,16,9,${e://Field/PROLIFIC_PID,F,18,2023-11-03_18h38.24.797,MouseEye_CC,2023.2.2,Win32,59.99520038,1.28,,,1366,768,52.112,4.1,"152.77, 161.4, 157.95, 155.91, 161.95, 155.91, 131.13",684.16,9.096183435,37.29435209,27.83653633,Passed,124.9360795,,,,,,,,,,,,,,,,,,,,,training,3,11,180,right,s,,,,,442.2132,442.5624,35.84,-3,-3,1,0,0,0.3491,fixationPoint,442.5625,442.6622,442.6623,444.5792,35.84,10240,616.96,s,1,1.9003,,444.5792,444.779,,,,,,,,95,-26,-222,69,168,26,161,66,213,-25,172,-174,19,-163,77,121,-128,123,-79,117,-172,-68,-165,-160,-69,90,90,360,180,270,180,360,270,180,180,90,,,,,,,,,,,444.7791,444.7793,,0,42,42,42,1,6,repeated,,,,,,,,,,,,,,,,,,,,,,,,,,,,,,,,,,,,,,,,,,,,,,,,,
,,16,9,${e://Field/PROLIFIC_PID,F,18,2023-11-03_18h38.24.797,MouseEye_CC,2023.2.2,Win32,59.99520038,1.28,,,1366,768,52.112,4.1,"152.77, 161.4, 157.95, 155.91, 161.95, 155.91, 131.13",684.16,9.096183435,37.29435209,27.83653633,Passed,124.9360795,,,,,,,,,,,,,,,,,,,,,training,3,12,0,left,a,,,,,444.7796,445.1791,35.84,-3,-3,1,0,0,0.3994,fixationPoint,445.1792,445.2792,445.2792,446.7292,35.84,10240,616.96,a,1,1.4332,,446.7294,446.9291,,,,,,,,53,-116,-24,224,210,67,77,224,31,-18,73,-216,223,-66,176,160,-220,117,-172,121,-128,-68,-165,-67,-77,360,360,360,90,360,90,90,180,270,90,360,,,,,,,,,,,446.9291,446.9294,,0,43,43,43,1,9,novel,,,,,,,,,,,,,,,,,,,,,,,,,,,,,,,,,,,,,,,,,,,,,,,,,
,,16,9,${e://Field/PROLIFIC_PID,F,18,2023-11-03_18h38.24.797,MouseEye_CC,2023.2.2,Win32,59.99520038,1.28,,,1366,768,52.112,4.1,"152.77, 161.4, 157.95, 155.91, 161.95, 155.91, 131.13",684.16,9.096183435,37.29435209,27.83653633,Passed,124.9360795,,,,,,,,,,,,,,,,,,,,,training,3,13,0,left,a,,,,,446.9296,447.6293,35.84,-3,-3,1,0,0,0.6995,fixationPoint,447.6294,447.7292,447.7292,450.1459,35.84,10240,616.96,a,1,2.4091,,450.1459,450.3459,,,,,,,,50,224,31,-30,26,-216,24,-224,160,-160,-69,-121,-162,-80,-208,22,-26,160,-220,26,-219,112,220,127,173,270,90,270,360,180,360,360,90,90,90,270,,,,,,,,,,,450.3459,450.3461,,0,44,44,44,1,13,novel,,,,,,,,,,,,,,,,,,,,,,,,,,,,,,,,,,,,,,,,,,,,,,,,,
,,16,9,${e://Field/PROLIFIC_PID,F,18,2023-11-03_18h38.24.797,MouseEye_CC,2023.2.2,Win32,59.99520038,1.28,,,1366,768,52.112,4.1,"152.77, 161.4, 157.95, 155.91, 161.95, 155.91, 131.13",684.16,9.096183435,37.29435209,27.83653633,Passed,124.9360795,,,,,,,,,,,,,,,,,,,,,training,3,14,180,right,s,,,,,450.3466,450.896,35.84,-3,-3,1,0,0,0.5493,fixationPoint,450.896,450.996,450.996,452.3629,35.84,10240,616.96,s,1,1.3501,,452.363,452.5634,,,,,,,,40,220,72,-25,172,-112,20,-120,213,-76,-17,-21,-118,-26,-222,121,-128,221,-162,219,-212,222,169,20,127,90,270,270,180,360,270,360,360,90,90,270,,,,,,,,,,,452.5635,452.5636,,0,45,45,45,1,2,repeated,,,,,,,,,,,,,,,,,,,,,,,,,,,,,,,,,,,,,,,,,,,,,,,,,
,,16,9,${e://Field/PROLIFIC_PID,F,18,2023-11-03_18h38.24.797,MouseEye_CC,2023.2.2,Win32,59.99520038,1.28,,,1366,768,52.112,4.1,"152.77, 161.4, 157.95, 155.91, 161.95, 155.91, 131.13",684.16,9.096183435,37.29435209,27.83653633,Passed,124.9360795,,,,,,,,,,,,,,,,,,,,,training,3,15,0,left,a,,,,,452.5639,452.9795,35.84,-3,-3,1,0,0,0.4155,fixationPoint,452.9796,453.0796,453.0796,455.1293,35.84,10240,616.96,a,1,2.0323,,455.1293,455.3296,,,,,,,,60,217,-32,122,124,220,72,127,173,-174,19,-218,124,-25,172,-160,-69,-176,-224,-211,-115,117,-172,165,-68,270,270,90,360,270,360,360,180,90,270,180,,,,,,,,,,,455.3296,455.3298,,0,46,46,46,1,7,repeated,,,,,,,,,,,,,,,,,,,,,,,,,,,,,,,,,,,,,,,,,,,,,,,,,
,,16,9,${e://Field/PROLIFIC_PID,F,18,2023-11-03_18h38.24.797,MouseEye_CC,2023.2.2,Win32,59.99520038,1.28,,,1366,768,52.112,4.1,"152.77, 161.4, 157.95, 155.91, 161.95, 155.91, 131.13",684.16,9.096183435,37.29435209,27.83653633,Passed,124.9360795,,,,,,,,,,,,,,,,,,,,,training,3,16,180,right,s,,,,,455.3301,456.0126,35.84,-3,-3,1,0,0,0.6825,fixationPoint,456.0127,456.1136,456.1136,456.9962,35.84,10240,616.96,s,1,0.8763,,456.9963,457.1963,,,,,,,,48,116,31,-66,176,-68,19,-77,71,-69,-122,-76,-17,-21,-118,160,-168,22,-26,121,-128,168,22,222,117,90,360,270,360,270,180,360,270,90,360,270,,,,,,,,,,,457.1963,463.1967,space,0,47,47,47,1,1,repeated,5.9812,,,,,,,,,,,,,,,,,,,,,,,,,,,,,,,,,,,,,,,,,,,,,,,,
,,16,9,${e://Field/PROLIFIC_PID,F,18,2023-11-03_18h38.24.797,MouseEye_CC,2023.2.2,Win32,59.99520038,1.28,,,1366,768,52.112,4.1,"152.77, 161.4, 157.95, 155.91, 161.95, 155.91, 131.13",684.16,9.096183435,37.29435209,27.83653633,Passed,124.9360795,,,,,,,,,,,,,,,,,,,,,training,4,1,0,left,a,,,,,463.2036,464.6966,35.84,-3,-3,1,0,0,1.4929,fixationPoint,464.6967,464.7966,464.7967,465.6966,35.84,10240,616.96,a,1,0.8887,,465.6967,465.8967,,,,,,,,53,-116,-24,17,210,222,117,118,66,-169,222,-216,24,-208,74,160,-220,79,-28,221,-74,-224,-220,-69,-122,270,270,180,270,180,270,180,270,180,360,90,,,,,,,,,,,465.8967,465.898,,0,48,48,48,1,9,novel,,,,,,,,,,,,,,,,,,,,,,,,,,,,,,,,,,,,,,,,,,,,,,,,,
,,16,9,${e://Field/PROLIFIC_PID,F,18,2023-11-03_18h38.24.797,MouseEye_CC,2023.2.2,Win32,59.99520038,1.28,,,1366,768,52.112,4.1,"152.77, 161.4, 157.95, 155.91, 161.95, 155.91, 131.13",684.16,9.096183435,37.29435209,27.83653633,Passed,124.9360795,,,,,,,,,,,,,,,,,,,,,training,4,2,180,right,s,,,,,465.8986,467.1799,35.84,-3,-3,1,0,0,1.2811,fixationPoint,467.1799,467.2804,467.2804,468.3465,35.84,10240,616.96,s,1,1.0611,,468.3465,468.5469,,,,,,,,50,224,31,-172,170,-71,215,-25,172,-176,-224,-166,-20,-76,-17,64,-167,160,-220,67,-128,69,168,69,119,360,90,180,360,270,270,270,180,90,270,360,,,,,,,,,,,468.5469,468.5471,,0,49,49,49,1,13,novel,,,,,,,,,,,,,,,,,,,,,,,,,,,,,,,,,,,,,,,,,,,,,,,,,
,,16,9,${e://Field/PROLIFIC_PID,F,18,2023-11-03_18h38.24.797,MouseEye_CC,2023.2.2,Win32,59.99520038,1.28,,,1366,768,52.112,4.1,"152.77, 161.4, 157.95, 155.91, 161.95, 155.91, 131.13",684.16,9.096183435,37.29435209,27.83653633,Passed,124.9360795,,,,,,,,,,,,,,,,,,,,,training,4,3,0,left,a,,,,,468.5474,468.9968,35.84,-3,-3,1,0,0,0.4492,fixationPoint,468.9969,469.0968,469.0968,470.9299,35.84,10240,616.96,a,1,1.8267,,470.9299,471.1302,,,,,,,,25,-28,120,162,219,26,22,168,22,-80,-208,-21,-31,-121,-162,167,-25,68,-68,221,-74,-76,121,-77,71,360,360,270,270,270,270,90,180,360,360,90,,,,,,,,,,,471.1303,471.1305,,0,50,50,50,1,16,novel,,,,,,,,,,,,,,,,,,,,,,,,,,,,,,,,,,,,,,,,,,,,,,,,,
,,16,9,${e://Field/PROLIFIC_PID,F,18,2023-11-03_18h38.24.797,MouseEye_CC,2023.2.2,Win32,59.99520038,1.28,,,1366,768,52.112,4.1,"152.77, 161.4, 157.95, 155.91, 161.95, 155.91, 131.13",684.16,9.096183435,37.29435209,27.83653633,Passed,124.9360795,,,,,,,,,,,,,,,,,,,,,training,4,4,0,left,a,,,,,471.1308,471.5471,35.84,-3,-3,1,0,0,0.4161,fixationPoint,471.5471,471.647,471.647,472.7301,35.84,10240,616.96,a,1,1.0725,,472.7301,472.9304,,,,,,,,51,-212,-20,26,22,222,169,122,124,-71,215,-216,223,-163,77,67,-221,167,-25,165,-68,-172,-175,-116,-80,270,360,180,180,270,180,360,360,270,90,360,,,,,,,,,,,472.9304,472.9306,,0,51,51,51,1,5,repeated,,,,,,,,,,,,,,,,,,,,,,,,,,,,,,,,,,,,,,,,,,,,,,,,,
,,16,9,${e://Field/PROLIFIC_PID,F,18,2023-11-03_18h38.24.797,MouseEye_CC,2023.2.2,Win32,59.99520038,1.28,,,1366,768,52.112,4.1,"152.77, 161.4, 157.95, 155.91, 161.95, 155.91, 131.13",684.16,9.096183435,37.29435209,27.83653633,Passed,124.9360795,,,,,,,,,,,,,,,,,,,,,training,4,5,180,right,s,,,,,472.9309,473.647,35.84,-3,-3,1,0,0,0.7159,fixationPoint,473.647,473.7472,473.7472,474.9471,35.84,10240,616.96,s,1,1.1929,,474.9472,475.1471,,,,,,,,40,220,72,-25,172,-112,20,-120,213,-76,-17,-21,-118,-26,-222,121,-128,221,-162,219,-212,222,169,20,127,180,90,360,180,180,90,270,270,270,360,180,,,,,,,,,,,475.1472,475.1474,,0,52,52,52,1,2,repeated,,,,,,,,,,,,,,,,,,,,,,,,,,,,,,,,,,,,,,,,,,,,,,,,,
,,16,9,${e://Field/PROLIFIC_PID,F,18,2023-11-03_18h38.24.797,MouseEye_CC,2023.2.2,Win32,59.99520038,1.28,,,1366,768,52.112,4.1,"152.77, 161.4, 157.95, 155.91, 161.95, 155.91, 131.13",684.16,9.096183435,37.29435209,27.83653633,Passed,124.9360795,,,,,,,,,,,,,,,,,,,,,training,4,6,180,right,s,,,,,475.1477,475.964,35.84,-3,-3,1,0,0,0.8161,fixationPoint,475.964,476.064,476.064,478.3144,35.84,10240,616.96,s,1,2.2331,,478.3146,478.514,,,,,,,,98,112,-215,122,124,222,117,220,72,-218,124,-120,115,-113,176,-18,-172,-26,-222,-211,-115,219,-212,165,-68,270,90,180,270,90,270,180,180,360,180,90,,,,,,,,,,,478.514,478.5142,,0,53,53,53,1,12,novel,,,,,,,,,,,,,,,,,,,,,,,,,,,,,,,,,,,,,,,,,,,,,,,,,
,,16,9,${e://Field/PROLIFIC_PID,F,18,2023-11-03_18h38.24.797,MouseEye_CC,2023.2.2,Win32,59.99520038,1.28,,,1366,768,52.112,4.1,"152.77, 161.4, 157.95, 155.91, 161.95, 155.91, 131.13",684.16,9.096183435,37.29435209,27.83653633,Passed,124.9360795,,,,,,,,,,,,,,,,,,,,,training,4,7,180,right,s,,,,,478.5146,479.114,35.84,-3,-3,1,0,0,0.5993,fixationPoint,479.114,479.2142,479.2143,480.3307,35.84,10240,616.96,s,1,1.1033,,480.3307,480.5307,,,,,,,,48,116,31,-66,176,-68,19,-77,71,-69,-122,-76,-17,-21,-118,160,-168,22,-26,121,-128,168,22,222,117,360,360,360,90,90,270,270,270,270,90,180,,,,,,,,,,,480.5307,480.5309,,0,54,54,54,1,1,repeated,,,,,,,,,,,,,,,,,,,,,,,,,,,,,,,,,,,,,,,,,,,,,,,,,
,,16,9,${e://Field/PROLIFIC_PID,F,18,2023-11-03_18h38.24.797,MouseEye_CC,2023.2.2,Win32,59.99520038,1.28,,,1366,768,52.112,4.1,"152.77, 161.4, 157.95, 155.91, 161.95, 155.91, 131.13",684.16,9.096183435,37.29435209,27.83653633,Passed,124.9360795,,,,,,,,,,,,,,,,,,,,,training,4,8,0,left,a,,,,,480.5312,480.9973,35.84,-3,-3,1,0,0,0.4661,fixationPoint,480.9974,481.0973,481.0974,482.7471,35.84,10240,616.96,a,1,1.645,,482.7471,482.9475,,,,,,,,3,-120,213,220,72,122,124,66,213,-120,-120,-116,-224,-21,-118,219,-212,217,-32,79,-28,-30,26,-216,24,360,270,270,270,270,180,270,270,360,270,90,,,,,,,,,,,482.9476,482.9478,,0,55,55,55,1,4,repeated,,,,,,,,,,,,,,,,,,,,,,,,,,,,,,,,,,,,,,,,,,,,,,,,,
,,16,9,${e://Field/PROLIFIC_PID,F,18,2023-11-03_18h38.24.797,MouseEye_CC,2023.2.2,Win32,59.99520038,1.28,,,1366,768,52.112,4.1,"152.77, 161.4, 157.95, 155.91, 161.95, 155.91, 131.13",684.16,9.096183435,37.29435209,27.83653633,Passed,124.9360795,,,,,,,,,,,,,,,,,,,,,training,4,9,0,left,a,,,,,482.9481,483.5308,35.84,-3,-3,1,0,0,0.5826,fixationPoint,483.5308,483.6309,483.6309,485.8227,35.84,10240,616.96,a,1,2.1737,,485.8228,486.0144,,,,,,,,6,17,210,-76,121,-77,71,-28,120,-211,-115,-21,-118,-121,-162,25,-124,221,-74,113,-21,116,31,71,24,270,180,90,360,360,180,270,90,180,270,270,,,,,,,,,,,486.0144,486.0146,,0,56,56,56,1,14,novel,,,,,,,,,,,,,,,,,,,,,,,,,,,,,,,,,,,,,,,,,,,,,,,,,
,,16,9,${e://Field/PROLIFIC_PID,F,18,2023-11-03_18h38.24.797,MouseEye_CC,2023.2.2,Win32,59.99520038,1.28,,,1366,768,52.112,4.1,"152.77, 161.4, 157.95, 155.91, 161.95, 155.91, 131.13",684.16,9.096183435,37.29435209,27.83653633,Passed,124.9360795,,,,,,,,,,,,,,,,,,,,,training,4,10,180,right,s,,,,,486.0149,486.4474,35.84,-3,-3,1,0,0,0.4323,fixationPoint,486.4474,486.5476,486.5477,487.3313,35.84,10240,616.96,s,1,0.7671,,487.3313,487.5311,,,,,,,,43,-112,20,28,72,224,31,26,161,-224,-220,-18,-172,-116,-24,25,-124,22,-26,113,-21,-172,170,-25,172,180,180,360,270,180,270,270,270,180,270,90,,,,,,,,,,,487.5311,487.5313,,0,57,57,57,1,3,repeated,,,,,,,,,,,,,,,,,,,,,,,,,,,,,,,,,,,,,,,,,,,,,,,,,
,,16,9,${e://Field/PROLIFIC_PID,F,18,2023-11-03_18h38.24.797,MouseEye_CC,2023.2.2,Win32,59.99520038,1.28,,,1366,768,52.112,4.1,"152.77, 161.4, 157.95, 155.91, 161.95, 155.91, 131.13",684.16,9.096183435,37.29435209,27.83653633,Passed,124.9360795,,,,,,,,,,,,,,,,,,,,,training,4,11,0,left,a,,,,,487.5316,487.9141,35.84,-3,-3,1,0,0,0.3825,fixationPoint,487.9142,488.0143,488.0144,489.4311,35.84,10240,616.96,a,1,1.4064,,489.4312,489.6307,,,,,,,,95,-26,-222,69,168,26,161,66,213,-25,172,-174,19,-163,77,121,-128,123,-79,117,-172,-68,-165,-160,-69,90,270,270,360,360,180,270,270,270,360,90,,,,,,,,,,,489.6307,489.631,,0,58,58,58,1,6,repeated,,,,,,,,,,,,,,,,,,,,,,,,,,,,,,,,,,,,,,,,,,,,,,,,,
,,16,9,${e://Field/PROLIFIC_PID,F,18,2023-11-03_18h38.24.797,MouseEye_CC,2023.2.2,Win32,59.99520038,1.28,,,1366,768,52.112,4.1,"152.77, 161.4, 157.95, 155.91, 161.95, 155.91, 131.13",684.16,9.096183435,37.29435209,27.83653633,Passed,124.9360795,,,,,,,,,,,,,,,,,,,,,training,4,12,180,right,s,,,,,489.6313,489.9978,35.84,-3,-3,1,0,0,0.3664,fixationPoint,489.9978,490.0978,490.0978,491.1643,35.84,10240,616.96,s,1,1.0578,,491.1643,491.3645,,,,,,,,58,113,-21,168,65,69,168,224,31,-172,170,-216,223,-18,73,-211,-115,-21,-118,-21,-31,112,-215,160,-220,360,360,270,180,90,180,360,90,270,360,270,,,,,,,,,,,491.3646,491.3647,,0,59,59,59,1,11,novel,,,,,,,,,,,,,,,,,,,,,,,,,,,,,,,,,,,,,,,,,,,,,,,,,
,,16,9,${e://Field/PROLIFIC_PID,F,18,2023-11-03_18h38.24.797,MouseEye_CC,2023.2.2,Win32,59.99520038,1.28,,,1366,768,52.112,4.1,"152.77, 161.4, 157.95, 155.91, 161.95, 155.91, 131.13",684.16,9.096183435,37.29435209,27.83653633,Passed,124.9360795,,,,,,,,,,,,,,,,,,,,,training,4,13,0,left,a,,,,,491.3653,491.9314,35.84,-3,-3,1,0,0,0.5659,fixationPoint,491.9314,492.0312,492.0313,493.4814,35.84,10240,616.96,a,1,1.4328,,493.4816,493.6813,,,,,,,,41,-216,24,69,119,168,65,26,22,-176,-224,-121,-162,-21,-31,219,-212,123,-79,68,-68,-218,124,-18,73,180,270,360,360,90,360,180,90,90,270,180,,,,,,,,,,,493.6813,493.6817,,0,60,60,60,1,15,novel,,,,,,,,,,,,,,,,,,,,,,,,,,,,,,,,,,,,,,,,,,,,,,,,,
,,16,9,${e://Field/PROLIFIC_PID,F,18,2023-11-03_18h38.24.797,MouseEye_CC,2023.2.2,Win32,59.99520038,1.28,,,1366,768,52.112,4.1,"152.77, 161.4, 157.95, 155.91, 161.95, 155.91, 131.13",684.16,9.096183435,37.29435209,27.83653633,Passed,124.9360795,,,,,,,,,,,,,,,,,,,,,training,4,14,180,right,s,,,,,493.682,494.4977,35.84,-3,-3,1,0,0,0.8157,fixationPoint,494.4978,494.598,494.598,496.1149,35.84,10240,616.96,s,1,1.5017,,496.1149,496.3147,,,,,,,,61,-220,-72,28,72,26,22,168,22,-163,77,-120,115,-172,170,64,-167,25,-124,209,-115,-212,-20,-17,-64,90,270,90,270,270,360,90,270,360,90,270,,,,,,,,,,,496.3147,496.315,,0,61,61,61,1,10,novel,,,,,,,,,,,,,,,,,,,,,,,,,,,,,,,,,,,,,,,,,,,,,,,,,
,,16,9,${e://Field/PROLIFIC_PID,F,18,2023-11-03_18h38.24.797,MouseEye_CC,2023.2.2,Win32,59.99520038,1.28,,,1366,768,52.112,4.1,"152.77, 161.4, 157.95, 155.91, 161.95, 155.91, 131.13",684.16,9.096183435,37.29435209,27.83653633,Passed,124.9360795,,,,,,,,,,,,,,,,,,,,,training,4,15,0,left,a,,,,,496.3153,497.1645,35.84,-9,-3,1,0,0,0.8491,fixationPoint,497.1645,497.2648,497.2648,499.0816,35.84,10240,616.96,a,1,1.8063,,499.0817,499.2816,,,,,,,,60,217,-32,122,124,220,72,127,173,-174,19,-218,124,-25,172,-160,-69,-176,-224,-211,-115,117,-172,165,-68,180,90,90,180,90,90,270,270,90,360,90,,,,,,,,,,,499.2816,499.2818,,0,62,62,62,1,7,repeated,,,,,,,,,,,,,,,,,,,,,,,,,,,,,,,,,,,,,,,,,,,,,,,,,
,,16,9,${e://Field/PROLIFIC_PID,F,18,2023-11-03_18h38.24.797,MouseEye_CC,2023.2.2,Win32,59.99520038,1.28,,,1366,768,52.112,4.1,"152.77, 161.4, 157.95, 155.91, 161.95, 155.91, 131.13",684.16,9.096183435,37.29435209,27.83653633,Passed,124.9360795,,,,,,,,,,,,,,,,,,,,,training,4,16,180,right,s,,,,,499.2822,500.0483,35.84,-9,-3,1,0,0,0.766,fixationPoint,500.0484,500.1489,500.1489,502.6318,35.84,10240,616.96,s,1,2.4666,,502.6318,502.8318,,,,,,,,76,25,-124,26,22,17,210,222,117,-161,112,-163,77,-218,124,-120,-120,-211,-115,-212,-20,67,-221,79,-28,90,90,270,90,90,90,180,270,270,180,360,,,,,,,,,,,502.8318,512.2154,space,0,63,63,63,1,8,repeated,9.3713,,,,,,,,,,,,,,,,,,,,,,,,,,,,,,,,,,,,,,,,,,,,,,,,
,,16,9,${e://Field/PROLIFIC_PID,F,18,2023-11-03_18h38.24.797,MouseEye_CC,2023.2.2,Win32,59.99520038,1.28,,,1366,768,52.112,4.1,"152.77, 161.4, 157.95, 155.91, 161.95, 155.91, 131.13",684.16,9.096183435,37.29435209,27.83653633,Passed,124.9360795,,,,,,,,,,,,,,,,,,,,,training,5,1,0,left,a,,,,,512.2225,513.4319,35.84,-9,-3,1,0,0,1.2094,fixationPoint,513.4319,513.5323,513.5323,515.4158,35.84,10240,616.96,a,1,1.8674,,515.4159,515.6157,,,,,,,,60,217,-32,122,124,220,72,127,173,-174,19,-218,124,-25,172,-160,-69,-176,-224,-211,-115,117,-172,165,-68,270,270,90,90,180,360,180,270,180,90,90,,,,,,,,,,,515.6157,515.6173,,0,64,64,64,1,7,repeated,,,,,,,,,,,,,,,,,,,,,,,,,,,,,,,,,,,,,,,,,,,,,,,,,
,,16,9,${e://Field/PROLIFIC_PID,F,18,2023-11-03_18h38.24.797,MouseEye_CC,2023.2.2,Win32,59.99520038,1.28,,,1366,768,52.112,4.1,"152.77, 161.4, 157.95, 155.91, 161.95, 155.91, 131.13",684.16,9.096183435,37.29435209,27.83653633,Passed,124.9360795,,,,,,,,,,,,,,,,,,,,,training,5,2,180,right,s,,,,,515.6178,516.2654,35.84,-9,-3,1,0,0,0.6475,fixationPoint,516.2654,516.3658,516.3658,517.3822,35.84,10240,616.96,s,1,1.0008,,517.3823,517.5823,,,,,,,,48,116,31,-66,176,-68,19,-77,71,-69,-122,-76,-17,-21,-118,160,-168,22,-26,121,-128,168,22,222,117,360,90,360,360,360,180,270,90,180,180,360,,,,,,,,,,,517.5824,517.5827,,0,65,65,65,1,1,repeated,,,,,,,,,,,,,,,,,,,,,,,,,,,,,,,,,,,,,,,,,,,,,,,,,
,,16,9,${e://Field/PROLIFIC_PID,F,18,2023-11-03_18h38.24.797,MouseEye_CC,2023.2.2,Win32,59.99520038,1.28,,,1366,768,52.112,4.1,"152.77, 161.4, 157.95, 155.91, 161.95, 155.91, 131.13",684.16,9.096183435,37.29435209,27.83653633,Passed,124.9360795,,,,,,,,,,,,,,,,,,,,,training,5,3,0,left,a,,,,,517.583,518.0824,35.84,-9,-3,1,0,0,0.4993,fixationPoint,518.0824,518.1824,518.1824,519.2159,35.84,10240,616.96,a,1,1.0197,,519.216,519.416,,,,,,,,58,113,-21,122,124,17,210,127,173,-113,176,-120,213,-169,222,-212,-20,-17,-64,-116,-80,162,-123,217,-32,360,90,270,360,360,90,360,180,270,270,180,,,,,,,,,,,519.416,519.4163,,0,66,66,66,1,11,novel,,,,,,,,,,,,,,,,,,,,,,,,,,,,,,,,,,,,,,,,,,,,,,,,,
,,16,9,${e://Field/PROLIFIC_PID,F,18,2023-11-03_18h38.24.797,MouseEye_CC,2023.2.2,Win32,59.99520038,1.28,,,1366,768,52.112,4.1,"152.77, 161.4, 157.95, 155.91, 161.95, 155.91, 131.13",684.16,9.096183435,37.29435209,27.83653633,Passed,124.9360795,,,,,,,,,,,,,,,,,,,,,training,5,4,180,right,s,,,,,519.4166,519.7823,35.84,-9,-3,1,0,0,0.3656,fixationPoint,519.7823,519.8825,519.8825,521.3321,35.84,10240,616.96,s,1,1.4444,,521.3321,521.5322,,,,,,,,98,112,-215,112,220,220,72,118,66,-77,71,-120,66,-169,222,-160,-69,-17,-64,-80,-208,79,-28,121,-128,270,360,360,360,270,180,90,270,360,90,360,,,,,,,,,,,521.5322,521.5324,,0,67,67,67,1,12,novel,,,,,,,,,,,,,,,,,,,,,,,,,,,,,,,,,,,,,,,,,,,,,,,,,
,,16,9,${e://Field/PROLIFIC_PID,F,18,2023-11-03_18h38.24.797,MouseEye_CC,2023.2.2,Win32,59.99520038,1.28,,,1366,768,52.112,4.1,"152.77, 161.4, 157.95, 155.91, 161.95, 155.91, 131.13",684.16,9.096183435,37.29435209,27.83653633,Passed,124.9360795,,,,,,,,,,,,,,,,,,,,,training,5,5,0,left,a,,,,,521.5326,522.1325,35.84,-9,-3,1,0,0,0.5997,fixationPoint,522.1326,522.2328,522.2328,523.6661,35.84,10240,616.96,a,1,1.421,,523.6662,523.8661,,,,,,,,40,220,72,-25,172,-112,20,-120,213,-76,-17,-21,-118,-26,-222,121,-128,221,-162,219,-212,222,169,20,127,360,180,360,180,270,90,180,90,90,270,360,,,,,,,,,,,523.8661,523.8663,,0,68,68,68,1,2,repeated,,,,,,,,,,,,,,,,,,,,,,,,,,,,,,,,,,,,,,,,,,,,,,,,,
,,16,9,${e://Field/PROLIFIC_PID,F,18,2023-11-03_18h38.24.797,MouseEye_CC,2023.2.2,Win32,59.99520038,1.28,,,1366,768,52.112,4.1,"152.77, 161.4, 157.95, 155.91, 161.95, 155.91, 131.13",684.16,9.096183435,37.29435209,27.83653633,Passed,124.9360795,,,,,,,,,,,,,,,,,,,,,training,5,6,180,right,s,,,,,523.8667,524.2157,35.84,-9,-3,1,0,0,0.3489,fixationPoint,524.2158,524.316,524.3161,525.5661,35.84,10240,616.96,s,1,1.2344,,525.5662,525.7661,,,,,,,,6,17,210,-28,120,-216,223,-218,124,-69,-122,-18,-172,-80,-208,79,-28,165,-68,123,-79,116,31,71,24,270,90,180,270,360,180,90,360,180,180,180,,,,,,,,,,,525.7662,525.7663,,0,69,69,69,1,14,novel,,,,,,,,,,,,,,,,,,,,,,,,,,,,,,,,,,,,,,,,,,,,,,,,,
,,16,9,${e://Field/PROLIFIC_PID,F,18,2023-11-03_18h38.24.797,MouseEye_CC,2023.2.2,Win32,59.99520038,1.28,,,1366,768,52.112,4.1,"152.77, 161.4, 157.95, 155.91, 161.95, 155.91, 131.13",684.16,9.096183435,37.29435209,27.83653633,Passed,124.9360795,,,,,,,,,,,,,,,,,,,,,training,5,7,180,right,s,,,,,525.7667,526.0494,35.84,-9,-3,1,0,0,0.2826,fixationPoint,526.0494,526.1496,526.1496,527.366,35.84,10240,616.96,s,1,1.2075,,527.3662,527.5662,,,,,,,,25,-28,120,116,31,222,117,224,210,-18,-172,-160,-69,-176,-224,165,-68,219,-212,123,-79,-18,73,-161,112,270,90,360,90,180,180,270,180,180,180,180,,,,,,,,,,,527.5663,527.5666,,0,70,70,70,1,16,novel,,,,,,,,,,,,,,,,,,,,,,,,,,,,,,,,,,,,,,,,,,,,,,,,,
,,16,9,${e://Field/PROLIFIC_PID,F,18,2023-11-03_18h38.24.797,MouseEye_CC,2023.2.2,Win32,59.99520038,1.28,,,1366,768,52.112,4.1,"152.77, 161.4, 157.95, 155.91, 161.95, 155.91, 131.13",684.16,9.096183435,37.29435209,27.83653633,Passed,124.9360795,,,,,,,,,,,,,,,,,,,,,training,5,8,0,left,a,,,,,527.5669,527.9997,35.84,-9,-3,1,0,0,0.4327,fixationPoint,527.9999,528.0993,528.0993,529.2832,35.84,10240,616.96,a,1,1.1665,,529.2832,529.483,,,,,,,,76,25,-124,26,22,17,210,222,117,-161,112,-163,77,-218,124,-120,-120,-211,-115,-212,-20,67,-221,79,-28,90,270,90,360,90,180,90,270,360,180,90,,,,,,,,,,,529.483,529.4832,,0,71,71,71,1,8,repeated,,,,,,,,,,,,,,,,,,,,,,,,,,,,,,,,,,,,,,,,,,,,,,,,,
,,16,9,${e://Field/PROLIFIC_PID,F,18,2023-11-03_18h38.24.797,MouseEye_CC,2023.2.2,Win32,59.99520038,1.28,,,1366,768,52.112,4.1,"152.77, 161.4, 157.95, 155.91, 161.95, 155.91, 131.13",684.16,9.096183435,37.29435209,27.83653633,Passed,124.9360795,,,,,,,,,,,,,,,,,,,,,training,5,9,180,right,s,,,,,529.4835,529.8996,35.84,-9,-3,1,0,0,0.416,fixationPoint,529.8996,529.9997,529.9998,530.7994,35.84,10240,616.96,s,1,0.7942,,530.7994,530.9994,,,,,,,,53,-116,-24,26,22,224,31,224,210,-112,20,-218,124,-172,170,221,-162,121,-128,64,-167,-116,-80,-69,-122,90,180,180,360,180,180,90,180,180,180,90,,,,,,,,,,,530.9995,530.9996,,0,72,72,72,1,9,novel,,,,,,,,,,,,,,,,,,,,,,,,,,,,,,,,,,,,,,,,,,,,,,,,,
,,16,9,${e://Field/PROLIFIC_PID,F,18,2023-11-03_18h38.24.797,MouseEye_CC,2023.2.2,Win32,59.99520038,1.28,,,1366,768,52.112,4.1,"152.77, 161.4, 157.95, 155.91, 161.95, 155.91, 131.13",684.16,9.096183435,37.29435209,27.83653633,Passed,124.9360795,,,,,,,,,,,,,,,,,,,,,training,5,10,0,left,a,,,,,531,531.502,35.84,-9,-3,1,0,0,0.5018,fixationPoint,531.5021,531.5997,531.5997,532.3672,35.84,10240,616.96,a,1,0.7495,,532.3673,532.5665,,,,,,,,43,-112,20,28,72,224,31,26,161,-224,-220,-18,-172,-116,-24,25,-124,22,-26,113,-21,-172,170,-25,172,90,360,90,90,270,90,180,90,270,90,270,,,,,,,,,,,532.5665,532.5667,,0,73,73,73,1,3,repeated,,,,,,,,,,,,,,,,,,,,,,,,,,,,,,,,,,,,,,,,,,,,,,,,,
,,16,9,${e://Field/PROLIFIC_PID,F,18,2023-11-03_18h38.24.797,MouseEye_CC,2023.2.2,Win32,59.99520038,1.28,,,1366,768,52.112,4.1,"152.77, 161.4, 157.95, 155.91, 161.95, 155.91, 131.13",684.16,9.096183435,37.29435209,27.83653633,Passed,124.9360795,,,,,,,,,,,,,,,,,,,,,training,5,11,180,right,s,,,,,532.567,533.0497,35.84,-9,-3,1,0,0,0.4825,fixationPoint,533.0497,533.1497,533.1497,534.1665,35.84,10240,616.96,s,1,1.0006,,534.1666,534.3666,,,,,,,,50,224,31,-66,176,-161,112,-24,224,-67,-77,-26,-222,-21,-118,167,-25,221,-74,22,-26,161,116,168,65,90,360,180,270,360,180,270,90,90,180,360,,,,,,,,,,,534.3666,534.3667,,0,74,74,74,1,13,novel,,,,,,,,,,,,,,,,,,,,,,,,,,,,,,,,,,,,,,,,,,,,,,,,,
,,16,9,${e://Field/PROLIFIC_PID,F,18,2023-11-03_18h38.24.797,MouseEye_CC,2023.2.2,Win32,59.99520038,1.28,,,1366,768,52.112,4.1,"152.77, 161.4, 157.95, 155.91, 161.95, 155.91, 131.13",684.16,9.096183435,37.29435209,27.83653633,Passed,124.9360795,,,,,,,,,,,,,,,,,,,,,training,5,12,0,left,a,,,,,534.367,534.8165,35.84,-9,-3,1,0,0,0.4493,fixationPoint,534.8166,534.9163,534.9163,535.9499,35.84,10240,616.96,a,1,1.0232,,535.95,536.1499,,,,,,,,51,-212,-20,26,22,222,169,122,124,-71,215,-216,223,-163,77,67,-221,167,-25,165,-68,-172,-175,-116,-80,360,360,180,90,180,360,180,360,270,270,90,,,,,,,,,,,536.1499,536.1501,,0,75,75,75,1,5,repeated,,,,,,,,,,,,,,,,,,,,,,,,,,,,,,,,,,,,,,,,,,,,,,,,,
,,16,9,${e://Field/PROLIFIC_PID,F,18,2023-11-03_18h38.24.797,MouseEye_CC,2023.2.2,Win32,59.99520038,1.28,,,1366,768,52.112,4.1,"152.77, 161.4, 157.95, 155.91, 161.95, 155.91, 131.13",684.16,9.096183435,37.29435209,27.83653633,Passed,124.9360795,,,,,,,,,,,,,,,,,,,,,training,5,13,180,right,s,,,,,536.1505,536.5829,35.84,-9,-3,1,0,0,0.4324,fixationPoint,536.5829,536.6832,536.6833,538.6664,35.84,10240,616.96,s,1,1.9774,,538.6664,538.8668,,,,,,,,95,-26,-222,69,168,26,161,66,213,-25,172,-174,19,-163,77,121,-128,123,-79,117,-172,-68,-165,-160,-69,180,360,90,180,90,90,360,90,90,90,180,,,,,,,,,,,538.8669,538.8672,,0,76,76,76,1,6,repeated,,,,,,,,,,,,,,,,,,,,,,,,,,,,,,,,,,,,,,,,,,,,,,,,,
,,16,9,${e://Field/PROLIFIC_PID,F,18,2023-11-03_18h38.24.797,MouseEye_CC,2023.2.2,Win32,59.99520038,1.28,,,1366,768,52.112,4.1,"152.77, 161.4, 157.95, 155.91, 161.95, 155.91, 131.13",684.16,9.096183435,37.29435209,27.83653633,Passed,124.9360795,,,,,,,,,,,,,,,,,,,,,training,5,14,180,right,s,,,,,538.8675,539.4836,35.84,-9,-3,1,0,0,0.6159,fixationPoint,539.4836,539.5834,539.5834,541.3669,35.84,10240,616.96,s,1,1.7667,,541.3669,541.5668,,,,,,,,41,-216,24,161,116,161,160,224,210,-67,-77,-26,-222,-220,-166,22,-26,64,-167,160,-168,-218,124,-161,112,180,180,360,270,360,180,180,360,90,360,180,,,,,,,,,,,541.5668,541.567,,0,77,77,77,1,15,novel,,,,,,,,,,,,,,,,,,,,,,,,,,,,,,,,,,,,,,,,,,,,,,,,,
,,16,9,${e://Field/PROLIFIC_PID,F,18,2023-11-03_18h38.24.797,MouseEye_CC,2023.2.2,Win32,59.99520038,1.28,,,1366,768,52.112,4.1,"152.77, 161.4, 157.95, 155.91, 161.95, 155.91, 131.13",684.16,9.096183435,37.29435209,27.83653633,Passed,124.9360795,,,,,,,,,,,,,,,,,,,,,training,5,15,0,left,a,,,,,541.5674,542.1332,35.84,-9,-3,1,0,0,0.5657,fixationPoint,542.1332,542.2336,542.2337,543.234,35.84,10240,616.96,a,1,0.9881,,543.2341,543.4336,,,,,,,,61,-220,-72,122,124,66,213,222,117,-24,224,-66,176,-71,215,28,-68,21,-169,113,-21,-67,-77,-18,-172,360,270,180,270,360,90,360,180,90,90,360,,,,,,,,,,,543.4337,543.434,,0,78,78,78,1,10,novel,,,,,,,,,,,,,,,,,,,,,,,,,,,,,,,,,,,,,,,,,,,,,,,,,
,,16,9,${e://Field/PROLIFIC_PID,F,18,2023-11-03_18h38.24.797,MouseEye_CC,2023.2.2,Win32,59.99520038,1.28,,,1366,768,52.112,4.1,"152.77, 161.4, 157.95, 155.91, 161.95, 155.91, 131.13",684.16,9.096183435,37.29435209,27.83653633,Passed,124.9360795,,,,,,,,,,,,,,,,,,,,,training,5,16,0,left,a,,,,,543.4345,545.8003,35.84,-9,-3,1,0,0,2.3656,fixationPoint,545.8003,545.9003,545.9003,548.3501,35.84,10240,616.96,a,1,2.445,,548.3501,548.5505,,,,,,,,3,-120,213,220,72,122,124,66,213,-120,-120,-116,-224,-21,-118,219,-212,217,-32,79,-28,-30,26,-216,24,270,360,180,90,270,180,270,90,270,270,360,,,,,,,,,,,548.5505,551.2009,space,0,79,79,79,1,4,repeated,2.6315,,,,,,,,,,,,,,,,,,,,,,,,,,,,,,,,,,,,,,,,,,,,,,,,
,,16,9,${e://Field/PROLIFIC_PID,F,18,2023-11-03_18h38.24.797,MouseEye_CC,2023.2.2,Win32,59.99520038,1.28,,,1366,768,52.112,4.1,"152.77, 161.4, 157.95, 155.91, 161.95, 155.91, 131.13",684.16,9.096183435,37.29435209,27.83653633,Passed,124.9360795,,,,,,,,,,,,,,,,,,,,,training,6,1,180,right,s,,,,,551.2013,553.0336,35.84,-9,-3,1,0,0,1.8322,fixationPoint,553.0337,553.1342,553.1342,554.2172,35.84,10240,616.96,s,1,1.0752,,554.2172,554.4175,,,,,,,,53,-116,-24,168,22,168,65,220,72,-120,66,-161,112,-216,24,113,-21,162,-123,160,-168,-116,-224,-212,-20,90,360,360,90,180,360,270,90,270,180,270,,,,,,,,,,,554.4175,554.4189,,0,80,80,80,1,9,novel,,,,,,,,,,,,,,,,,,,,,,,,,,,,,,,,,,,,,,,,,,,,,,,,,
,,16,9,${e://Field/PROLIFIC_PID,F,18,2023-11-03_18h38.24.797,MouseEye_CC,2023.2.2,Win32,59.99520038,1.28,,,1366,768,52.112,4.1,"152.77, 161.4, 157.95, 155.91, 161.95, 155.91, 131.13",684.16,9.096183435,37.29435209,27.83653633,Passed,124.9360795,,,,,,,,,,,,,,,,,,,,,training,6,2,0,left,a,,,,,554.4202,555.2506,35.84,-9,-3,1,0,0,0.8303,fixationPoint,555.2507,555.3508,555.3509,556.7843,35.84,10240,616.96,a,1,1.4162,,556.7844,556.9842,,,,,,,,40,220,72,-25,172,-112,20,-120,213,-76,-17,-21,-118,-26,-222,121,-128,221,-162,219,-212,222,169,20,127,90,360,270,180,360,360,180,270,90,180,180,,,,,,,,,,,556.9842,556.9844,,0,81,81,81,1,2,repeated,,,,,,,,,,,,,,,,,,,,,,,,,,,,,,,,,,,,,,,,,,,,,,,,,
,,16,9,${e://Field/PROLIFIC_PID,F,18,2023-11-03_18h38.24.797,MouseEye_CC,2023.2.2,Win32,59.99520038,1.28,,,1366,768,52.112,4.1,"152.77, 161.4, 157.95, 155.91, 161.95, 155.91, 131.13",684.16,9.096183435,37.29435209,27.83653633,Passed,124.9360795,,,,,,,,,,,,,,,,,,,,,training,6,3,180,right,s,,,,,556.9847,557.5176,35.84,-9,-3,1,0,0,0.5327,fixationPoint,557.5177,557.6176,557.6176,560.401,35.84,10240,616.96,s,1,2.7721,,560.4011,560.601,,,,,,,,98,112,-215,224,210,222,117,66,213,-25,172,-71,215,-172,170,-211,-115,-21,-118,-80,-208,26,-219,121,-128,180,90,180,90,180,270,180,360,360,360,360,,,,,,,,,,,560.6011,560.6013,,0,82,82,82,1,12,novel,,,,,,,,,,,,,,,,,,,,,,,,,,,,,,,,,,,,,,,,,,,,,,,,,
,,16,9,${e://Field/PROLIFIC_PID,F,18,2023-11-03_18h38.24.797,MouseEye_CC,2023.2.2,Win32,59.99520038,1.28,,,1366,768,52.112,4.1,"152.77, 161.4, 157.95, 155.91, 161.95, 155.91, 131.13",684.16,9.096183435,37.29435209,27.83653633,Passed,124.9360795,,,,,,,,,,,,,,,,,,,,,training,6,4,180,right,s,,,,,560.6016,561.6012,35.84,-9,-3,1,0,0,0.9993,fixationPoint,561.6012,561.701,561.7011,569.1681,35.84,10240,616.96,s,1,7.4505,,569.1681,569.3679,,,,,,,,48,116,31,-66,176,-68,19,-77,71,-69,-122,-76,-17,-21,-118,160,-168,22,-26,121,-128,168,22,222,117,360,90,180,270,180,90,360,180,180,360,270,,,,,,,,,,,569.368,569.3681,,0,83,83,83,1,1,repeated,,,,,,,,,,,,,,,,,,,,,,,,,,,,,,,,,,,,,,,,,,,,,,,,,
,,16,9,${e://Field/PROLIFIC_PID,F,18,2023-11-03_18h38.24.797,MouseEye_CC,2023.2.2,Win32,59.99520038,1.28,,,1366,768,52.112,4.1,"152.77, 161.4, 157.95, 155.91, 161.95, 155.91, 131.13",684.16,9.096183435,37.29435209,27.83653633,Passed,124.9360795,,,,,,,,,,,,,,,,,,,,,training,6,5,0,left,a,,,,,569.3689,574.0346,35.84,4,0,1,0,0,4.6657,fixationPoint,574.0347,574.1347,574.1347,576.0385,35.84,10240,616.96,a,1,1.8837,,576.0385,576.2346,,,,,,,,61,-220,-72,116,31,67,77,28,72,-161,112,-30,26,-120,115,21,-169,113,-21,217,-32,-26,-222,-68,-165,180,90,90,360,180,90,90,180,180,360,90,,,,,,,,,,,576.2347,576.2351,,0,84,84,84,1,10,novel,,,,,,,,,,,,,,,,,,,,,,,,,,,,,,,,,,,,,,,,,,,,,,,,,
,,16,9,${e://Field/PROLIFIC_PID,F,18,2023-11-03_18h38.24.797,MouseEye_CC,2023.2.2,Win32,59.99520038,1.28,,,1366,768,52.112,4.1,"152.77, 161.4, 157.95, 155.91, 161.95, 155.91, 131.13",684.16,9.096183435,37.29435209,27.83653633,Passed,124.9360795,,,,,,,,,,,,,,,,,,,,,training,6,6,180,right,s,,,,,576.2359,577.2349,35.84,4,0,1,0,0,0.999,fixationPoint,577.2351,577.3351,577.3351,578.5515,35.84,10240,616.96,s,1,1.1869,,578.5516,578.7519,,,,,,,,58,113,-21,161,160,71,24,69,168,-28,120,-24,224,-163,77,-176,-224,-116,-24,-172,-175,217,-32,21,-169,360,270,360,180,90,360,90,270,270,270,360,,,,,,,,,,,578.7519,578.7521,,0,85,85,85,1,11,novel,,,,,,,,,,,,,,,,,,,,,,,,,,,,,,,,,,,,,,,,,,,,,,,,,
,,16,9,${e://Field/PROLIFIC_PID,F,18,2023-11-03_18h38.24.797,MouseEye_CC,2023.2.2,Win32,59.99520038,1.28,,,1366,768,52.112,4.1,"152.77, 161.4, 157.95, 155.91, 161.95, 155.91, 131.13",684.16,9.096183435,37.29435209,27.83653633,Passed,124.9360795,,,,,,,,,,,,,,,,,,,,,training,6,7,180,right,s,,,,,578.7528,579.3681,35.84,4,0,1,0,0,0.6152,fixationPoint,579.3681,579.4685,579.4685,580.6186,35.84,10240,616.96,s,1,1.1213,,580.6187,580.8185,,,,,,,,41,-216,24,116,31,168,22,224,210,-120,-120,-121,-162,-220,-72,112,-215,209,-115,219,-212,-208,74,-120,213,180,90,270,270,180,270,180,90,270,180,360,,,,,,,,,,,580.8186,580.8187,,0,86,86,86,1,15,novel,,,,,,,,,,,,,,,,,,,,,,,,,,,,,,,,,,,,,,,,,,,,,,,,,
,,16,9,${e://Field/PROLIFIC_PID,F,18,2023-11-03_18h38.24.797,MouseEye_CC,2023.2.2,Win32,59.99520038,1.28,,,1366,768,52.112,4.1,"152.77, 161.4, 157.95, 155.91, 161.95, 155.91, 131.13",684.16,9.096183435,37.29435209,27.83653633,Passed,124.9360795,,,,,,,,,,,,,,,,,,,,,training,6,8,0,left,a,,,,,580.8193,581.235,35.84,4,0,1,0,0,0.4155,fixationPoint,581.235,581.3349,581.335,582.3023,35.84,10240,616.96,a,1,0.9402,,582.3025,582.5021,,,,,,,,43,-112,20,28,72,224,31,26,161,-224,-220,-18,-172,-116,-24,25,-124,22,-26,113,-21,-172,170,-25,172,270,90,270,270,180,360,270,360,270,180,360,,,,,,,,,,,582.5022,582.5028,,0,87,87,87,1,3,repeated,,,,,,,,,,,,,,,,,,,,,,,,,,,,,,,,,,,,,,,,,,,,,,,,,
,,16,9,${e://Field/PROLIFIC_PID,F,18,2023-11-03_18h38.24.797,MouseEye_CC,2023.2.2,Win32,59.99520038,1.28,,,1366,768,52.112,4.1,"152.77, 161.4, 157.95, 155.91, 161.95, 155.91, 131.13",684.16,9.096183435,37.29435209,27.83653633,Passed,124.9360795,,,,,,,,,,,,,,,,,,,,,training,6,9,0,left,a,,,,,582.5037,582.8682,35.84,4,0,1,0,0,0.3644,fixationPoint,582.8683,582.9684,582.9686,584.4855,35.84,10240,616.96,a,1,1.4885,,584.4855,584.6851,,,,,,,,25,-28,120,222,117,26,161,224,31,-116,-224,-121,-162,-26,-222,165,-68,68,-68,160,-220,-66,176,-25,172,270,90,180,270,360,360,270,180,180,180,270,,,,,,,,,,,584.6852,584.6856,,0,88,88,88,1,16,novel,,,,,,,,,,,,,,,,,,,,,,,,,,,,,,,,,,,,,,,,,,,,,,,,,
,,16,9,${e://Field/PROLIFIC_PID,F,18,2023-11-03_18h38.24.797,MouseEye_CC,2023.2.2,Win32,59.99520038,1.28,,,1366,768,52.112,4.1,"152.77, 161.4, 157.95, 155.91, 161.95, 155.91, 131.13",684.16,9.096183435,37.29435209,27.83653633,Passed,124.9360795,,,,,,,,,,,,,,,,,,,,,training,6,10,180,right,s,,,,,584.6862,584.9856,35.84,4,0,1,0,0,0.2993,fixationPoint,584.9856,585.0855,585.0856,586.2853,35.84,10240,616.96,s,1,1.1684,,586.2854,586.4854,,,,,,,,76,25,-124,26,22,17,210,222,117,-161,112,-163,77,-218,124,-120,-120,-211,-115,-212,-20,67,-221,79,-28,180,270,360,90,90,360,360,90,270,270,180,,,,,,,,,,,586.4854,586.4855,,0,89,89,89,1,8,repeated,,,,,,,,,,,,,,,,,,,,,,,,,,,,,,,,,,,,,,,,,,,,,,,,,
,,16,9,${e://Field/PROLIFIC_PID,F,18,2023-11-03_18h38.24.797,MouseEye_CC,2023.2.2,Win32,59.99520038,1.28,,,1366,768,52.112,4.1,"152.77, 161.4, 157.95, 155.91, 161.95, 155.91, 131.13",684.16,9.096183435,37.29435209,27.83653633,Passed,124.9360795,,,,,,,,,,,,,,,,,,,,,training,6,11,180,right,s,,,,,586.486,586.869,35.84,4,0,1,0,0,0.3828,fixationPoint,586.8691,586.9689,586.9689,588.7856,35.84,10240,616.96,s,1,1.7863,,588.7857,588.9856,,,,,,,,3,-120,213,220,72,122,124,66,213,-120,-120,-116,-224,-21,-118,219,-212,217,-32,79,-28,-30,26,-216,24,360,180,360,90,180,180,360,360,180,90,360,,,,,,,,,,,588.9856,588.9858,,0,90,90,90,1,4,repeated,,,,,,,,,,,,,,,,,,,,,,,,,,,,,,,,,,,,,,,,,,,,,,,,,
,,16,9,${e://Field/PROLIFIC_PID,F,18,2023-11-03_18h38.24.797,MouseEye_CC,2023.2.2,Win32,59.99520038,1.28,,,1366,768,52.112,4.1,"152.77, 161.4, 157.95, 155.91, 161.95, 155.91, 131.13",684.16,9.096183435,37.29435209,27.83653633,Passed,124.9360795,,,,,,,,,,,,,,,,,,,,,training,6,12,180,right,s,,,,,588.9866,589.502,35.84,4,0,1,0,0,0.5152,fixationPoint,589.502,589.6023,589.6024,590.9228,35.84,10240,616.96,s,1,1.2998,,590.9229,591.1192,,,,,,,,51,-212,-20,26,22,222,169,122,124,-71,215,-216,223,-163,77,67,-221,167,-25,165,-68,-172,-175,-116,-80,180,180,90,270,180,90,270,90,180,180,90,,,,,,,,,,,591.1192,591.1196,,0,91,91,91,1,5,repeated,,,,,,,,,,,,,,,,,,,,,,,,,,,,,,,,,,,,,,,,,,,,,,,,,
,,16,9,${e://Field/PROLIFIC_PID,F,18,2023-11-03_18h38.24.797,MouseEye_CC,2023.2.2,Win32,59.99520038,1.28,,,1366,768,52.112,4.1,"152.77, 161.4, 157.95, 155.91, 161.95, 155.91, 131.13",684.16,9.096183435,37.29435209,27.83653633,Passed,124.9360795,,,,,,,,,,,,,,,,,,,,,training,6,13,0,left,a,,,,,591.1202,591.5689,35.84,4,0,1,0,0,0.4486,fixationPoint,591.5689,591.6691,591.6691,593.2688,35.84,10240,616.96,a,1,1.5677,,593.2688,593.4687,,,,,,,,6,17,210,-24,224,-76,121,-28,120,-68,-165,-116,-80,-220,-166,209,-115,112,-215,25,-124,112,220,69,119,90,90,360,90,90,270,270,90,90,90,360,,,,,,,,,,,593.4687,593.4688,,0,92,92,92,1,14,novel,,,,,,,,,,,,,,,,,,,,,,,,,,,,,,,,,,,,,,,,,,,,,,,,,
,,16,9,${e://Field/PROLIFIC_PID,F,18,2023-11-03_18h38.24.797,MouseEye_CC,2023.2.2,Win32,59.99520038,1.28,,,1366,768,52.112,4.1,"152.77, 161.4, 157.95, 155.91, 161.95, 155.91, 131.13",684.16,9.096183435,37.29435209,27.83653633,Passed,124.9360795,,,,,,,,,,,,,,,,,,,,,training,6,14,0,left,a,,,,,593.4695,593.7356,35.84,4,0,1,0,0,0.266,fixationPoint,593.7356,593.8358,593.8358,595.1692,35.84,10240,616.96,a,1,1.3042,,595.1692,595.3729,,,,,,,,60,217,-32,122,124,220,72,127,173,-174,19,-218,124,-25,172,-160,-69,-176,-224,-211,-115,117,-172,165,-68,180,180,270,360,90,360,90,270,360,270,270,,,,,,,,,,,595.373,595.3731,,0,93,93,93,1,7,repeated,,,,,,,,,,,,,,,,,,,,,,,,,,,,,,,,,,,,,,,,,,,,,,,,,
,,16,9,${e://Field/PROLIFIC_PID,F,18,2023-11-03_18h38.24.797,MouseEye_CC,2023.2.2,Win32,59.99520038,1.28,,,1366,768,52.112,4.1,"152.77, 161.4, 157.95, 155.91, 161.95, 155.91, 131.13",684.16,9.096183435,37.29435209,27.83653633,Passed,124.9360795,,,,,,,,,,,,,,,,,,,,,training,6,15,0,left,a,,,,,595.3734,595.7526,35.84,4,0,1,0,0,0.379,fixationPoint,595.7526,595.8525,595.8525,597.2856,35.84,10240,616.96,a,1,1.403,,597.2857,597.486,,,,,,,,50,224,31,-218,124,-216,223,-30,26,-166,-20,-21,-31,-116,-80,162,-123,25,-124,217,-32,26,161,161,160,90,90,90,270,270,90,360,180,360,180,90,,,,,,,,,,,597.486,597.4861,,0,94,94,94,1,13,novel,,,,,,,,,,,,,,,,,,,,,,,,,,,,,,,,,,,,,,,,,,,,,,,,,
,,16,9,${e://Field/PROLIFIC_PID,F,18,2023-11-03_18h38.24.797,MouseEye_CC,2023.2.2,Win32,59.99520038,1.28,,,1366,768,52.112,4.1,"152.77, 161.4, 157.95, 155.91, 161.95, 155.91, 131.13",684.16,9.096183435,37.29435209,27.83653633,Passed,124.9360795,,,,,,,,,,,,,,,,,,,,,training,6,16,0,left,a,,,,,597.4867,597.736,35.84,4,0,1,0,0,0.2491,fixationPoint,597.736,597.8359,597.8359,600.1029,35.84,10240,616.96,s,0,2.2346,,600.1029,604.1029,,,,,,,,95,-26,-222,69,168,26,161,66,213,-25,172,-174,19,-163,77,121,-128,123,-79,117,-172,-68,-165,-160,-69,90,90,360,90,360,180,360,360,360,180,270,,,,,,,,,,,604.103,606.9361,space,0,95,95,95,1,6,repeated,2.8005,,,,,,,,,,,,,,,,,,,,,,,,,,,,,,,,,,,,,,,,,,,,,,,,
,,16,9,${e://Field/PROLIFIC_PID,F,18,2023-11-03_18h38.24.797,MouseEye_CC,2023.2.2,Win32,59.99520038,1.28,,,1366,768,52.112,4.1,"152.77, 161.4, 157.95, 155.91, 161.95, 155.91, 131.13",684.16,9.096183435,37.29435209,27.83653633,Passed,124.9360795,,,,,,,,,,,,,,,,,,,,,training,7,1,180,right,s,,,,,606.9441,608.3699,35.84,4,0,1,0,0,1.4256,fixationPoint,608.3699,608.4698,608.4698,612.4409,35.84,10240,616.96,s,1,3.9505,,612.4409,612.6366,,,,,,,,58,113,-21,118,66,168,22,161,160,-25,172,-66,176,-28,120,-18,-172,-21,-118,-212,-20,221,-162,167,-25,360,180,270,360,90,270,90,360,270,360,360,,,,,,,,,,,612.6366,612.6384,,0,96,96,96,1,11,novel,,,,,,,,,,,,,,,,,,,,,,,,,,,,,,,,,,,,,,,,,,,,,,,,,
,,16,9,${e://Field/PROLIFIC_PID,F,18,2023-11-03_18h38.24.797,MouseEye_CC,2023.2.2,Win32,59.99520038,1.28,,,1366,768,52.112,4.1,"152.77, 161.4, 157.95, 155.91, 161.95, 155.91, 131.13",684.16,9.096183435,37.29435209,27.83653633,Passed,124.9360795,,,,,,,,,,,,,,,,,,,,,training,7,2,180,right,s,,,,,612.6387,613.37,35.84,4,0,1,0,0,0.7312,fixationPoint,613.37,613.4701,613.4701,615.9038,35.84,10240,616.96,s,1,2.4015,,615.9039,616.1035,,,,,,,,98,112,-215,161,160,28,72,118,66,-216,24,-120,115,-24,224,-17,-64,-116,-224,-69,-122,25,-124,21,-169,270,270,270,270,360,90,360,180,180,270,360,,,,,,,,,,,616.1035,616.1037,,0,97,97,97,1,12,novel,,,,,,,,,,,,,,,,,,,,,,,,,,,,,,,,,,,,,,,,,,,,,,,,,
,,16,9,${e://Field/PROLIFIC_PID,F,18,2023-11-03_18h38.24.797,MouseEye_CC,2023.2.2,Win32,59.99520038,1.28,,,1366,768,52.112,4.1,"152.77, 161.4, 157.95, 155.91, 161.95, 155.91, 131.13",684.16,9.096183435,37.29435209,27.83653633,Passed,124.9360795,,,,,,,,,,,,,,,,,,,,,training,7,3,180,right,s,,,,,616.1044,616.7369,35.84,4,0,1,0,0,0.6323,fixationPoint,616.7369,616.8367,616.8368,618.187,35.84,10240,616.96,s,1,1.3217,,618.1871,618.3869,,,,,,,,51,-212,-20,26,22,222,169,122,124,-71,215,-216,223,-163,77,67,-221,167,-25,165,-68,-172,-175,-116,-80,360,90,360,270,360,180,270,360,270,180,180,,,,,,,,,,,618.3869,618.387,,0,98,98,98,1,5,repeated,,,,,,,,,,,,,,,,,,,,,,,,,,,,,,,,,,,,,,,,,,,,,,,,,
,,16,9,${e://Field/PROLIFIC_PID,F,18,2023-11-03_18h38.24.797,MouseEye_CC,2023.2.2,Win32,59.99520038,1.28,,,1366,768,52.112,4.1,"152.77, 161.4, 157.95, 155.91, 161.95, 155.91, 131.13",684.16,9.096183435,37.29435209,27.83653633,Passed,124.9360795,,,,,,,,,,,,,,,,,,,,,training,7,4,0,left,a,,,,,618.3879,619.8035,35.84,4,0,1,0,0,1.4154,fixationPoint,619.8035,619.9037,619.9037,621.5038,35.84,10240,616.96,a,1,1.5684,,621.5038,621.7038,,,,,,,,41,-216,24,168,22,168,65,69,168,-211,-115,-212,-20,-17,-64,21,-169,28,-68,117,-172,-120,213,-172,170,180,270,360,270,180,360,360,90,180,360,90,,,,,,,,,,,621.7039,621.7041,,0,99,99,99,1,15,novel,,,,,,,,,,,,,,,,,,,,,,,,,,,,,,,,,,,,,,,,,,,,,,,,,
,,16,9,${e://Field/PROLIFIC_PID,F,18,2023-11-03_18h38.24.797,MouseEye_CC,2023.2.2,Win32,59.99520038,1.28,,,1366,768,52.112,4.1,"152.77, 161.4, 157.95, 155.91, 161.95, 155.91, 131.13",684.16,9.096183435,37.29435209,27.83653633,Passed,124.9360795,,,,,,,,,,,,,,,,,,,,,training,7,5,0,left,a,,,,,621.7047,622.3538,35.84,4,0,1,0,0,0.6489,fixationPoint,622.3538,622.4539,622.454,623.5037,35.84,10240,616.96,a,1,1.0237,,623.5037,623.7039,,,,,,,,53,-116,-24,222,117,67,77,168,22,-163,77,-112,20,-120,115,167,-25,25,-124,64,-167,-220,-166,-116,-224,360,90,180,360,180,360,360,360,180,360,180,,,,,,,,,,,623.7039,623.7041,,0,100,100,100,1,9,novel,,,,,,,,,,,,,,,,,,,,,,,,,,,,,,,,,,,,,,,,,,,,,,,,,
,,16,9,${e://Field/PROLIFIC_PID,F,18,2023-11-03_18h38.24.797,MouseEye_CC,2023.2.2,Win32,59.99520038,1.28,,,1366,768,52.112,4.1,"152.77, 161.4, 157.95, 155.91, 161.95, 155.91, 131.13",684.16,9.096183435,37.29435209,27.83653633,Passed,124.9360795,,,,,,,,,,,,,,,,,,,,,training,7,6,0,left,a,,,,,623.7049,624.0038,35.84,4,0,1,0,0,0.2988,fixationPoint,624.0039,624.1038,624.1038,624.9869,35.84,10240,616.96,a,1,0.863,,624.9869,625.1872,,,,,,,,61,-220,-72,161,160,127,173,20,127,-174,19,-24,224,-172,170,112,-215,221,-162,123,-79,-176,-224,-18,-172,180,360,180,90,180,270,90,180,90,360,360,,,,,,,,,,,625.1872,625.1874,,0,101,101,101,1,10,novel,,,,,,,,,,,,,,,,,,,,,,,,,,,,,,,,,,,,,,,,,,,,,,,,,
,,16,9,${e://Field/PROLIFIC_PID,F,18,2023-11-03_18h38.24.797,MouseEye_CC,2023.2.2,Win32,59.99520038,1.28,,,1366,768,52.112,4.1,"152.77, 161.4, 157.95, 155.91, 161.95, 155.91, 131.13",684.16,9.096183435,37.29435209,27.83653633,Passed,124.9360795,,,,,,,,,,,,,,,,,,,,,training,7,7,180,right,s,,,,,625.1881,625.6372,35.84,4,0,1,0,0,0.449,fixationPoint,625.6373,625.7374,625.7374,628.1375,35.84,10240,616.96,s,1,2.3679,,628.1375,628.3375,,,,,,,,3,-120,213,220,72,122,124,66,213,-120,-120,-116,-224,-21,-118,219,-212,217,-32,79,-28,-30,26,-216,24,360,90,180,270,360,270,270,270,270,270,360,,,,,,,,,,,628.3375,628.3377,,0,102,102,102,1,4,repeated,,,,,,,,,,,,,,,,,,,,,,,,,,,,,,,,,,,,,,,,,,,,,,,,,
,,16,9,${e://Field/PROLIFIC_PID,F,18,2023-11-03_18h38.24.797,MouseEye_CC,2023.2.2,Win32,59.99520038,1.28,,,1366,768,52.112,4.1,"152.77, 161.4, 157.95, 155.91, 161.95, 155.91, 131.13",684.16,9.096183435,37.29435209,27.83653633,Passed,124.9360795,,,,,,,,,,,,,,,,,,,,,training,7,8,180,right,s,,,,,628.3383,629.854,35.84,4,0,1,0,0,1.5155,fixationPoint,629.854,629.9542,629.9542,631.8206,35.84,10240,616.96,s,1,1.8446,,631.8206,632.021,,,,,,,,60,217,-32,122,124,220,72,127,173,-174,19,-218,124,-25,172,-160,-69,-176,-224,-211,-115,117,-172,165,-68,360,360,270,360,180,270,270,180,360,180,270,,,,,,,,,,,632.021,632.0212,,0,103,103,103,1,7,repeated,,,,,,,,,,,,,,,,,,,,,,,,,,,,,,,,,,,,,,,,,,,,,,,,,
,,16,9,${e://Field/PROLIFIC_PID,F,18,2023-11-03_18h38.24.797,MouseEye_CC,2023.2.2,Win32,59.99520038,1.28,,,1366,768,52.112,4.1,"152.77, 161.4, 157.95, 155.91, 161.95, 155.91, 131.13",684.16,9.096183435,37.29435209,27.83653633,Passed,124.9360795,,,,,,,,,,,,,,,,,,,,,training,7,9,180,right,s,,,,,632.0219,633.504,35.84,4,0,1,0,0,1.4819,fixationPoint,633.504,633.6044,633.6044,634.8876,35.84,10240,616.96,s,1,1.2597,,634.8877,635.0874,,,,,,,,50,224,31,-208,74,-24,224,-113,176,-170,-114,-172,-175,-68,-165,25,-124,22,-26,113,-21,26,22,127,173,270,270,270,270,270,270,360,270,270,360,270,,,,,,,,,,,635.0874,635.0875,,0,104,104,104,1,13,novel,,,,,,,,,,,,,,,,,,,,,,,,,,,,,,,,,,,,,,,,,,,,,,,,,
,,16,9,${e://Field/PROLIFIC_PID,F,18,2023-11-03_18h38.24.797,MouseEye_CC,2023.2.2,Win32,59.99520038,1.28,,,1366,768,52.112,4.1,"152.77, 161.4, 157.95, 155.91, 161.95, 155.91, 131.13",684.16,9.096183435,37.29435209,27.83653633,Passed,124.9360795,,,,,,,,,,,,,,,,,,,,,training,7,10,0,left,a,,,,,635.0883,636.2208,35.84,2,0,1,0,0,1.1323,fixationPoint,636.2209,636.3209,636.321,639.3711,35.84,10240,616.96,a,1,3.0264,,639.3711,639.5713,,,,,,,,25,-28,120,26,161,220,72,222,169,-68,-165,-69,-122,-116,-224,221,-162,22,-26,221,-74,-68,19,-216,223,270,90,270,360,90,90,360,270,360,180,90,,,,,,,,,,,639.5713,639.5715,,0,105,105,105,1,16,novel,,,,,,,,,,,,,,,,,,,,,,,,,,,,,,,,,,,,,,,,,,,,,,,,,
,,16,9,${e://Field/PROLIFIC_PID,F,18,2023-11-03_18h38.24.797,MouseEye_CC,2023.2.2,Win32,59.99520038,1.28,,,1366,768,52.112,4.1,"152.77, 161.4, 157.95, 155.91, 161.95, 155.91, 131.13",684.16,9.096183435,37.29435209,27.83653633,Passed,124.9360795,,,,,,,,,,,,,,,,,,,,,training,7,11,0,left,a,,,,,639.5722,640.1045,35.84,2,0,1,0,0,0.5322,fixationPoint,640.1045,640.2049,640.205,642.4045,35.84,10240,616.96,a,1,2.1783,,642.4046,642.6047,,,,,,,,40,220,72,-25,172,-112,20,-120,213,-76,-17,-21,-118,-26,-222,121,-128,221,-162,219,-212,222,169,20,127,360,270,180,180,90,180,180,90,270,270,270,,,,,,,,,,,642.6047,642.605,,0,106,106,106,1,2,repeated,,,,,,,,,,,,,,,,,,,,,,,,,,,,,,,,,,,,,,,,,,,,,,,,,
,,16,9,${e://Field/PROLIFIC_PID,F,18,2023-11-03_18h38.24.797,MouseEye_CC,2023.2.2,Win32,59.99520038,1.28,,,1366,768,52.112,4.1,"152.77, 161.4, 157.95, 155.91, 161.95, 155.91, 131.13",684.16,9.096183435,37.29435209,27.83653633,Passed,124.9360795,,,,,,,,,,,,,,,,,,,,,training,7,12,0,left,a,,,,,642.6057,643.8879,35.84,2,0,1,0,0,1.2821,fixationPoint,643.8879,643.9881,643.9882,645.9047,35.84,10240,616.96,a,1,1.891,,645.9047,646.1049,,,,,,,,95,-26,-222,69,168,26,161,66,213,-25,172,-174,19,-163,77,121,-128,123,-79,117,-172,-68,-165,-160,-69,270,180,360,270,360,180,180,270,90,270,360,,,,,,,,,,,646.1049,646.1049,,0,107,107,107,1,6,repeated,,,,,,,,,,,,,,,,,,,,,,,,,,,,,,,,,,,,,,,,,,,,,,,,,
,,16,9,${e://Field/PROLIFIC_PID,F,18,2023-11-03_18h38.24.797,MouseEye_CC,2023.2.2,Win32,59.99520038,1.28,,,1366,768,52.112,4.1,"152.77, 161.4, 157.95, 155.91, 161.95, 155.91, 131.13",684.16,9.096183435,37.29435209,27.83653633,Passed,124.9360795,,,,,,,,,,,,,,,,,,,,,training,7,13,180,right,s,,,,,646.1056,646.6049,35.84,2,0,1,0,0,0.4992,fixationPoint,646.6049,646.7047,646.7047,647.8547,35.84,10240,616.96,s,1,1.125,,647.8547,648.055,,,,,,,,43,-112,20,28,72,224,31,26,161,-224,-220,-18,-172,-116,-24,25,-124,22,-26,113,-21,-172,170,-25,172,360,270,360,270,270,360,270,360,90,360,180,,,,,,,,,,,648.055,648.0551,,0,108,108,108,1,3,repeated,,,,,,,,,,,,,,,,,,,,,,,,,,,,,,,,,,,,,,,,,,,,,,,,,
,,16,9,${e://Field/PROLIFIC_PID,F,18,2023-11-03_18h38.24.797,MouseEye_CC,2023.2.2,Win32,59.99520038,1.28,,,1366,768,52.112,4.1,"152.77, 161.4, 157.95, 155.91, 161.95, 155.91, 131.13",684.16,9.096183435,37.29435209,27.83653633,Passed,124.9360795,,,,,,,,,,,,,,,,,,,,,training,7,14,0,left,a,,,,,648.0558,648.5215,35.84,2,0,1,0,0,0.4656,fixationPoint,648.5215,648.6217,648.6217,650.2047,35.84,10240,616.96,a,1,1.5578,,650.2048,650.4052,,,,,,,,48,116,31,-66,176,-68,19,-77,71,-69,-122,-76,-17,-21,-118,160,-168,22,-26,121,-128,168,22,222,117,180,360,90,360,270,270,180,360,180,180,270,,,,,,,,,,,650.4052,650.4054,,0,109,109,109,1,1,repeated,,,,,,,,,,,,,,,,,,,,,,,,,,,,,,,,,,,,,,,,,,,,,,,,,
,,16,9,${e://Field/PROLIFIC_PID,F,18,2023-11-03_18h38.24.797,MouseEye_CC,2023.2.2,Win32,59.99520038,1.28,,,1366,768,52.112,4.1,"152.77, 161.4, 157.95, 155.91, 161.95, 155.91, 131.13",684.16,9.096183435,37.29435209,27.83653633,Passed,124.9360795,,,,,,,,,,,,,,,,,,,,,training,7,15,0,left,a,,,,,650.406,650.8885,35.84,2,0,1,0,0,0.4823,fixationPoint,650.8886,650.9884,650.9885,652.5766,35.84,10240,616.96,a,1,1.5682,,652.5767,652.772,,,,,,,,6,17,210,-161,112,-163,77,-24,224,-116,-24,-18,-172,-26,-222,26,-219,22,-26,209,-115,26,22,112,220,270,270,360,360,360,360,90,360,90,270,360,,,,,,,,,,,652.7721,652.7724,,0,110,110,110,1,14,novel,,,,,,,,,,,,,,,,,,,,,,,,,,,,,,,,,,,,,,,,,,,,,,,,,
,,16,9,${e://Field/PROLIFIC_PID,F,18,2023-11-03_18h38.24.797,MouseEye_CC,2023.2.2,Win32,59.99520038,1.28,,,1366,768,52.112,4.1,"152.77, 161.4, 157.95, 155.91, 161.95, 155.91, 131.13",684.16,9.096183435,37.29435209,27.83653633,Passed,124.9360795,,,,,,,,,,,,,,,,,,,,,training,7,16,180,right,s,,,,,652.773,653.0385,35.84,2,0,1,0,0,0.2655,fixationPoint,653.0386,653.1384,653.1385,654.6888,35.84,10240,616.96,s,1,1.5182,,654.6889,654.8886,,,,,,,,76,25,-124,26,22,17,210,222,117,-161,112,-163,77,-218,124,-120,-120,-211,-115,-212,-20,67,-221,79,-28,360,90,360,360,180,180,90,270,90,180,360,,,,,,,,,,,654.8886,656.7718,space,0,111,111,111,1,8,repeated,1.861,,,,,,,,,,,,,,,,,,,,,,,,,,,,,,,,,,,,,,,,,,,,,,,,
,,16,9,${e://Field/PROLIFIC_PID,F,18,2023-11-03_18h38.24.797,MouseEye_CC,2023.2.2,Win32,59.99520038,1.28,,,1366,768,52.112,4.1,"152.77, 161.4, 157.95, 155.91, 161.95, 155.91, 131.13",684.16,9.096183435,37.29435209,27.83653633,Passed,124.9360795,,,,,,,,,,,,,,,,,,,,,training,8,1,180,right,s,,,,,656.7724,657.9554,35.84,2,0,1,0,0,1.1829,fixationPoint,657.9555,658.0552,658.0553,659.4222,35.84,10240,616.96,s,1,1.3353,,659.4223,659.6222,,,,,,,,41,-216,24,168,22,67,77,28,72,-211,-115,-120,-120,-172,-175,67,-221,28,-68,112,-215,-216,223,-30,26,180,270,180,180,270,90,180,270,90,180,360,,,,,,,,,,,659.6222,659.624,,0,112,112,112,1,15,novel,,,,,,,,,,,,,,,,,,,,,,,,,,,,,,,,,,,,,,,,,,,,,,,,,
,,16,9,${e://Field/PROLIFIC_PID,F,18,2023-11-03_18h38.24.797,MouseEye_CC,2023.2.2,Win32,59.99520038,1.28,,,1366,768,52.112,4.1,"152.77, 161.4, 157.95, 155.91, 161.95, 155.91, 131.13",684.16,9.096183435,37.29435209,27.83653633,Passed,124.9360795,,,,,,,,,,,,,,,,,,,,,training,8,2,180,right,s,,,,,659.6244,660.1386,35.84,2,0,1,0,0,0.5142,fixationPoint,660.1387,660.2389,660.2389,661.5051,35.84,10240,616.96,s,1,1.2452,,661.5051,661.7056,,,,,,,,61,-220,-72,28,72,168,65,17,210,-24,224,-30,26,-216,24,162,-123,160,-168,28,-68,-76,-17,-68,-165,360,270,90,180,90,180,180,360,90,360,270,,,,,,,,,,,661.7056,661.7058,,0,113,113,113,1,10,novel,,,,,,,,,,,,,,,,,,,,,,,,,,,,,,,,,,,,,,,,,,,,,,,,,
,,16,9,${e://Field/PROLIFIC_PID,F,18,2023-11-03_18h38.24.797,MouseEye_CC,2023.2.2,Win32,59.99520038,1.28,,,1366,768,52.112,4.1,"152.77, 161.4, 157.95, 155.91, 161.95, 155.91, 131.13",684.16,9.096183435,37.29435209,27.83653633,Passed,124.9360795,,,,,,,,,,,,,,,,,,,,,training,8,3,0,left,a,,,,,661.7066,662.3223,35.84,2,0,1,0,0,0.6154,fixationPoint,662.3223,662.4221,662.4222,663.2558,35.84,10240,616.96,a,1,0.8039,,663.2559,663.4553,,,,,,,,53,-116,-24,118,66,20,127,161,116,-76,121,-120,115,-120,213,113,-21,28,-68,25,-124,-67,-77,-170,-114,180,360,90,360,270,270,180,360,180,270,360,,,,,,,,,,,663.4553,663.4555,,0,114,114,114,1,9,novel,,,,,,,,,,,,,,,,,,,,,,,,,,,,,,,,,,,,,,,,,,,,,,,,,
,,16,9,${e://Field/PROLIFIC_PID,F,18,2023-11-03_18h38.24.797,MouseEye_CC,2023.2.2,Win32,59.99520038,1.28,,,1366,768,52.112,4.1,"152.77, 161.4, 157.95, 155.91, 161.95, 155.91, 131.13",684.16,9.096183435,37.29435209,27.83653633,Passed,124.9360795,,,,,,,,,,,,,,,,,,,,,training,8,4,180,right,s,,,,,663.4564,663.9223,35.84,2,0,1,0,0,0.4659,fixationPoint,663.9224,664.0223,664.0224,665.0724,35.84,10240,616.96,s,1,1.0182,,665.0725,665.2725,,,,,,,,51,-212,-20,26,22,222,169,122,124,-71,215,-216,223,-163,77,67,-221,167,-25,165,-68,-172,-175,-116,-80,90,270,270,270,270,360,270,90,180,90,90,,,,,,,,,,,665.2725,665.2726,,0,115,115,115,1,5,repeated,,,,,,,,,,,,,,,,,,,,,,,,,,,,,,,,,,,,,,,,,,,,,,,,,
,,16,9,${e://Field/PROLIFIC_PID,F,18,2023-11-03_18h38.24.797,MouseEye_CC,2023.2.2,Win32,59.99520038,1.28,,,1366,768,52.112,4.1,"152.77, 161.4, 157.95, 155.91, 161.95, 155.91, 131.13",684.16,9.096183435,37.29435209,27.83653633,Passed,124.9360795,,,,,,,,,,,,,,,,,,,,,training,8,5,180,right,s,,,,,665.2733,665.8889,35.84,2,0,1,0,0,0.6154,fixationPoint,665.8889,665.9891,665.9891,668.206,35.84,10240,616.96,s,1,2.187,,668.2061,668.406,,,,,,,,95,-26,-222,69,168,26,161,66,213,-25,172,-174,19,-163,77,121,-128,123,-79,117,-172,-68,-165,-160,-69,270,270,360,90,90,270,360,360,270,360,90,,,,,,,,,,,668.406,668.4063,,0,116,116,116,1,6,repeated,,,,,,,,,,,,,,,,,,,,,,,,,,,,,,,,,,,,,,,,,,,,,,,,,
,,16,9,${e://Field/PROLIFIC_PID,F,18,2023-11-03_18h38.24.797,MouseEye_CC,2023.2.2,Win32,59.99520038,1.28,,,1366,768,52.112,4.1,"152.77, 161.4, 157.95, 155.91, 161.95, 155.91, 131.13",684.16,9.096183435,37.29435209,27.83653633,Passed,124.9360795,,,,,,,,,,,,,,,,,,,,,training,8,6,180,right,s,,,,,668.4073,669.0724,35.84,2,0,1,0,0,0.6649,fixationPoint,669.0724,669.1725,669.1726,670.3728,35.84,10240,616.96,s,1,1.1709,,670.373,670.5728,,,,,,,,58,113,-21,28,72,162,219,69,119,-174,19,-120,115,-120,213,-116,-24,-172,-175,-166,-20,209,-115,165,-68,360,360,180,90,90,360,270,270,270,360,180,,,,,,,,,,,670.5728,670.573,,0,117,117,117,1,11,novel,,,,,,,,,,,,,,,,,,,,,,,,,,,,,,,,,,,,,,,,,,,,,,,,,
,,16,9,${e://Field/PROLIFIC_PID,F,18,2023-11-03_18h38.24.797,MouseEye_CC,2023.2.2,Win32,59.99520038,1.28,,,1366,768,52.112,4.1,"152.77, 161.4, 157.95, 155.91, 161.95, 155.91, 131.13",684.16,9.096183435,37.29435209,27.83653633,Passed,124.9360795,,,,,,,,,,,,,,,,,,,,,training,8,7,0,left,a,,,,,670.5737,671.2226,35.84,2,0,1,0,0,0.6489,fixationPoint,671.2227,671.3227,671.3228,673.5229,35.84,10240,616.96,a,1,2.1699,,673.523,673.7227,,,,,,,,3,-120,213,220,72,122,124,66,213,-120,-120,-116,-224,-21,-118,219,-212,217,-32,79,-28,-30,26,-216,24,180,270,90,180,270,360,180,90,360,270,90,,,,,,,,,,,673.7228,673.7228,,0,118,118,118,1,4,repeated,,,,,,,,,,,,,,,,,,,,,,,,,,,,,,,,,,,,,,,,,,,,,,,,,
