InstrStartPage.started,InstrStartPage.stopped,participant,designid,prolificid,Gender,Age,date,expName,psychopyVersion,OS,frameRate,ratio_monitor2CRT,VirtualChinrest.started,VirtualChinrest.stopped,xRes,yRes,viewingdistance_cm,pixeldensity_px2mm,BallPos,squarePos,mm2degree,px2degree,CRT_px2degree,PassVirtualChinrest,foveaRadius_inPixel,InstrRedo.started,InstrRedo.stopped,VirtualChinrest_Redo.started,VirtualChinrest_Redo.stopped,Redo_virtualChinrest,Instruction1.started,Instruction1.stopped,keyPractice.started,keyPractice.stopped,key_keyprac.keys,key_keyprac.corr,key_keyprac.rt,key_keyprac.duration,keyPracFeedback.started,keyPracFeedback.stopped,keyPracLoop.thisRepN,keyPracLoop.thisTrialN,keyPracLoop.thisN,keyPracLoop.thisIndex,keyPracLoop.ran,phase,block,trial,targOrientdeg,targOrient,corrAnswer,Instruction2.started,Instruction2.stopped,Instruction3.started,Instruction3.stopped,fixation.started,fixation.stopped,fixationSize,mouseintial.x,mouseintial.y,mouseintial.leftButton,mouseintial.midButton,mouseintial.rightButton,mouseintial.time,mouseintial.clicked_name,greenFixation.started,greenFixation.stopped,trial.started,trial.stopped,letterSize,apertureSize,searchsize,key_respMain.keys,key_respMain.corr,key_respMain.rt,key_respMain.duration,trialFeedback.started,trialFeedback.stopped,trialsPractice.thisRepN,trialsPractice.thisTrialN,trialsPractice.thisN,trialsPractice.thisIndex,trialsPractice.ran,targetQuad,Tcondition,targcell,tlocx,tlocy,d1x,d1y,d2x,d2y,d3x,d3y,d4x,d4y,d5x,d5y,d6x,d6y,d7x,d7y,d8x,d8y,d9x,d9y,d10x,d10y,d11x,d11y,d1Orient,d2Orient,d3Orient,d4Orient,d5Orient,d6Orient,d7Orient,d8Orient,d9Orient,d10Orient,d11Orient,CheckInstr.started,CheckInstr.stopped,key_checkInstr.keys,key_checkInstr.corr,key_checkInstr.rt,key_checkInstr.duration,CheckInstr_FB.started,CheckInstr_FB.stopped,Instruction_MainExp.started,Instruction_MainExp.stopped,TakeABreak.started,TakeABreak.stopped,key_respBreak.keys,trials.thisRepN,trials.thisTrialN,trials.thisN,trials.thisIndex,trials.ran,configurationNumber,CCCondition,key_respBreak.rt,key_respBreak.duration,displayTestingPhase.started,displayTestingPhase.stopped,key_respTesting.keys,key_respTesting.corr,key_respTesting.rt,key_respTesting.duration,TakeABreak2.started,TakeABreak2.stopped,key_RespBreak.keys,Testingtrials.thisRepN,Testingtrials.thisTrialN,Testingtrials.thisN,Testingtrials.thisIndex,Testingtrials.ran,key_RespBreak.rt,key_RespBreak.duration,RecogQuestion.started,RecogQuestion.stopped,key_AnswerQues.keys,key_AnswerQues.rt,key_AnswerQues.duration,Disclose.started,Disclose.stopped,InstrRT.started,InstrRT.stopped,fixation_RT.started,fixation_RT.stopped,mouseInitial.x,mouseInitial.y,mouseInitial.leftButton,mouseInitial.midButton,mouseInitial.rightButton,mouseInitial.time,mouseInitial.clicked_name,displayRT.started,displayRT.stopped,key_respRT.keys,key_respRT.corr,key_respRT.rt,key_respRT.duration,RTtrials.thisRepN,RTtrials.thisTrialN,RTtrials.thisN,RTtrials.thisIndex,RTtrials.ran,EndOfExperiment.started,EndOfExperiment.stopped
0.0002,6.0079,17,10,${e://Field/PROLIFIC_PID,F,18,2023-11-03_19h45.10.168,MouseEye_CC,2023.2.2,Win32,74.97938067,1,,,,,,,,,,,,,,,,,,,,,,,,,,,,,,,,,,,,,,,,,,,,,,,,,,,,,,,,,,,,,,,,,,,,,,,,,,,,,,,,,,,,,,,,,,,,,,,,,,,,,,,,,,,,,,,,,,,,,,,,,,,,,,,,,,,,,,,,,,,,,,,,,,,,,,,,,,,,,,,,,,,,,,,,,,,,,,,,,,
,,17,10,${e://Field/PROLIFIC_PID,F,18,2023-11-03_19h45.10.168,MouseEye_CC,2023.2.2,Win32,74.97938067,1.50174074,6.008,302.5678,1920,1080,65.079,3.68,"49.29, 39.92, 54.86, 45.2, 53.78, 73.31, 58.94",627.38,11.3595817,41.80326067,27.83653633,Passed,140.0409233,,,,,,,,,,,,,,,,,,,,,,,,,,,,,,,,,,,,,,,,,,,,,,,,,,,,,,,,,,,,,,,,,,,,,,,,,,,,,,,,,,,,,,,,,,,,,,,,,,,,,,,,,,,,,,,,,,,,,,,,,,,,,,,,,,,,,,,,,,,,,,,,,,,,,,,,,,,,,,,,,,,,,
,,17,10,${e://Field/PROLIFIC_PID,F,18,2023-11-03_19h45.10.168,MouseEye_CC,2023.2.2,Win32,74.97938067,1.50174074,,,1920,1080,65.079,3.68,"49.29, 39.92, 54.86, 45.2, 53.78, 73.31, 58.94",627.38,11.3595817,41.80326067,27.83653633,Passed,140.0409233,302.5681,302.5693,,,,,,,,,,,,,,,,,,,,,,,,,,,,,,,,,,,,,,,,,,,,,,,,,,,,,,,,,,,,,,,,,,,,,,,,,,,,,,,,,,,,,,,,,,,,,,,,,,,,,,,,,,,,,,,,,,,,,,,,,,,,,,,,,,,,,,,,,,,,,,,,,,,,,,,,,,,,,,,,,,,
,,17,10,${e://Field/PROLIFIC_PID,F,18,2023-11-03_19h45.10.168,MouseEye_CC,2023.2.2,Win32,74.97938067,1.28,,,1920,1080,64.048,3.68,"49.29, 39.92, 54.86, 45.2, 53.78, 73.31, 58.94",627.38,11.17961999,41.14100155,27.83653633,Passed,137.8223552,,,302.5694,385.8311,failed,,,,,,,,,,,,,,,,,,,,,,,,,,,,,,,,,,,,,,,,,,,,,,,,,,,,,,,,,,,,,,,,,,,,,,,,,,,,,,,,,,,,,,,,,,,,,,,,,,,,,,,,,,,,,,,,,,,,,,,,,,,,,,,,,,,,,,,,,,,,,,,,,,,,,,,,,,,,,,,,
,,17,10,${e://Field/PROLIFIC_PID,F,18,2023-11-03_19h45.10.168,MouseEye_CC,2023.2.2,Win32,74.97938067,1.28,,,1920,1080,64.048,3.68,"49.29, 39.92, 54.86, 45.2, 53.78, 73.31, 58.94",627.38,11.17961999,41.14100155,27.83653633,Passed,137.8223552,,,,,,385.8312,404.7578,,,,,,,,,,,,,,,,,,,,,,,,,,,,,,,,,,,,,,,,,,,,,,,,,,,,,,,,,,,,,,,,,,,,,,,,,,,,,,,,,,,,,,,,,,,,,,,,,,,,,,,,,,,,,,,,,,,,,,,,,,,,,,,,,,,,,,,,,,,,,,,,,,,,,,,,,,,,,,
,,17,10,${e://Field/PROLIFIC_PID,F,18,2023-11-03_19h45.10.168,MouseEye_CC,2023.2.2,Win32,74.97938067,1.28,,,1920,1080,64.048,3.68,"49.29, 39.92, 54.86, 45.2, 53.78, 73.31, 58.94",627.38,11.17961999,41.14100155,27.83653633,Passed,137.8223552,,,,,,,,404.7678,405.9579,a,1,0.6651,,405.958,406.4514,0,0,0,0,1,practice,1,1,0,left,a,,,,,,,,,,,,,,,,,,,,,,,,,,,,,,,,,,,,,,,,,,,,,,,,,,,,,,,,,,,,,,,,,,,,,,,,,,,,,,,,,,,,,,,,,,,,,,,,,,,,,,,,,,,,,,,,,,,,,,,,,,,,,,,,,,,,,,,,,,,
,,17,10,${e://Field/PROLIFIC_PID,F,18,2023-11-03_19h45.10.168,MouseEye_CC,2023.2.2,Win32,74.97938067,1.28,,,1920,1080,64.048,3.68,"49.29, 39.92, 54.86, 45.2, 53.78, 73.31, 58.94",627.38,11.17961999,41.14100155,27.83653633,Passed,137.8223552,,,,,,,,406.4517,407.4383,a,1,0.4753,,407.4383,407.9317,0,1,1,1,1,practice,1,2,0,left,a,,,,,,,,,,,,,,,,,,,,,,,,,,,,,,,,,,,,,,,,,,,,,,,,,,,,,,,,,,,,,,,,,,,,,,,,,,,,,,,,,,,,,,,,,,,,,,,,,,,,,,,,,,,,,,,,,,,,,,,,,,,,,,,,,,,,,,,,,,,
,,17,10,${e://Field/PROLIFIC_PID,F,18,2023-11-03_19h45.10.168,MouseEye_CC,2023.2.2,Win32,74.97938067,1.28,,,1920,1080,64.048,3.68,"49.29, 39.92, 54.86, 45.2, 53.78, 73.31, 58.94",627.38,11.17961999,41.14100155,27.83653633,Passed,137.8223552,,,,,,,,407.932,408.9321,a,1,0.4827,,408.9321,409.4255,0,2,2,2,1,practice,1,3,0,left,a,,,,,,,,,,,,,,,,,,,,,,,,,,,,,,,,,,,,,,,,,,,,,,,,,,,,,,,,,,,,,,,,,,,,,,,,,,,,,,,,,,,,,,,,,,,,,,,,,,,,,,,,,,,,,,,,,,,,,,,,,,,,,,,,,,,,,,,,,,,
,,17,10,${e://Field/PROLIFIC_PID,F,18,2023-11-03_19h45.10.168,MouseEye_CC,2023.2.2,Win32,74.97938067,1.28,,,1920,1080,64.048,3.68,"49.29, 39.92, 54.86, 45.2, 53.78, 73.31, 58.94",627.38,11.17961999,41.14100155,27.83653633,Passed,137.8223552,,,,,,,,409.4258,410.3993,s,1,0.4502,,410.3993,410.8928,0,3,3,3,1,practice,1,4,180,right,s,,,,,,,,,,,,,,,,,,,,,,,,,,,,,,,,,,,,,,,,,,,,,,,,,,,,,,,,,,,,,,,,,,,,,,,,,,,,,,,,,,,,,,,,,,,,,,,,,,,,,,,,,,,,,,,,,,,,,,,,,,,,,,,,,,,,,,,,,,,
,,17,10,${e://Field/PROLIFIC_PID,F,18,2023-11-03_19h45.10.168,MouseEye_CC,2023.2.2,Win32,74.97938067,1.28,,,1920,1080,64.048,3.68,"49.29, 39.92, 54.86, 45.2, 53.78, 73.31, 58.94",627.38,11.17961999,41.14100155,27.83653633,Passed,137.8223552,,,,,,,,410.893,411.8931,s,1,0.4899,,411.8931,412.3865,0,4,4,4,1,practice,1,5,180,right,s,,,,,,,,,,,,,,,,,,,,,,,,,,,,,,,,,,,,,,,,,,,,,,,,,,,,,,,,,,,,,,,,,,,,,,,,,,,,,,,,,,,,,,,,,,,,,,,,,,,,,,,,,,,,,,,,,,,,,,,,,,,,,,,,,,,,,,,,,,,
,,17,10,${e://Field/PROLIFIC_PID,F,18,2023-11-03_19h45.10.168,MouseEye_CC,2023.2.2,Win32,74.97938067,1.28,,,1920,1080,64.048,3.68,"49.29, 39.92, 54.86, 45.2, 53.78, 73.31, 58.94",627.38,11.17961999,41.14100155,27.83653633,Passed,137.8223552,,,,,,,,412.3872,413.3736,a,1,0.4682,,413.3736,413.8671,0,5,5,5,1,practice,1,6,0,left,a,,,,,,,,,,,,,,,,,,,,,,,,,,,,,,,,,,,,,,,,,,,,,,,,,,,,,,,,,,,,,,,,,,,,,,,,,,,,,,,,,,,,,,,,,,,,,,,,,,,,,,,,,,,,,,,,,,,,,,,,,,,,,,,,,,,,,,,,,,,
,,17,10,${e://Field/PROLIFIC_PID,F,18,2023-11-03_19h45.10.168,MouseEye_CC,2023.2.2,Win32,74.97938067,1.28,,,1920,1080,64.048,3.68,"49.29, 39.92, 54.86, 45.2, 53.78, 73.31, 58.94",627.38,11.17961999,41.14100155,27.83653633,Passed,137.8223552,,,,,,,,,,,,,,,,,,,,,,,,,,,413.8676,444.8514,,,,,,,,,,,,,,,,,,,,,,,,,,,,,,,,,,,,,,,,,,,,,,,,,,,,,,,,,,,,,,,,,,,,,,,,,,,,,,,,,,,,,,,,,,,,,,,,,,,,,,,,,,,,,,,,,,,,,,,,,,,,,,,,,,,,,,,,,
,,17,10,${e://Field/PROLIFIC_PID,F,18,2023-11-03_19h45.10.168,MouseEye_CC,2023.2.2,Win32,74.97938067,1.28,,,1920,1080,64.048,3.68,"49.29, 39.92, 54.86, 45.2, 53.78, 73.31, 58.94",627.38,11.17961999,41.14100155,27.83653633,Passed,137.8223552,,,,,,,,,,,,,,,,,,,,,,,,,,,,,444.8515,452.8542,,,,,,,,,,,,,,,,,,,,,,,,,,,,,,,,,,,,,,,,,,,,,,,,,,,,,,,,,,,,,,,,,,,,,,,,,,,,,,,,,,,,,,,,,,,,,,,,,,,,,,,,,,,,,,,,,,,,,,,,,,,,,,,,,,,,,,,
,,17,10,${e://Field/PROLIFIC_PID,F,18,2023-11-03_19h45.10.168,MouseEye_CC,2023.2.2,Win32,74.97938067,1.28,,,1920,1080,64.048,3.68,"49.29, 39.92, 54.86, 45.2, 53.78, 73.31, 58.94",627.38,11.17961999,41.14100155,27.83653633,Passed,137.8223552,,,,,,,,,,,,,,,,,,,,,practice,0,1,0,left,a,,,,,452.8654,455.0416,35.84,-4,-3,1,0,0,2.1761,fixationPoint,455.0418,455.1346,455.1348,456.6286,35.84,10240,616.96,a,1,1.477,,456.6286,456.8285,0,0,0,0,1,4,sparse,90,217,-164,68,123,222,26,214,216,-218,159,-120,223,-110,82,-115,-130,-224,-120,-68,-219,79,-175,19,-128,90,270,360,90,270,270,180,90,90,90,270,,,,,,,,,,,,,,,,,,,,,,,,,,,,,,,,,,,,,,,,,,,,,,,,,,,,,,,,,,,,,,,,,,,,,
,,17,10,${e://Field/PROLIFIC_PID,F,18,2023-11-03_19h45.10.168,MouseEye_CC,2023.2.2,Win32,74.97938067,1.28,,,1920,1080,64.048,3.68,"49.29, 39.92, 54.86, 45.2, 53.78, 73.31, 58.94",627.38,11.17961999,41.14100155,27.83653633,Passed,137.8223552,,,,,,,,,,,,,,,,,,,,,practice,0,2,0,left,a,,,,,456.8288,457.3219,35.84,-4,-3,1,0,0,0.493,fixationPoint,457.3221,457.4153,457.4153,460.003,35.84,10240,616.96,a,1,2.5774,,460.0031,460.203,0,1,1,1,1,1,rich,39,169,66,-126,125,-169,169,-130,19,-169,-116,-125,-167,-224,-216,218,-129,171,-218,18,-208,166,26,17,170,180,90,360,270,90,90,90,270,180,180,270,,,,,,,,,,,,,,,,,,,,,,,,,,,,,,,,,,,,,,,,,,,,,,,,,,,,,,,,,,,,,,,,,,,,,
,,17,10,${e://Field/PROLIFIC_PID,F,18,2023-11-03_19h45.10.168,MouseEye_CC,2023.2.2,Win32,74.97938067,1.28,,,1920,1080,64.048,3.68,"49.29, 39.92, 54.86, 45.2, 53.78, 73.31, 58.94",627.38,11.17961999,41.14100155,27.83653633,Passed,137.8223552,,,,,,,,,,,,,,,,,,,,,practice,0,3,0,left,a,,,,,460.2033,460.6297,35.84,-4,-3,1,0,0,0.4264,fixationPoint,460.6298,460.7231,460.7232,464.8446,35.84,10240,616.96,a,1,4.1098,,464.8446,465.0446,0,2,2,2,1,2,sparse,22,-162,126,222,26,17,170,126,172,-25,-117,-175,-206,-224,-216,116,-19,130,-174,217,-164,-218,159,-21,162,90,90,180,360,360,270,360,360,360,360,180,,,,,,,,,,,,,,,,,,,,,,,,,,,,,,,,,,,,,,,,,,,,,,,,,,,,,,,,,,,,,,,,,,,,,
,,17,10,${e://Field/PROLIFIC_PID,F,18,2023-11-03_19h45.10.168,MouseEye_CC,2023.2.2,Win32,74.97938067,1.28,,,1920,1080,64.048,3.68,"49.29, 39.92, 54.86, 45.2, 53.78, 73.31, 58.94",627.38,11.17961999,41.14100155,27.83653633,Passed,137.8223552,,,,,,,,,,,,,,,,,,,,,practice,0,4,180,right,s,,,,,465.045,465.4715,35.84,-4,-3,1,0,0,0.4264,fixationPoint,465.4716,465.5648,465.5648,467.9658,35.84,10240,616.96,s,1,2.3886,,467.9658,468.1656,0,3,3,3,1,4,sparse,76,19,-128,159,121,214,216,219,165,-218,159,-162,126,-219,119,-169,-116,-111,-31,-175,-206,18,-208,81,-114,90,270,180,180,270,180,360,360,360,270,360,,,,,,,,,,,,,,,,,,,,,,,,,,,,,,,,,,,,,,,,,,,,,,,,,,,,,,,,,,,,,,,,,,,,,
,,17,10,${e://Field/PROLIFIC_PID,F,18,2023-11-03_19h45.10.168,MouseEye_CC,2023.2.2,Win32,74.97938067,1.28,,,1920,1080,64.048,3.68,"49.29, 39.92, 54.86, 45.2, 53.78, 73.31, 58.94",627.38,11.17961999,41.14100155,27.83653633,Passed,137.8223552,,,,,,,,,,,,,,,,,,,,,practice,0,5,180,right,s,,,,,468.166,468.526,35.84,-4,-3,1,0,0,0.3599,fixationPoint,468.526,468.6192,468.6192,469.9797,35.84,10240,616.96,s,1,1.3579,,469.9797,470.1797,0,4,4,4,1,3,sparse,85,-19,-173,219,165,68,123,214,216,-160,68,-64,120,-226,34,162,-21,224,-216,167,-163,-167,-74,-224,-216,360,360,360,90,180,270,90,360,270,270,360,,,,,,,,,,,,,,,,,,,,,,,,,,,,,,,,,,,,,,,,,,,,,,,,,,,,,,,,,,,,,,,,,,,,,
,,17,10,${e://Field/PROLIFIC_PID,F,18,2023-11-03_19h45.10.168,MouseEye_CC,2023.2.2,Win32,74.97938067,1.28,,,1920,1080,64.048,3.68,"49.29, 39.92, 54.86, 45.2, 53.78, 73.31, 58.94",627.38,11.17961999,41.14100155,27.83653633,Passed,137.8223552,,,,,,,,,,,,,,,,,,,,,practice,0,6,180,right,s,,,,,470.1802,470.7266,35.84,-4,-3,1,0,0,0.5464,fixationPoint,470.7267,470.8199,470.8199,475.1948,35.84,10240,616.96,s,1,4.3734,,475.1948,475.3948,0,5,5,5,1,3,sparse,95,-21,-224,126,172,219,165,166,26,-166,207,-223,206,-219,119,169,-75,18,-208,224,-216,-72,-121,-115,-130,180,180,360,180,360,180,270,180,90,180,360,,,,,,,,,,,,,,,,,,,,,,,,,,,,,,,,,,,,,,,,,,,,,,,,,,,,,,,,,,,,,,,,,,,,,
,,17,10,${e://Field/PROLIFIC_PID,F,18,2023-11-03_19h45.10.168,MouseEye_CC,2023.2.2,Win32,74.97938067,1.28,,,1920,1080,64.048,3.68,"49.29, 39.92, 54.86, 45.2, 53.78, 73.31, 58.94",627.38,11.17961999,41.14100155,27.83653633,Passed,137.8223552,,,,,,,,,,,,,,,,,,,,,practice,0,7,0,left,a,,,,,475.3951,475.8884,35.84,-4,-3,1,0,0,0.4932,fixationPoint,475.8884,475.9817,475.9818,477.7423,35.84,10240,616.96,a,1,1.7553,,477.7423,477.9424,0,6,6,6,1,1,rich,7,62,223,-166,207,-226,34,-162,126,-169,-116,-168,-160,-161,-27,15,-162,162,-21,79,-175,219,165,219,129,180,180,360,180,270,360,180,360,270,180,360,,,,,,,,,,,,,,,,,,,,,,,,,,,,,,,,,,,,,,,,,,,,,,,,,,,,,,,,,,,,,,,,,,,,,
,,17,10,${e://Field/PROLIFIC_PID,F,18,2023-11-03_19h45.10.168,MouseEye_CC,2023.2.2,Win32,74.97938067,1.28,,,1920,1080,64.048,3.68,"49.29, 39.92, 54.86, 45.2, 53.78, 73.31, 58.94",627.38,11.17961999,41.14100155,27.83653633,Passed,137.8223552,,,,,,,,,,,,,,,,,,,,,practice,0,8,180,right,s,,,,,477.9427,478.2891,35.84,-4,-3,1,0,0,0.3462,fixationPoint,478.2891,478.3825,478.3825,480.0364,35.84,10240,616.96,s,1,1.6428,,480.0365,480.2365,0,7,7,7,1,2,sparse,24,-64,120,18,215,126,172,33,121,-206,-170,-64,-162,-218,-78,130,-174,211,-74,168,-130,-164,32,-21,162,90,180,270,360,180,90,180,180,180,360,270,,,,,,,,,,,,,,,,,,,,,,,,,,,,,,,,,,,,,,,,,,,,,,,,,,,,,,,,,,,,,,,,,,,,,
,,17,10,${e://Field/PROLIFIC_PID,F,18,2023-11-03_19h45.10.168,MouseEye_CC,2023.2.2,Win32,74.97938067,1.28,,,1920,1080,64.048,3.68,"49.29, 39.92, 54.86, 45.2, 53.78, 73.31, 58.94",627.38,11.17961999,41.14100155,27.83653633,Passed,137.8223552,,,,,,,,,,,,,,,,,,,,,practice,0,9,180,right,s,,,,,480.2368,480.5566,35.84,-4,-3,1,0,0,0.3197,fixationPoint,480.5566,480.6499,480.65,483.1709,35.84,10240,616.96,s,1,2.5111,,483.1709,483.3708,0,8,8,8,1,3,sparse,85,-19,-173,127,30,62,223,217,67,-110,82,-21,162,-80,218,167,-163,126,-79,130,-174,-125,-167,-68,-219,360,360,360,180,360,360,180,270,90,360,180,,,,,,,,,,,,,,,,,,,,,,,,,,,,,,,,,,,,,,,,,,,,,,,,,,,,,,,,,,,,,,,,,,,,,
,,17,10,${e://Field/PROLIFIC_PID,F,18,2023-11-03_19h45.10.168,MouseEye_CC,2023.2.2,Win32,74.97938067,1.28,,,1920,1080,64.048,3.68,"49.29, 39.92, 54.86, 45.2, 53.78, 73.31, 58.94",627.38,11.17961999,41.14100155,27.83653633,Passed,137.8223552,,,,,,,,,,,,,,,,,,,,,practice,0,10,180,right,s,,,,,483.3711,484.1045,35.84,-4,-3,1,0,0,0.7334,fixationPoint,484.1045,484.1979,484.1979,487.0122,35.84,10240,616.96,s,1,2.8034,,487.0123,487.2124,0,9,9,9,1,1,rich,9,160,209,-166,207,-226,34,-120,223,-224,-120,-118,-217,-218,-78,112,-209,126,-113,169,-75,178,160,110,129,180,90,90,270,360,270,360,180,360,180,360,,,,,,,,,,,,,,,,,,,,,,,,,,,,,,,,,,,,,,,,,,,,,,,,,,,,,,,,,,,,,,,,,,,,,
,,17,10,${e://Field/PROLIFIC_PID,F,18,2023-11-03_19h45.10.168,MouseEye_CC,2023.2.2,Win32,74.97938067,1.28,,,1920,1080,64.048,3.68,"49.29, 39.92, 54.86, 45.2, 53.78, 73.31, 58.94",627.38,11.17961999,41.14100155,27.83653633,Passed,137.8223552,,,,,,,,,,,,,,,,,,,,,practice,0,11,180,right,s,,,,,487.2127,487.599,35.84,-1,1,1,0,0,0.3863,fixationPoint,487.5991,487.6923,487.6923,490.8536,35.84,10240,616.96,s,1,3.1484,,490.8536,491.0536,0,10,10,10,1,4,sparse,80,218,-129,62,223,159,121,110,129,-218,159,-223,206,-75,173,-169,-116,-118,-217,-125,-167,217,-164,169,-75,360,270,360,180,360,180,180,270,360,180,90,,,,,,,,,,,,,,,,,,,,,,,,,,,,,,,,,,,,,,,,,,,,,,,,,,,,,,,,,,,,,,,,,,,,,
,,17,10,${e://Field/PROLIFIC_PID,F,18,2023-11-03_19h45.10.168,MouseEye_CC,2023.2.2,Win32,74.97938067,1.28,,,1920,1080,64.048,3.68,"49.29, 39.92, 54.86, 45.2, 53.78, 73.31, 58.94",627.38,11.17961999,41.14100155,27.83653633,Passed,137.8223552,,,,,,,,,,,,,,,,,,,,,practice,0,12,0,left,a,,,,,491.054,491.467,35.84,-1,-1,1,0,0,0.4129,fixationPoint,491.4671,491.5603,491.5603,492.5073,35.84,10240,616.96,a,1,0.9448,,492.5073,492.7074,0,11,11,11,1,3,sparse,75,-25,-117,110,129,125,63,214,216,-164,32,-27,117,-126,125,171,-218,126,-113,167,-163,-21,-224,-212,-21,270,180,180,360,180,270,360,270,360,180,270,,,,,,,,,,,,,,,,,,,,,,,,,,,,,,,,,,,,,,,,,,,,,,,,,,,,,,,,,,,,,,,,,,,,,
,,17,10,${e://Field/PROLIFIC_PID,F,18,2023-11-03_19h45.10.168,MouseEye_CC,2023.2.2,Win32,74.97938067,1.28,,,1920,1080,64.048,3.68,"49.29, 39.92, 54.86, 45.2, 53.78, 73.31, 58.94",627.38,11.17961999,41.14100155,27.83653633,Passed,137.8223552,,,,,,,,,,,,,,,,,,,,,,,,,,,,,,,,,,,,,,,,,,,,,,,,,,,,,,,,,,,,,,,,,,,,,,,,,,,,,,,,,,,,,,,,,,,,,,,,,492.708,511.6877,a,1,18.9641,,,,,,,,,,,,,,,,,,,,,,,,,,,,,,,,,,,,,,,,,,,,,,,,,,,,,,,,,,,,,,,,
,,17,10,${e://Field/PROLIFIC_PID,F,18,2023-11-03_19h45.10.168,MouseEye_CC,2023.2.2,Win32,74.97938067,1.28,,,1920,1080,64.048,3.68,"49.29, 39.92, 54.86, 45.2, 53.78, 73.31, 58.94",627.38,11.17961999,41.14100155,27.83653633,Passed,137.8223552,,,,,,,,,,,,,,,,,,,,,,,,,,,,,,,,,,,,,,,,,,,,,,,,,,,,,,,,,,,,,,,,,,,,,,,,,,,,,,,,,,,,,,,,,,,,,,,,,,,,,,,511.6877,513.2481,,,,,,,,,,,,,,,,,,,,,,,,,,,,,,,,,,,,,,,,,,,,,,,,,,,,,,,,,,,,,
,,17,10,${e://Field/PROLIFIC_PID,F,18,2023-11-03_19h45.10.168,MouseEye_CC,2023.2.2,Win32,74.97938067,1.28,,,1920,1080,64.048,3.68,"49.29, 39.92, 54.86, 45.2, 53.78, 73.31, 58.94",627.38,11.17961999,41.14100155,27.83653633,Passed,137.8223552,,,,,,,,,,,,,,,,,,,,,,,,,,,,,,,,,,,,,,,,,,,,,,,,,,,,,,,,,,,,,,,,,,,,,,,,,,,,,,,,,,,,,,,,,,,,,,,,,,,,,,,,,513.2481,521.8645,,,,,,,,,,,,,,,,,,,,,,,,,,,,,,,,,,,,,,,,,,,,,,,,,,,,,,,,,,,
,,17,10,${e://Field/PROLIFIC_PID,F,18,2023-11-03_19h45.10.168,MouseEye_CC,2023.2.2,Win32,74.97938067,1.28,,,1920,1080,64.048,3.68,"49.29, 39.92, 54.86, 45.2, 53.78, 73.31, 58.94",627.38,11.17961999,41.14100155,27.83653633,Passed,137.8223552,,,,,,,,,,,,,,,,,,,,,training,1,1,180,right,s,,,,,521.9287,522.731,35.84,-1,0,1,0,0,0.8022,fixationPoint,522.7311,522.8244,522.8245,523.6648,35.84,10240,616.96,s,1,0.8197,,523.6648,523.8648,,,,,,,,68,114,-78,212,215,18,16,174,75,-163,208,-28,28,-75,224,-221,-28,-176,-19,-116,-116,172,-224,80,-219,90,180,270,360,270,90,360,180,360,180,270,,,,,,,,,,,523.865,523.8666,,0,0,0,0,1,8,repeated,,,,,,,,,,,,,,,,,,,,,,,,,,,,,,,,,,,,,,,,,,,,,,,,,
,,17,10,${e://Field/PROLIFIC_PID,F,18,2023-11-03_19h45.10.168,MouseEye_CC,2023.2.2,Win32,74.97938067,1.28,,,1920,1080,64.048,3.68,"49.29, 39.92, 54.86, 45.2, 53.78, 73.31, 58.94",627.38,11.17961999,41.14100155,27.83653633,Passed,137.8223552,,,,,,,,,,,,,,,,,,,,,training,1,2,180,right,s,,,,,523.8669,524.1849,35.84,-1,2,1,0,0,0.3179,fixationPoint,524.1849,524.2782,524.2783,528.0943,35.84,10240,616.96,s,1,3.8017,,528.0944,528.293,,,,,,,,71,-215,-119,212,215,26,175,170,167,-74,22,-65,70,-213,175,72,-21,125,-224,223,-27,-121,-21,-218,-174,360,180,360,180,90,270,180,180,90,270,360,,,,,,,,,,,528.293,528.2931,,0,1,1,1,1,6,repeated,,,,,,,,,,,,,,,,,,,,,,,,,,,,,,,,,,,,,,,,,,,,,,,,,
,,17,10,${e://Field/PROLIFIC_PID,F,18,2023-11-03_19h45.10.168,MouseEye_CC,2023.2.2,Win32,74.97938067,1.28,,,1920,1080,64.048,3.68,"49.29, 39.92, 54.86, 45.2, 53.78, 73.31, 58.94",627.38,11.17961999,41.14100155,27.83653633,Passed,137.8223552,,,,,,,,,,,,,,,,,,,,,training,1,3,180,right,s,,,,,528.2933,528.533,35.84,3,1,1,0,0,0.2396,fixationPoint,528.533,528.6264,528.6264,530.8939,35.84,10240,616.96,s,1,2.2418,,530.8941,531.0939,,,,,,,,25,-27,122,128,113,112,72,65,164,-78,-218,-221,-28,-160,-168,27,-75,174,-19,26,-208,-211,215,-213,175,360,90,180,270,180,360,180,270,360,180,180,,,,,,,,,,,531.0939,531.0941,,0,2,2,2,1,3,repeated,,,,,,,,,,,,,,,,,,,,,,,,,,,,,,,,,,,,,,,,,,,,,,,,,
,,17,10,${e://Field/PROLIFIC_PID,F,18,2023-11-03_19h45.10.168,MouseEye_CC,2023.2.2,Win32,74.97938067,1.28,,,1920,1080,64.048,3.68,"49.29, 39.92, 54.86, 45.2, 53.78, 73.31, 58.94",627.38,11.17961999,41.14100155,27.83653633,Passed,137.8223552,,,,,,,,,,,,,,,,,,,,,training,1,4,0,left,a,,,,,531.0943,531.454,35.84,3,-4,1,0,0,0.3596,fixationPoint,531.4541,531.5475,531.5475,532.5345,35.84,10240,616.96,a,1,0.9609,,532.5345,532.7346,,,,,,,,13,-115,168,112,72,128,113,68,222,-165,-118,-214,-220,-116,-116,64,-76,216,-69,216,-216,-209,74,-216,116,90,90,90,90,90,360,270,360,90,360,270,,,,,,,,,,,532.7346,532.7348,,0,3,3,3,1,15,novel,,,,,,,,,,,,,,,,,,,,,,,,,,,,,,,,,,,,,,,,,,,,,,,,,
,,17,10,${e://Field/PROLIFIC_PID,F,18,2023-11-03_19h45.10.168,MouseEye_CC,2023.2.2,Win32,74.97938067,1.28,,,1920,1080,64.048,3.68,"49.29, 39.92, 54.86, 45.2, 53.78, 73.31, 58.94",627.38,11.17961999,41.14100155,27.83653633,Passed,137.8223552,,,,,,,,,,,,,,,,,,,,,training,1,5,180,right,s,,,,,532.735,533.068,35.84,2,-4,1,0,0,0.3328,fixationPoint,533.068,533.1612,533.1612,533.9482,35.84,10240,616.96,s,1,0.7628,,533.9483,534.1491,,,,,,,,14,-73,163,125,208,69,114,112,163,-122,-165,-78,-218,-117,-218,20,-128,216,-69,114,-78,-128,217,-209,74,270,360,90,180,180,180,360,90,360,270,270,,,,,,,,,,,534.1491,534.1493,,0,4,4,4,1,4,repeated,,,,,,,,,,,,,,,,,,,,,,,,,,,,,,,,,,,,,,,,,,,,,,,,,
,,17,10,${e://Field/PROLIFIC_PID,F,18,2023-11-03_19h45.10.168,MouseEye_CC,2023.2.2,Win32,74.97938067,1.28,,,1920,1080,64.048,3.68,"49.29, 39.92, 54.86, 45.2, 53.78, 73.31, 58.94",627.38,11.17961999,41.14100155,27.83653633,Passed,137.8223552,,,,,,,,,,,,,,,,,,,,,training,1,6,0,left,a,,,,,534.1496,534.4697,35.84,-4,-4,1,0,0,0.3201,fixationPoint,534.4697,534.5618,534.5618,537.6827,35.84,10240,616.96,a,1,3.0983,,537.6828,537.8829,,,,,,,,87,76,-169,112,163,68,68,26,175,-32,67,-128,217,-213,175,-64,-171,-25,-115,-176,-19,64,-76,116,-163,180,180,360,270,90,180,180,270,90,270,90,,,,,,,,,,,537.8829,537.8831,,0,5,5,5,1,12,novel,,,,,,,,,,,,,,,,,,,,,,,,,,,,,,,,,,,,,,,,,,,,,,,,,
,,17,10,${e://Field/PROLIFIC_PID,F,18,2023-11-03_19h45.10.168,MouseEye_CC,2023.2.2,Win32,74.97938067,1.28,,,1920,1080,64.048,3.68,"49.29, 39.92, 54.86, 45.2, 53.78, 73.31, 58.94",627.38,11.17961999,41.14100155,27.83653633,Passed,137.8223552,,,,,,,,,,,,,,,,,,,,,training,1,7,0,left,a,,,,,537.8834,538.1896,35.84,-5,-4,1,0,0,0.3061,fixationPoint,538.1896,538.2831,538.2832,540.9774,35.84,10240,616.96,a,1,2.6725,,540.9774,541.1773,,,,,,,,27,69,114,-68,124,-167,28,-173,65,-121,-21,-165,-118,-24,-224,168,-163,124,-118,116,-163,21,208,128,113,270,270,90,90,360,90,360,90,90,360,180,,,,,,,,,,,541.1774,541.1775,,0,6,6,6,1,1,repeated,,,,,,,,,,,,,,,,,,,,,,,,,,,,,,,,,,,,,,,,,,,,,,,,,
,,17,10,${e://Field/PROLIFIC_PID,F,18,2023-11-03_19h45.10.168,MouseEye_CC,2023.2.2,Win32,74.97938067,1.28,,,1920,1080,64.048,3.68,"49.29, 39.92, 54.86, 45.2, 53.78, 73.31, 58.94",627.38,11.17961999,41.14100155,27.83653633,Passed,137.8223552,,,,,,,,,,,,,,,,,,,,,training,1,8,0,left,a,,,,,541.1778,542.0309,35.84,-5,-4,1,0,0,0.8531,fixationPoint,542.0309,542.1244,542.1244,545.9936,35.84,10240,616.96,a,1,3.8548,,545.9937,546.1938,,,,,,,,33,-122,68,208,18,68,222,26,175,-27,-20,-78,-72,-30,-164,27,-75,78,-128,119,-23,-75,224,-68,124,180,270,360,90,270,180,360,270,270,90,180,,,,,,,,,,,546.1938,546.1939,,0,7,7,7,1,16,novel,,,,,,,,,,,,,,,,,,,,,,,,,,,,,,,,,,,,,,,,,,,,,,,,,
,,17,10,${e://Field/PROLIFIC_PID,F,18,2023-11-03_19h45.10.168,MouseEye_CC,2023.2.2,Win32,74.97938067,1.28,,,1920,1080,64.048,3.68,"49.29, 39.92, 54.86, 45.2, 53.78, 73.31, 58.94",627.38,11.17961999,41.14100155,27.83653633,Passed,137.8223552,,,,,,,,,,,,,,,,,,,,,training,1,9,0,left,a,,,,,546.1942,546.6458,35.84,-4,-4,1,0,0,0.4516,fixationPoint,546.6459,546.7394,546.7394,550.0071,35.84,10240,616.96,a,1,3.2415,,550.0071,550.2071,,,,,,,,76,20,-128,18,16,164,120,212,67,-215,16,-164,175,-29,175,-117,-218,-215,-119,-79,-126,119,-23,215,-175,90,360,360,90,90,270,360,180,360,270,270,,,,,,,,,,,550.2072,550.2073,,0,8,8,8,1,11,novel,,,,,,,,,,,,,,,,,,,,,,,,,,,,,,,,,,,,,,,,,,,,,,,,,
,,17,10,${e://Field/PROLIFIC_PID,F,18,2023-11-03_19h45.10.168,MouseEye_CC,2023.2.2,Win32,74.97938067,1.28,,,1920,1080,64.048,3.68,"49.29, 39.92, 54.86, 45.2, 53.78, 73.31, 58.94",627.38,11.17961999,41.14100155,27.83653633,Passed,137.8223552,,,,,,,,,,,,,,,,,,,,,training,1,10,180,right,s,,,,,550.2076,550.5672,35.84,-4,-4,1,0,0,0.3596,fixationPoint,550.5672,550.6605,550.6605,551.5676,35.84,10240,616.96,s,1,0.8876,,551.5676,551.7675,,,,,,,,88,116,-163,170,167,68,68,128,24,-32,67,-119,124,-164,117,-117,-218,-216,-65,-121,-21,80,-219,214,-112,270,270,360,90,270,360,270,360,90,90,180,,,,,,,,,,,551.7676,551.7677,,0,9,9,9,1,7,repeated,,,,,,,,,,,,,,,,,,,,,,,,,,,,,,,,,,,,,,,,,,,,,,,,,
,,17,10,${e://Field/PROLIFIC_PID,F,18,2023-11-03_19h45.10.168,MouseEye_CC,2023.2.2,Win32,74.97938067,1.28,,,1920,1080,64.048,3.68,"49.29, 39.92, 54.86, 45.2, 53.78, 73.31, 58.94",627.38,11.17961999,41.14100155,27.83653633,Passed,137.8223552,,,,,,,,,,,,,,,,,,,,,training,1,11,0,left,a,,,,,551.7679,552.1412,35.84,-4,-4,1,0,0,0.3732,fixationPoint,552.1412,552.2344,552.2345,555.757,35.84,10240,616.96,a,1,3.5081,,555.757,555.9557,,,,,,,,29,164,120,-122,68,-215,16,-163,208,-176,-76,-165,-118,-78,-72,174,-19,78,-128,161,-119,112,163,174,22,180,360,180,180,270,180,360,360,270,90,360,,,,,,,,,,,555.9557,555.9559,,0,10,10,10,1,2,repeated,,,,,,,,,,,,,,,,,,,,,,,,,,,,,,,,,,,,,,,,,,,,,,,,,
,,17,10,${e://Field/PROLIFIC_PID,F,18,2023-11-03_19h45.10.168,MouseEye_CC,2023.2.2,Win32,74.97938067,1.28,,,1920,1080,64.048,3.68,"49.29, 39.92, 54.86, 45.2, 53.78, 73.31, 58.94",627.38,11.17961999,41.14100155,27.83653633,Passed,137.8223552,,,,,,,,,,,,,,,,,,,,,training,1,12,180,right,s,,,,,555.9561,556.3827,35.84,-4,-4,1,0,0,0.4263,fixationPoint,556.3827,556.476,556.4761,561.291,35.84,10240,616.96,s,1,4.7921,,561.291,561.4911,,,,,,,,30,217,124,-122,68,-17,217,-68,124,-116,-116,-160,-168,-78,-72,223,-27,80,-219,161,-119,18,16,128,113,360,270,90,360,180,180,180,90,360,90,270,,,,,,,,,,,561.4911,561.4912,,0,11,11,11,1,14,novel,,,,,,,,,,,,,,,,,,,,,,,,,,,,,,,,,,,,,,,,,,,,,,,,,
,,17,10,${e://Field/PROLIFIC_PID,F,18,2023-11-03_19h45.10.168,MouseEye_CC,2023.2.2,Win32,74.97938067,1.28,,,1920,1080,64.048,3.68,"49.29, 39.92, 54.86, 45.2, 53.78, 73.31, 58.94",627.38,11.17961999,41.14100155,27.83653633,Passed,137.8223552,,,,,,,,,,,,,,,,,,,,,training,1,13,0,left,a,,,,,561.4916,562.5447,35.84,-3,1,1,0,0,1.0531,fixationPoint,562.5447,562.638,562.638,564.6931,35.84,10240,616.96,a,1,2.0404,,564.6931,564.8921,,,,,,,,72,-165,-118,174,22,208,18,170,167,-115,168,-74,22,-65,70,119,-23,116,-163,78,-128,-117,-218,-78,-72,270,360,360,360,180,90,360,90,270,270,270,,,,,,,,,,,564.8921,564.8922,,0,12,12,12,1,10,novel,,,,,,,,,,,,,,,,,,,,,,,,,,,,,,,,,,,,,,,,,,,,,,,,,
,,17,10,${e://Field/PROLIFIC_PID,F,18,2023-11-03_19h45.10.168,MouseEye_CC,2023.2.2,Win32,74.97938067,1.28,,,1920,1080,64.048,3.68,"49.29, 39.92, 54.86, 45.2, 53.78, 73.31, 58.94",627.38,11.17961999,41.14100155,27.83653633,Passed,137.8223552,,,,,,,,,,,,,,,,,,,,,training,1,14,180,right,s,,,,,564.8925,565.2922,35.84,-3,1,1,0,0,0.3995,fixationPoint,565.2922,565.3856,565.3856,569.0402,35.84,10240,616.96,s,1,3.6344,,569.0403,569.2402,,,,,,,,95,-24,-224,208,18,18,16,65,164,-32,67,-209,74,-75,224,125,-224,215,-175,31,-162,-160,-168,-221,-28,270,270,90,180,180,360,90,180,180,180,360,,,,,,,,,,,569.2403,569.2404,,0,13,13,13,1,5,repeated,,,,,,,,,,,,,,,,,,,,,,,,,,,,,,,,,,,,,,,,,,,,,,,,,
,,17,10,${e://Field/PROLIFIC_PID,F,18,2023-11-03_19h45.10.168,MouseEye_CC,2023.2.2,Win32,74.97938067,1.28,,,1920,1080,64.048,3.68,"49.29, 39.92, 54.86, 45.2, 53.78, 73.31, 58.94",627.38,11.17961999,41.14100155,27.83653633,Passed,137.8223552,,,,,,,,,,,,,,,,,,,,,training,1,15,0,left,a,,,,,569.2408,569.587,35.84,-3,1,1,0,0,0.3462,fixationPoint,569.587,569.6804,569.6804,570.9477,35.84,10240,616.96,a,1,1.2436,,570.9478,571.1476,,,,,,,,74,-79,-126,65,164,170,167,30,126,-164,175,-122,68,-27,122,124,-118,161,-64,216,-216,-160,-168,-77,-31,90,270,90,360,360,180,270,360,180,90,90,,,,,,,,,,,571.1476,571.1477,,0,14,14,14,1,9,novel,,,,,,,,,,,,,,,,,,,,,,,,,,,,,,,,,,,,,,,,,,,,,,,,,
,,17,10,${e://Field/PROLIFIC_PID,F,18,2023-11-03_19h45.10.168,MouseEye_CC,2023.2.2,Win32,74.97938067,1.28,,,1920,1080,64.048,3.68,"49.29, 39.92, 54.86, 45.2, 53.78, 73.31, 58.94",627.38,11.17961999,41.14100155,27.83653633,Passed,137.8223552,,,,,,,,,,,,,,,,,,,,,training,1,16,180,right,s,,,,,571.148,571.4543,35.84,-3,1,1,0,0,0.3063,fixationPoint,571.4544,571.5477,571.5477,574.1888,35.84,10240,616.96,s,1,2.6165,,574.1888,574.3887,,,,,,,,6,21,208,-29,175,-73,163,-75,224,-117,-218,-32,-72,-79,-126,27,-75,119,-23,72,-21,212,167,171,212,90,90,90,180,90,270,180,360,90,90,180,,,,,,,,,,,574.3887,576.5772,space,0,15,15,15,1,13,novel,2.1739,,,,,,,,,,,,,,,,,,,,,,,,,,,,,,,,,,,,,,,,,,,,,,,,
,,17,10,${e://Field/PROLIFIC_PID,F,18,2023-11-03_19h45.10.168,MouseEye_CC,2023.2.2,Win32,74.97938067,1.28,,,1920,1080,64.048,3.68,"49.29, 39.92, 54.86, 45.2, 53.78, 73.31, 58.94",627.38,11.17961999,41.14100155,27.83653633,Passed,137.8223552,,,,,,,,,,,,,,,,,,,,,training,2,1,180,right,s,,,,,576.5773,577.6032,35.84,0,-4,1,0,0,1.0258,fixationPoint,577.6032,577.6974,577.6975,580.1374,35.84,10240,616.96,s,1,2.4203,,580.1374,580.3374,,,,,,,,71,-215,-119,212,215,26,175,170,167,-74,22,-65,70,-213,175,72,-21,125,-224,223,-27,-121,-21,-218,-174,360,360,180,90,360,90,180,270,180,360,90,,,,,,,,,,,580.3375,580.3384,,0,16,16,16,1,6,repeated,,,,,,,,,,,,,,,,,,,,,,,,,,,,,,,,,,,,,,,,,,,,,,,,,
,,17,10,${e://Field/PROLIFIC_PID,F,18,2023-11-03_19h45.10.168,MouseEye_CC,2023.2.2,Win32,74.97938067,1.28,,,1920,1080,64.048,3.68,"49.29, 39.92, 54.86, 45.2, 53.78, 73.31, 58.94",627.38,11.17961999,41.14100155,27.83653633,Passed,137.8223552,,,,,,,,,,,,,,,,,,,,,training,2,2,180,right,s,,,,,580.3386,580.6175,35.84,0,-4,1,0,0,0.2788,fixationPoint,580.6176,580.7109,580.7109,582.3782,35.84,10240,616.96,s,1,1.6451,,582.3782,582.5781,,,,,,,,87,76,-169,164,120,128,113,65,164,-213,175,-29,175,-119,124,-78,-218,-32,-72,-176,-19,64,-76,31,-162,360,360,270,270,270,270,360,180,360,360,270,,,,,,,,,,,582.5782,582.5783,,0,17,17,17,1,12,novel,,,,,,,,,,,,,,,,,,,,,,,,,,,,,,,,,,,,,,,,,,,,,,,,,
,,17,10,${e://Field/PROLIFIC_PID,F,18,2023-11-03_19h45.10.168,MouseEye_CC,2023.2.2,Win32,74.97938067,1.28,,,1920,1080,64.048,3.68,"49.29, 39.92, 54.86, 45.2, 53.78, 73.31, 58.94",627.38,11.17961999,41.14100155,27.83653633,Passed,137.8223552,,,,,,,,,,,,,,,,,,,,,training,2,3,180,right,s,,,,,582.5786,582.7115,35.84,2,-4,1,0,0,0.1329,fixationPoint,582.7116,582.8049,582.8049,583.5118,35.84,10240,616.96,s,1,0.687,,583.5119,583.7119,,,,,,,,68,114,-78,212,215,18,16,174,75,-163,208,-28,28,-75,224,-221,-28,-176,-19,-116,-116,172,-224,80,-219,270,270,270,180,90,360,90,180,180,180,360,,,,,,,,,,,583.7119,583.712,,0,18,18,18,1,8,repeated,,,,,,,,,,,,,,,,,,,,,,,,,,,,,,,,,,,,,,,,,,,,,,,,,
,,17,10,${e://Field/PROLIFIC_PID,F,18,2023-11-03_19h45.10.168,MouseEye_CC,2023.2.2,Win32,74.97938067,1.28,,,1920,1080,64.048,3.68,"49.29, 39.92, 54.86, 45.2, 53.78, 73.31, 58.94",627.38,11.17961999,41.14100155,27.83653633,Passed,137.8223552,,,,,,,,,,,,,,,,,,,,,training,2,4,0,left,a,,,,,583.7123,584.0055,35.84,2,-4,1,0,0,0.2931,fixationPoint,584.0055,584.0987,584.0987,586.5128,35.84,10240,616.96,a,1,2.3933,,586.5129,586.713,,,,,,,,13,-115,168,112,72,212,67,164,120,-215,-119,-77,-31,-64,-171,27,-75,20,-128,214,-112,-29,175,-122,68,180,180,90,90,90,360,90,90,360,360,270,,,,,,,,,,,586.713,586.7131,,0,19,19,19,1,15,novel,,,,,,,,,,,,,,,,,,,,,,,,,,,,,,,,,,,,,,,,,,,,,,,,,
,,17,10,${e://Field/PROLIFIC_PID,F,18,2023-11-03_19h45.10.168,MouseEye_CC,2023.2.2,Win32,74.97938067,1.28,,,1920,1080,64.048,3.68,"49.29, 39.92, 54.86, 45.2, 53.78, 73.31, 58.94",627.38,11.17961999,41.14100155,27.83653633,Passed,137.8223552,,,,,,,,,,,,,,,,,,,,,training,2,5,180,right,s,,,,,586.7134,586.9263,35.84,2,-4,1,0,0,0.2128,fixationPoint,586.9263,587.0197,587.0197,588.2067,35.84,10240,616.96,s,1,1.1684,,588.2068,588.4068,,,,,,,,6,21,208,-73,163,-29,175,-211,215,-218,-174,-221,-28,-176,-19,72,-21,78,-128,64,-76,72,30,128,24,90,90,180,180,90,180,360,180,270,270,90,,,,,,,,,,,588.4069,588.4072,,0,20,20,20,1,13,novel,,,,,,,,,,,,,,,,,,,,,,,,,,,,,,,,,,,,,,,,,,,,,,,,,
,,17,10,${e://Field/PROLIFIC_PID,F,18,2023-11-03_19h45.10.168,MouseEye_CC,2023.2.2,Win32,74.97938067,1.28,,,1920,1080,64.048,3.68,"49.29, 39.92, 54.86, 45.2, 53.78, 73.31, 58.94",627.38,11.17961999,41.14100155,27.83653633,Passed,137.8223552,,,,,,,,,,,,,,,,,,,,,training,2,6,0,left,a,,,,,588.4075,588.5669,35.84,2,-4,1,0,0,0.1593,fixationPoint,588.5669,588.6603,588.6603,591.288,35.84,10240,616.96,a,1,2.6081,,591.288,591.4892,,,,,,,,30,217,124,-173,65,-164,175,-163,208,-218,-174,-215,-119,-117,-218,216,-216,64,-76,161,-64,17,74,68,222,270,270,360,90,180,270,270,270,90,270,270,,,,,,,,,,,591.4892,591.4893,,0,21,21,21,1,14,novel,,,,,,,,,,,,,,,,,,,,,,,,,,,,,,,,,,,,,,,,,,,,,,,,,
,,17,10,${e://Field/PROLIFIC_PID,F,18,2023-11-03_19h45.10.168,MouseEye_CC,2023.2.2,Win32,74.97938067,1.28,,,1920,1080,64.048,3.68,"49.29, 39.92, 54.86, 45.2, 53.78, 73.31, 58.94",627.38,11.17961999,41.14100155,27.83653633,Passed,137.8223552,,,,,,,,,,,,,,,,,,,,,training,2,7,0,left,a,,,,,591.4896,591.6212,35.84,2,-4,1,0,0,0.1316,fixationPoint,591.6213,591.7146,591.7146,592.4216,35.84,10240,616.96,a,1,0.6817,,592.4216,592.6216,,,,,,,,29,164,120,-122,68,-215,16,-163,208,-176,-76,-165,-118,-78,-72,174,-19,78,-128,161,-119,112,163,174,22,90,180,270,90,270,90,360,180,180,90,180,,,,,,,,,,,592.6217,592.6217,,0,22,22,22,1,2,repeated,,,,,,,,,,,,,,,,,,,,,,,,,,,,,,,,,,,,,,,,,,,,,,,,,
,,17,10,${e://Field/PROLIFIC_PID,F,18,2023-11-03_19h45.10.168,MouseEye_CC,2023.2.2,Win32,74.97938067,1.28,,,1920,1080,64.048,3.68,"49.29, 39.92, 54.86, 45.2, 53.78, 73.31, 58.94",627.38,11.17961999,41.14100155,27.83653633,Passed,137.8223552,,,,,,,,,,,,,,,,,,,,,training,2,8,0,left,a,,,,,592.6219,592.915,35.84,2,-4,1,0,0,0.293,fixationPoint,592.915,593.0084,593.0084,596.1975,35.84,10240,616.96,a,1,3.1747,,596.1975,596.3963,,,,,,,,95,-24,-224,208,18,18,16,65,164,-32,67,-209,74,-75,224,125,-224,215,-175,31,-162,-160,-168,-221,-28,90,270,270,180,270,90,180,270,180,90,180,,,,,,,,,,,596.3963,596.3965,,0,23,23,23,1,5,repeated,,,,,,,,,,,,,,,,,,,,,,,,,,,,,,,,,,,,,,,,,,,,,,,,,
,,17,10,${e://Field/PROLIFIC_PID,F,18,2023-11-03_19h45.10.168,MouseEye_CC,2023.2.2,Win32,74.97938067,1.28,,,1920,1080,64.048,3.68,"49.29, 39.92, 54.86, 45.2, 53.78, 73.31, 58.94",627.38,11.17961999,41.14100155,27.83653633,Passed,137.8223552,,,,,,,,,,,,,,,,,,,,,training,2,9,180,right,s,,,,,596.3967,596.7163,35.84,2,0,1,0,0,0.3196,fixationPoint,596.7164,596.8109,596.8109,598.437,35.84,10240,616.96,s,1,1.6103,,598.437,598.637,,,,,,,,72,-165,-118,128,113,217,124,69,114,-215,16,-32,67,-74,22,214,-112,161,-119,161,-64,-77,-31,-221,-28,180,180,360,90,180,360,270,270,360,270,270,,,,,,,,,,,598.637,598.6371,,0,24,24,24,1,10,novel,,,,,,,,,,,,,,,,,,,,,,,,,,,,,,,,,,,,,,,,,,,,,,,,,
,,17,10,${e://Field/PROLIFIC_PID,F,18,2023-11-03_19h45.10.168,MouseEye_CC,2023.2.2,Win32,74.97938067,1.28,,,1920,1080,64.048,3.68,"49.29, 39.92, 54.86, 45.2, 53.78, 73.31, 58.94",627.38,11.17961999,41.14100155,27.83653633,Passed,137.8223552,,,,,,,,,,,,,,,,,,,,,training,2,10,180,right,s,,,,,598.6374,598.9037,35.84,-1,-4,1,0,0,0.2663,fixationPoint,598.9037,598.9971,598.9971,600.3977,35.84,10240,616.96,s,1,1.3751,,600.3977,600.5976,,,,,,,,88,116,-163,170,167,68,68,128,24,-32,67,-119,124,-164,117,-117,-218,-216,-65,-121,-21,80,-219,214,-112,360,360,270,180,270,180,90,360,90,360,360,,,,,,,,,,,600.5977,600.5979,,0,25,25,25,1,7,repeated,,,,,,,,,,,,,,,,,,,,,,,,,,,,,,,,,,,,,,,,,,,,,,,,,
,,17,10,${e://Field/PROLIFIC_PID,F,18,2023-11-03_19h45.10.168,MouseEye_CC,2023.2.2,Win32,74.97938067,1.28,,,1920,1080,64.048,3.68,"49.29, 39.92, 54.86, 45.2, 53.78, 73.31, 58.94",627.38,11.17961999,41.14100155,27.83653633,Passed,137.8223552,,,,,,,,,,,,,,,,,,,,,training,2,11,0,left,a,,,,,600.5981,600.8511,35.84,-2,-5,1,0,0,0.2529,fixationPoint,600.8511,600.9445,600.9445,602.9586,35.84,10240,616.96,a,1,1.9879,,602.9587,603.1585,,,,,,,,33,-122,68,171,212,170,167,65,164,-121,-21,-27,-20,-116,-116,168,-163,124,-118,174,-19,-167,28,-32,67,270,180,360,360,270,90,90,270,270,270,360,,,,,,,,,,,603.1585,603.1587,,0,26,26,26,1,16,novel,,,,,,,,,,,,,,,,,,,,,,,,,,,,,,,,,,,,,,,,,,,,,,,,,
,,17,10,${e://Field/PROLIFIC_PID,F,18,2023-11-03_19h45.10.168,MouseEye_CC,2023.2.2,Win32,74.97938067,1.28,,,1920,1080,64.048,3.68,"49.29, 39.92, 54.86, 45.2, 53.78, 73.31, 58.94",627.38,11.17961999,41.14100155,27.83653633,Passed,137.8223552,,,,,,,,,,,,,,,,,,,,,training,2,12,180,right,s,,,,,603.1589,603.412,35.84,-2,-5,1,0,0,0.2531,fixationPoint,603.412,603.5059,603.506,605.7077,35.84,10240,616.96,s,1,2.1884,,605.7077,605.9062,,,,,,,,74,-79,-126,112,72,128,113,217,124,-29,175,-213,175,-74,22,64,-76,168,-163,124,-118,-32,-72,-165,-118,90,90,360,90,270,270,90,180,180,90,180,,,,,,,,,,,605.9062,605.9063,,0,27,27,27,1,9,novel,,,,,,,,,,,,,,,,,,,,,,,,,,,,,,,,,,,,,,,,,,,,,,,,,
,,17,10,${e://Field/PROLIFIC_PID,F,18,2023-11-03_19h45.10.168,MouseEye_CC,2023.2.2,Win32,74.97938067,1.28,,,1920,1080,64.048,3.68,"49.29, 39.92, 54.86, 45.2, 53.78, 73.31, 58.94",627.38,11.17961999,41.14100155,27.83653633,Passed,137.8223552,,,,,,,,,,,,,,,,,,,,,training,2,13,0,left,a,,,,,605.9066,606.2663,35.84,-2,-5,1,0,0,0.3596,fixationPoint,606.2663,606.3597,606.3597,607.4936,35.84,10240,616.96,a,1,1.1084,,607.4936,607.6934,,,,,,,,76,20,-128,21,208,72,30,212,67,-209,74,-164,117,-28,28,-117,-218,-214,-220,-78,-72,78,-128,172,-224,360,90,270,360,180,90,270,270,360,180,360,,,,,,,,,,,607.6934,607.6935,,0,28,28,28,1,11,novel,,,,,,,,,,,,,,,,,,,,,,,,,,,,,,,,,,,,,,,,,,,,,,,,,
,,17,10,${e://Field/PROLIFIC_PID,F,18,2023-11-03_19h45.10.168,MouseEye_CC,2023.2.2,Win32,74.97938067,1.28,,,1920,1080,64.048,3.68,"49.29, 39.92, 54.86, 45.2, 53.78, 73.31, 58.94",627.38,11.17961999,41.14100155,27.83653633,Passed,137.8223552,,,,,,,,,,,,,,,,,,,,,training,2,14,180,right,s,,,,,607.6941,607.9468,35.84,-2,-5,1,0,0,0.2527,fixationPoint,607.9468,608.0402,608.0402,609.4941,35.84,10240,616.96,s,1,1.4279,,609.4942,609.6941,,,,,,,,27,69,114,-68,124,-167,28,-173,65,-121,-21,-165,-118,-24,-224,168,-163,124,-118,116,-163,21,208,128,113,90,270,180,90,90,180,90,90,180,360,180,,,,,,,,,,,609.6942,609.6943,,0,29,29,29,1,1,repeated,,,,,,,,,,,,,,,,,,,,,,,,,,,,,,,,,,,,,,,,,,,,,,,,,
,,17,10,${e://Field/PROLIFIC_PID,F,18,2023-11-03_19h45.10.168,MouseEye_CC,2023.2.2,Win32,74.97938067,1.28,,,1920,1080,64.048,3.68,"49.29, 39.92, 54.86, 45.2, 53.78, 73.31, 58.94",627.38,11.17961999,41.14100155,27.83653633,Passed,137.8223552,,,,,,,,,,,,,,,,,,,,,training,2,15,0,left,a,,,,,609.6945,610.0277,35.84,-2,-5,1,0,0,0.3332,fixationPoint,610.0277,610.1209,610.1209,610.7878,35.84,10240,616.96,a,1,0.643,,610.7879,610.9879,,,,,,,,25,-27,122,128,113,112,72,65,164,-78,-218,-221,-28,-160,-168,27,-75,174,-19,26,-208,-211,215,-213,175,360,360,270,90,360,360,90,90,90,90,360,,,,,,,,,,,610.9879,610.988,,0,30,30,30,1,3,repeated,,,,,,,,,,,,,,,,,,,,,,,,,,,,,,,,,,,,,,,,,,,,,,,,,
,,17,10,${e://Field/PROLIFIC_PID,F,18,2023-11-03_19h45.10.168,MouseEye_CC,2023.2.2,Win32,74.97938067,1.28,,,1920,1080,64.048,3.68,"49.29, 39.92, 54.86, 45.2, 53.78, 73.31, 58.94",627.38,11.17961999,41.14100155,27.83653633,Passed,137.8223552,,,,,,,,,,,,,,,,,,,,,training,2,16,0,left,a,,,,,610.9882,611.2947,35.84,-2,-5,1,0,0,0.3064,fixationPoint,611.2947,611.388,611.388,612.0683,35.84,10240,616.96,a,1,0.6639,,612.0683,612.2684,,,,,,,,14,-73,163,125,208,69,114,112,163,-122,-165,-78,-218,-117,-218,20,-128,216,-69,114,-78,-128,217,-209,74,360,180,180,90,90,270,360,360,360,360,360,,,,,,,,,,,612.2684,613.5489,space,0,31,31,31,1,4,repeated,1.2639,,,,,,,,,,,,,,,,,,,,,,,,,,,,,,,,,,,,,,,,,,,,,,,,
,,17,10,${e://Field/PROLIFIC_PID,F,18,2023-11-03_19h45.10.168,MouseEye_CC,2023.2.2,Win32,74.97938067,1.28,,,1920,1080,64.048,3.68,"49.29, 39.92, 54.86, 45.2, 53.78, 73.31, 58.94",627.38,11.17961999,41.14100155,27.83653633,Passed,137.8223552,,,,,,,,,,,,,,,,,,,,,training,3,1,0,left,a,,,,,613.5492,614.5091,35.84,-2,-5,1,0,0,0.9598,fixationPoint,614.5091,614.6025,614.6025,616.7901,35.84,10240,616.96,a,1,2.17,,616.7901,616.9912,,,,,,,,72,-165,-118,212,167,69,114,174,22,-29,175,-209,74,-164,117,172,-224,116,-163,114,-78,-64,-171,-218,-174,360,90,270,360,360,90,90,180,180,360,360,,,,,,,,,,,616.9912,616.992,,0,32,32,32,1,10,novel,,,,,,,,,,,,,,,,,,,,,,,,,,,,,,,,,,,,,,,,,,,,,,,,,
,,17,10,${e://Field/PROLIFIC_PID,F,18,2023-11-03_19h45.10.168,MouseEye_CC,2023.2.2,Win32,74.97938067,1.28,,,1920,1080,64.048,3.68,"49.29, 39.92, 54.86, 45.2, 53.78, 73.31, 58.94",627.38,11.17961999,41.14100155,27.83653633,Passed,137.8223552,,,,,,,,,,,,,,,,,,,,,training,3,2,0,left,a,,,,,616.9922,617.11,35.84,-2,-5,1,0,0,0.1176,fixationPoint,617.11,617.2034,617.2034,618.6305,35.84,10240,616.96,a,1,1.4086,,618.6305,618.8306,,,,,,,,68,114,-78,212,215,18,16,174,75,-163,208,-28,28,-75,224,-221,-28,-176,-19,-116,-116,172,-224,80,-219,180,360,360,360,90,360,360,180,270,90,180,,,,,,,,,,,618.8306,618.8306,,0,33,33,33,1,8,repeated,,,,,,,,,,,,,,,,,,,,,,,,,,,,,,,,,,,,,,,,,,,,,,,,,
,,17,10,${e://Field/PROLIFIC_PID,F,18,2023-11-03_19h45.10.168,MouseEye_CC,2023.2.2,Win32,74.97938067,1.28,,,1920,1080,64.048,3.68,"49.29, 39.92, 54.86, 45.2, 53.78, 73.31, 58.94",627.38,11.17961999,41.14100155,27.83653633,Passed,137.8223552,,,,,,,,,,,,,,,,,,,,,training,3,3,0,left,a,,,,,618.831,619.1107,35.84,-2,-5,1,0,0,0.2795,fixationPoint,619.1107,619.2041,619.2042,620.9114,35.84,10240,616.96,a,1,1.6808,,620.9114,621.1114,,,,,,,,14,-73,163,125,208,69,114,112,163,-122,-165,-78,-218,-117,-218,20,-128,216,-69,114,-78,-128,217,-209,74,360,90,360,270,180,180,360,90,360,360,270,,,,,,,,,,,621.1114,621.1115,,0,34,34,34,1,4,repeated,,,,,,,,,,,,,,,,,,,,,,,,,,,,,,,,,,,,,,,,,,,,,,,,,
,,17,10,${e://Field/PROLIFIC_PID,F,18,2023-11-03_19h45.10.168,MouseEye_CC,2023.2.2,Win32,74.97938067,1.28,,,1920,1080,64.048,3.68,"49.29, 39.92, 54.86, 45.2, 53.78, 73.31, 58.94",627.38,11.17961999,41.14100155,27.83653633,Passed,137.8223552,,,,,,,,,,,,,,,,,,,,,training,3,4,0,left,a,,,,,621.1118,621.4582,35.84,-2,-5,1,0,0,0.3463,fixationPoint,621.4582,621.5515,621.5515,625.5931,35.84,10240,616.96,a,1,4.0204,,625.5931,625.793,,,,,,,,30,217,124,-167,28,-27,122,-215,16,-24,-224,-176,-19,-218,-174,168,-163,78,-128,161,-64,208,18,68,222,90,180,360,360,180,360,360,90,360,360,90,,,,,,,,,,,625.793,625.7931,,0,35,35,35,1,14,novel,,,,,,,,,,,,,,,,,,,,,,,,,,,,,,,,,,,,,,,,,,,,,,,,,
,,17,10,${e://Field/PROLIFIC_PID,F,18,2023-11-03_19h45.10.168,MouseEye_CC,2023.2.2,Win32,74.97938067,1.28,,,1920,1080,64.048,3.68,"49.29, 39.92, 54.86, 45.2, 53.78, 73.31, 58.94",627.38,11.17961999,41.14100155,27.83653633,Passed,137.8223552,,,,,,,,,,,,,,,,,,,,,training,3,5,180,right,s,,,,,625.7934,626.1264,35.84,-2,-5,1,0,0,0.333,fixationPoint,626.1265,626.2198,626.2198,627.7003,35.84,10240,616.96,s,1,1.4643,,627.7004,627.901,,,,,,,,76,20,-128,26,175,65,164,212,67,-17,217,-215,16,-209,74,-117,-218,-27,-20,-215,-119,168,-163,76,-169,90,360,270,360,360,360,360,90,180,180,90,,,,,,,,,,,627.901,627.9011,,0,36,36,36,1,11,novel,,,,,,,,,,,,,,,,,,,,,,,,,,,,,,,,,,,,,,,,,,,,,,,,,
,,17,10,${e://Field/PROLIFIC_PID,F,18,2023-11-03_19h45.10.168,MouseEye_CC,2023.2.2,Win32,74.97938067,1.28,,,1920,1080,64.048,3.68,"49.29, 39.92, 54.86, 45.2, 53.78, 73.31, 58.94",627.38,11.17961999,41.14100155,27.83653633,Passed,137.8223552,,,,,,,,,,,,,,,,,,,,,training,3,6,0,left,a,,,,,627.9014,628.1537,35.84,-2,-5,1,0,0,0.2523,fixationPoint,628.1538,628.2472,628.2472,630.3946,35.84,10240,616.96,a,1,2.1249,,630.3947,630.5946,,,,,,,,71,-215,-119,212,215,26,175,170,167,-74,22,-65,70,-213,175,72,-21,125,-224,223,-27,-121,-21,-218,-174,180,90,90,270,360,180,180,90,90,90,180,,,,,,,,,,,630.5947,630.5948,,0,37,37,37,1,6,repeated,,,,,,,,,,,,,,,,,,,,,,,,,,,,,,,,,,,,,,,,,,,,,,,,,
,,17,10,${e://Field/PROLIFIC_PID,F,18,2023-11-03_19h45.10.168,MouseEye_CC,2023.2.2,Win32,74.97938067,1.28,,,1920,1080,64.048,3.68,"49.29, 39.92, 54.86, 45.2, 53.78, 73.31, 58.94",627.38,11.17961999,41.14100155,27.83653633,Passed,137.8223552,,,,,,,,,,,,,,,,,,,,,training,3,7,180,right,s,,,,,630.595,631.0614,35.84,-2,-5,1,0,0,0.4663,fixationPoint,631.0615,631.1548,631.1548,632.4353,35.84,10240,616.96,s,1,1.2652,,632.4353,632.6354,,,,,,,,27,69,114,-68,124,-167,28,-173,65,-121,-21,-165,-118,-24,-224,168,-163,124,-118,116,-163,21,208,128,113,180,180,180,180,360,180,360,360,180,360,180,,,,,,,,,,,632.6354,632.6354,,0,38,38,38,1,1,repeated,,,,,,,,,,,,,,,,,,,,,,,,,,,,,,,,,,,,,,,,,,,,,,,,,
,,17,10,${e://Field/PROLIFIC_PID,F,18,2023-11-03_19h45.10.168,MouseEye_CC,2023.2.2,Win32,74.97938067,1.28,,,1920,1080,64.048,3.68,"49.29, 39.92, 54.86, 45.2, 53.78, 73.31, 58.94",627.38,11.17961999,41.14100155,27.83653633,Passed,137.8223552,,,,,,,,,,,,,,,,,,,,,training,3,8,180,right,s,,,,,632.6356,633.0088,35.84,-2,-5,1,0,0,0.3731,fixationPoint,633.0088,633.1022,633.1022,635.4097,35.84,10240,616.96,s,1,2.2859,,635.4097,635.6096,,,,,,,,6,21,208,-173,65,-73,163,-215,16,-121,-21,-78,-72,-221,-28,31,-162,124,-118,216,-216,212,167,128,113,360,180,90,90,180,90,180,270,360,360,90,,,,,,,,,,,635.6096,635.6098,,0,39,39,39,1,13,novel,,,,,,,,,,,,,,,,,,,,,,,,,,,,,,,,,,,,,,,,,,,,,,,,,
,,17,10,${e://Field/PROLIFIC_PID,F,18,2023-11-03_19h45.10.168,MouseEye_CC,2023.2.2,Win32,74.97938067,1.28,,,1920,1080,64.048,3.68,"49.29, 39.92, 54.86, 45.2, 53.78, 73.31, 58.94",627.38,11.17961999,41.14100155,27.83653633,Passed,137.8223552,,,,,,,,,,,,,,,,,,,,,training,3,9,180,right,s,,,,,635.61,635.7831,35.84,-2,-5,1,0,0,0.1729,fixationPoint,635.7831,635.8776,635.8776,637.0902,35.84,10240,616.96,s,1,1.1914,,637.0902,637.2902,,,,,,,,88,116,-163,170,167,68,68,128,24,-32,67,-119,124,-164,117,-117,-218,-216,-65,-121,-21,80,-219,214,-112,90,180,90,90,360,270,360,270,90,90,180,,,,,,,,,,,637.2902,637.2903,,0,40,40,40,1,7,repeated,,,,,,,,,,,,,,,,,,,,,,,,,,,,,,,,,,,,,,,,,,,,,,,,,
,,17,10,${e://Field/PROLIFIC_PID,F,18,2023-11-03_19h45.10.168,MouseEye_CC,2023.2.2,Win32,74.97938067,1.28,,,1920,1080,64.048,3.68,"49.29, 39.92, 54.86, 45.2, 53.78, 73.31, 58.94",627.38,11.17961999,41.14100155,27.83653633,Passed,137.8223552,,,,,,,,,,,,,,,,,,,,,training,3,10,180,right,s,,,,,637.2907,637.5437,35.84,-2,-5,1,0,0,0.2529,fixationPoint,637.5437,637.637,637.637,639.4109,35.84,10240,616.96,s,1,1.7508,,639.411,639.6109,,,,,,,,95,-24,-224,208,18,18,16,65,164,-32,67,-209,74,-75,224,125,-224,215,-175,31,-162,-160,-168,-221,-28,360,270,90,360,360,180,360,360,360,360,90,,,,,,,,,,,639.6109,639.6111,,0,41,41,41,1,5,repeated,,,,,,,,,,,,,,,,,,,,,,,,,,,,,,,,,,,,,,,,,,,,,,,,,
,,17,10,${e://Field/PROLIFIC_PID,F,18,2023-11-03_19h45.10.168,MouseEye_CC,2023.2.2,Win32,74.97938067,1.28,,,1920,1080,64.048,3.68,"49.29, 39.92, 54.86, 45.2, 53.78, 73.31, 58.94",627.38,11.17961999,41.14100155,27.83653633,Passed,137.8223552,,,,,,,,,,,,,,,,,,,,,training,3,11,0,left,a,,,,,639.6114,640.1178,35.84,-2,-5,1,0,0,0.5064,fixationPoint,640.1178,640.2113,640.2113,642.7468,35.84,10240,616.96,a,1,2.5208,,642.7468,642.9454,,,,,,,,29,164,120,-122,68,-215,16,-163,208,-176,-76,-165,-118,-78,-72,174,-19,78,-128,161,-119,112,163,174,22,270,360,270,180,180,180,270,270,270,270,360,,,,,,,,,,,642.9455,642.9456,,0,42,42,42,1,2,repeated,,,,,,,,,,,,,,,,,,,,,,,,,,,,,,,,,,,,,,,,,,,,,,,,,
,,17,10,${e://Field/PROLIFIC_PID,F,18,2023-11-03_19h45.10.168,MouseEye_CC,2023.2.2,Win32,74.97938067,1.28,,,1920,1080,64.048,3.68,"49.29, 39.92, 54.86, 45.2, 53.78, 73.31, 58.94",627.38,11.17961999,41.14100155,27.83653633,Passed,137.8223552,,,,,,,,,,,,,,,,,,,,,training,3,12,0,left,a,,,,,642.9458,643.3189,35.84,-2,-5,1,0,0,0.3731,fixationPoint,643.319,643.4123,643.4123,644.7595,35.84,10240,616.96,a,1,1.3275,,644.7595,644.9595,,,,,,,,33,-122,68,217,124,128,113,212,215,-64,-171,-215,-119,-221,-28,72,-21,116,-163,172,-224,-128,217,-119,124,90,270,360,270,90,360,360,270,360,90,180,,,,,,,,,,,644.9596,644.9597,,0,43,43,43,1,16,novel,,,,,,,,,,,,,,,,,,,,,,,,,,,,,,,,,,,,,,,,,,,,,,,,,
,,17,10,${e://Field/PROLIFIC_PID,F,18,2023-11-03_19h45.10.168,MouseEye_CC,2023.2.2,Win32,74.97938067,1.28,,,1920,1080,64.048,3.68,"49.29, 39.92, 54.86, 45.2, 53.78, 73.31, 58.94",627.38,11.17961999,41.14100155,27.83653633,Passed,137.8223552,,,,,,,,,,,,,,,,,,,,,training,3,13,0,left,a,,,,,644.9599,645.2396,35.84,-2,-5,1,0,0,0.2796,fixationPoint,645.2396,645.333,645.3331,646.0799,35.84,10240,616.96,a,1,0.727,,646.08,646.28,,,,,,,,25,-27,122,128,113,112,72,65,164,-78,-218,-221,-28,-160,-168,27,-75,174,-19,26,-208,-211,215,-213,175,180,180,90,360,270,90,360,360,270,270,360,,,,,,,,,,,646.28,646.2802,,0,44,44,44,1,3,repeated,,,,,,,,,,,,,,,,,,,,,,,,,,,,,,,,,,,,,,,,,,,,,,,,,
,,17,10,${e://Field/PROLIFIC_PID,F,18,2023-11-03_19h45.10.168,MouseEye_CC,2023.2.2,Win32,74.97938067,1.28,,,1920,1080,64.048,3.68,"49.29, 39.92, 54.86, 45.2, 53.78, 73.31, 58.94",627.38,11.17961999,41.14100155,27.83653633,Passed,137.8223552,,,,,,,,,,,,,,,,,,,,,training,3,14,180,right,s,,,,,646.2804,646.5468,35.84,-2,-5,1,0,0,0.2663,fixationPoint,646.5468,646.6401,646.6401,648.1873,35.84,10240,616.96,s,1,1.5318,,648.1874,648.3873,,,,,,,,74,-79,-126,68,222,21,208,174,75,-120,28,-164,175,-17,217,116,-163,216,-216,214,-112,-173,-216,-214,-220,180,360,270,180,360,180,180,90,90,360,270,,,,,,,,,,,648.3874,648.3874,,0,45,45,45,1,9,novel,,,,,,,,,,,,,,,,,,,,,,,,,,,,,,,,,,,,,,,,,,,,,,,,,
,,17,10,${e://Field/PROLIFIC_PID,F,18,2023-11-03_19h45.10.168,MouseEye_CC,2023.2.2,Win32,74.97938067,1.28,,,1920,1080,64.048,3.68,"49.29, 39.92, 54.86, 45.2, 53.78, 73.31, 58.94",627.38,11.17961999,41.14100155,27.83653633,Passed,137.8223552,,,,,,,,,,,,,,,,,,,,,training,3,15,180,right,s,,,,,648.3877,648.7076,35.84,-2,-5,1,0,0,0.3199,fixationPoint,648.7077,648.8009,648.8009,650.6015,35.84,10240,616.96,s,1,1.7791,,650.6016,650.8015,,,,,,,,87,76,-169,69,114,112,163,21,208,-164,175,-73,163,-119,124,-79,-126,-221,-28,-64,-171,216,-69,119,-23,180,270,360,180,90,270,90,90,90,180,180,,,,,,,,,,,650.8015,650.8017,,0,46,46,46,1,12,novel,,,,,,,,,,,,,,,,,,,,,,,,,,,,,,,,,,,,,,,,,,,,,,,,,
,,17,10,${e://Field/PROLIFIC_PID,F,18,2023-11-03_19h45.10.168,MouseEye_CC,2023.2.2,Win32,74.97938067,1.28,,,1920,1080,64.048,3.68,"49.29, 39.92, 54.86, 45.2, 53.78, 73.31, 58.94",627.38,11.17961999,41.14100155,27.83653633,Passed,137.8223552,,,,,,,,,,,,,,,,,,,,,training,3,16,180,right,s,,,,,650.802,651.1749,35.84,-2,-5,1,0,0,0.3729,fixationPoint,651.175,651.2684,651.2684,652.3102,35.84,10240,616.96,s,1,1.0276,,652.3102,652.5088,,,,,,,,13,-115,168,217,124,128,24,68,68,-27,-20,-24,-224,-77,-31,72,-21,114,-78,26,-208,-167,28,-173,65,270,270,90,90,180,270,270,360,270,90,360,,,,,,,,,,,652.5089,653.3091,space,0,47,47,47,1,15,novel,0.7753,,,,,,,,,,,,,,,,,,,,,,,,,,,,,,,,,,,,,,,,,,,,,,,,
,,17,10,${e://Field/PROLIFIC_PID,F,18,2023-11-03_19h45.10.168,MouseEye_CC,2023.2.2,Win32,74.97938067,1.28,,,1920,1080,64.048,3.68,"49.29, 39.92, 54.86, 45.2, 53.78, 73.31, 58.94",627.38,11.17961999,41.14100155,27.83653633,Passed,137.8223552,,,,,,,,,,,,,,,,,,,,,training,4,1,0,left,a,,,,,653.3093,654.3761,35.84,-2,-5,1,0,0,1.0668,fixationPoint,654.3762,654.4694,654.4694,655.4699,35.84,10240,616.96,a,1,0.9825,,655.4699,655.6699,,,,,,,,13,-115,168,30,126,212,167,68,68,-160,-168,-30,-164,-79,-126,72,-21,27,-75,216,-69,-173,65,-209,74,90,270,180,90,360,360,90,90,90,180,360,,,,,,,,,,,655.6699,655.6706,,0,48,48,48,1,15,novel,,,,,,,,,,,,,,,,,,,,,,,,,,,,,,,,,,,,,,,,,,,,,,,,,
,,17,10,${e://Field/PROLIFIC_PID,F,18,2023-11-03_19h45.10.168,MouseEye_CC,2023.2.2,Win32,74.97938067,1.28,,,1920,1080,64.048,3.68,"49.29, 39.92, 54.86, 45.2, 53.78, 73.31, 58.94",627.38,11.17961999,41.14100155,27.83653633,Passed,137.8223552,,,,,,,,,,,,,,,,,,,,,training,4,2,0,left,a,,,,,655.6708,655.9766,35.84,-2,-5,1,0,0,0.3057,fixationPoint,655.9766,656.07,656.0701,657.4038,35.84,10240,616.96,a,1,1.318,,657.4038,657.6038,,,,,,,,6,21,208,-215,16,-68,124,-73,163,-173,-216,-218,-174,-116,-116,64,-76,116,-163,216,-216,26,175,17,74,270,180,90,90,360,360,270,90,360,90,90,,,,,,,,,,,657.6039,657.6039,,0,49,49,49,1,13,novel,,,,,,,,,,,,,,,,,,,,,,,,,,,,,,,,,,,,,,,,,,,,,,,,,
,,17,10,${e://Field/PROLIFIC_PID,F,18,2023-11-03_19h45.10.168,MouseEye_CC,2023.2.2,Win32,74.97938067,1.28,,,1920,1080,64.048,3.68,"49.29, 39.92, 54.86, 45.2, 53.78, 73.31, 58.94",627.38,11.17961999,41.14100155,27.83653633,Passed,137.8223552,,,,,,,,,,,,,,,,,,,,,training,4,3,0,left,a,,,,,657.6042,657.8172,35.84,-2,-5,1,0,0,0.213,fixationPoint,657.8173,657.9107,657.9107,658.791,35.84,10240,616.96,a,1,0.8612,,658.791,658.9909,,,,,,,,27,69,114,-68,124,-167,28,-173,65,-121,-21,-165,-118,-24,-224,168,-163,124,-118,116,-163,21,208,128,113,180,360,360,90,90,270,180,90,90,270,180,,,,,,,,,,,658.991,658.9911,,0,50,50,50,1,1,repeated,,,,,,,,,,,,,,,,,,,,,,,,,,,,,,,,,,,,,,,,,,,,,,,,,
,,17,10,${e://Field/PROLIFIC_PID,F,18,2023-11-03_19h45.10.168,MouseEye_CC,2023.2.2,Win32,74.97938067,1.28,,,1920,1080,64.048,3.68,"49.29, 39.92, 54.86, 45.2, 53.78, 73.31, 58.94",627.38,11.17961999,41.14100155,27.83653633,Passed,137.8223552,,,,,,,,,,,,,,,,,,,,,training,4,4,180,right,s,,,,,658.9914,659.2844,35.84,-2,-5,1,0,0,0.2929,fixationPoint,659.2844,659.3777,659.3778,660.8453,35.84,10240,616.96,s,1,1.4424,,660.8453,661.045,,,,,,,,71,-215,-119,212,215,26,175,170,167,-74,22,-65,70,-213,175,72,-21,125,-224,223,-27,-121,-21,-218,-174,90,90,180,270,90,270,90,90,90,180,270,,,,,,,,,,,661.0451,661.0451,,0,51,51,51,1,6,repeated,,,,,,,,,,,,,,,,,,,,,,,,,,,,,,,,,,,,,,,,,,,,,,,,,
,,17,10,${e://Field/PROLIFIC_PID,F,18,2023-11-03_19h45.10.168,MouseEye_CC,2023.2.2,Win32,74.97938067,1.28,,,1920,1080,64.048,3.68,"49.29, 39.92, 54.86, 45.2, 53.78, 73.31, 58.94",627.38,11.17961999,41.14100155,27.83653633,Passed,137.8223552,,,,,,,,,,,,,,,,,,,,,training,4,5,0,left,a,,,,,661.0454,661.3252,35.84,-2,-5,1,0,0,0.2797,fixationPoint,661.3252,661.4185,661.4185,663.3392,35.84,10240,616.96,a,1,1.8973,,663.3393,663.5392,,,,,,,,33,-122,68,68,68,72,30,112,72,-78,-218,-218,-174,-216,-65,215,-175,78,-128,26,-208,-213,175,-209,74,360,270,270,180,180,270,270,90,90,270,360,,,,,,,,,,,663.5393,663.5395,,0,52,52,52,1,16,novel,,,,,,,,,,,,,,,,,,,,,,,,,,,,,,,,,,,,,,,,,,,,,,,,,
,,17,10,${e://Field/PROLIFIC_PID,F,18,2023-11-03_19h45.10.168,MouseEye_CC,2023.2.2,Win32,74.97938067,1.28,,,1920,1080,64.048,3.68,"49.29, 39.92, 54.86, 45.2, 53.78, 73.31, 58.94",627.38,11.17961999,41.14100155,27.83653633,Passed,137.8223552,,,,,,,,,,,,,,,,,,,,,training,4,6,0,left,a,,,,,663.5398,664.0061,35.84,-2,-5,1,0,0,0.4662,fixationPoint,664.0061,664.1006,664.1006,665.6867,35.84,10240,616.96,a,1,1.5607,,665.6867,665.8879,,,,,,,,95,-24,-224,208,18,18,16,65,164,-32,67,-209,74,-75,224,125,-224,215,-175,31,-162,-160,-168,-221,-28,270,360,360,270,360,180,270,180,270,270,180,,,,,,,,,,,665.8879,665.888,,0,53,53,53,1,5,repeated,,,,,,,,,,,,,,,,,,,,,,,,,,,,,,,,,,,,,,,,,,,,,,,,,
,,17,10,${e://Field/PROLIFIC_PID,F,18,2023-11-03_19h45.10.168,MouseEye_CC,2023.2.2,Win32,74.97938067,1.28,,,1920,1080,64.048,3.68,"49.29, 39.92, 54.86, 45.2, 53.78, 73.31, 58.94",627.38,11.17961999,41.14100155,27.83653633,Passed,137.8223552,,,,,,,,,,,,,,,,,,,,,training,4,7,180,right,s,,,,,665.8882,666.1401,35.84,-2,-5,1,0,0,0.2518,fixationPoint,666.1401,666.2334,666.2334,666.875,35.84,10240,616.96,s,1,0.6272,,666.8751,667.075,,,,,,,,25,-27,122,128,113,112,72,65,164,-78,-218,-221,-28,-160,-168,27,-75,174,-19,26,-208,-211,215,-213,175,270,180,270,90,360,90,360,270,90,90,270,,,,,,,,,,,667.075,667.0752,,0,54,54,54,1,3,repeated,,,,,,,,,,,,,,,,,,,,,,,,,,,,,,,,,,,,,,,,,,,,,,,,,
,,17,10,${e://Field/PROLIFIC_PID,F,18,2023-11-03_19h45.10.168,MouseEye_CC,2023.2.2,Win32,74.97938067,1.28,,,1920,1080,64.048,3.68,"49.29, 39.92, 54.86, 45.2, 53.78, 73.31, 58.94",627.38,11.17961999,41.14100155,27.83653633,Passed,137.8223552,,,,,,,,,,,,,,,,,,,,,training,4,8,180,right,s,,,,,667.0754,667.3405,35.84,-2,-5,1,0,0,0.2651,fixationPoint,667.3406,667.4338,667.4339,668.4087,35.84,10240,616.96,s,1,0.9604,,668.4087,668.6076,,,,,,,,30,217,124,-119,124,-216,116,-215,16,-173,-216,-27,-20,-176,-76,216,-69,168,-163,119,-23,72,30,212,67,180,360,180,270,180,180,180,360,90,180,270,,,,,,,,,,,668.6076,668.6077,,0,55,55,55,1,14,novel,,,,,,,,,,,,,,,,,,,,,,,,,,,,,,,,,,,,,,,,,,,,,,,,,
,,17,10,${e://Field/PROLIFIC_PID,F,18,2023-11-03_19h45.10.168,MouseEye_CC,2023.2.2,Win32,74.97938067,1.28,,,1920,1080,64.048,3.68,"49.29, 39.92, 54.86, 45.2, 53.78, 73.31, 58.94",627.38,11.17961999,41.14100155,27.83653633,Passed,137.8223552,,,,,,,,,,,,,,,,,,,,,training,4,9,0,left,a,,,,,668.608,668.8476,35.84,-2,-5,1,0,0,0.2396,fixationPoint,668.8477,668.9426,668.9426,670.2615,35.84,10240,616.96,a,1,1.2948,,670.2615,670.4615,,,,,,,,74,-79,-126,128,113,174,22,164,120,-173,65,-68,124,-211,215,124,-118,31,-162,172,-224,-116,-72,-221,-28,180,90,90,180,90,360,360,360,360,180,180,,,,,,,,,,,670.4616,670.4617,,0,56,56,56,1,9,novel,,,,,,,,,,,,,,,,,,,,,,,,,,,,,,,,,,,,,,,,,,,,,,,,,
,,17,10,${e://Field/PROLIFIC_PID,F,18,2023-11-03_19h45.10.168,MouseEye_CC,2023.2.2,Win32,74.97938067,1.28,,,1920,1080,64.048,3.68,"49.29, 39.92, 54.86, 45.2, 53.78, 73.31, 58.94",627.38,11.17961999,41.14100155,27.83653633,Passed,137.8223552,,,,,,,,,,,,,,,,,,,,,training,4,10,180,right,s,,,,,670.462,670.8217,35.84,-2,-5,1,0,0,0.3597,fixationPoint,670.8218,670.9151,670.9151,672.0622,35.84,10240,616.96,s,1,1.1287,,672.0622,672.2623,,,,,,,,88,116,-163,170,167,68,68,128,24,-32,67,-119,124,-164,117,-117,-218,-216,-65,-121,-21,80,-219,214,-112,180,180,360,360,180,360,270,270,90,180,90,,,,,,,,,,,672.2623,672.2624,,0,57,57,57,1,7,repeated,,,,,,,,,,,,,,,,,,,,,,,,,,,,,,,,,,,,,,,,,,,,,,,,,
,,17,10,${e://Field/PROLIFIC_PID,F,18,2023-11-03_19h45.10.168,MouseEye_CC,2023.2.2,Win32,74.97938067,1.28,,,1920,1080,64.048,3.68,"49.29, 39.92, 54.86, 45.2, 53.78, 73.31, 58.94",627.38,11.17961999,41.14100155,27.83653633,Passed,137.8223552,,,,,,,,,,,,,,,,,,,,,training,4,11,180,right,s,,,,,672.2627,672.569,35.84,-2,-5,1,0,0,0.3063,fixationPoint,672.569,672.6623,672.6624,673.7694,35.84,10240,616.96,s,1,1.0854,,673.7695,673.9695,,,,,,,,76,20,-128,125,208,164,120,112,72,-216,116,-163,208,-17,217,-116,-72,-214,-220,-78,-218,161,-119,124,-118,360,180,90,270,90,90,360,360,90,360,270,,,,,,,,,,,673.9696,673.9696,,0,58,58,58,1,11,novel,,,,,,,,,,,,,,,,,,,,,,,,,,,,,,,,,,,,,,,,,,,,,,,,,
,,17,10,${e://Field/PROLIFIC_PID,F,18,2023-11-03_19h45.10.168,MouseEye_CC,2023.2.2,Win32,74.97938067,1.28,,,1920,1080,64.048,3.68,"49.29, 39.92, 54.86, 45.2, 53.78, 73.31, 58.94",627.38,11.17961999,41.14100155,27.83653633,Passed,137.8223552,,,,,,,,,,,,,,,,,,,,,training,4,12,0,left,a,,,,,673.9698,674.2229,35.84,-2,-5,1,0,0,0.253,fixationPoint,674.2229,674.3162,674.3162,677.6907,35.84,10240,616.96,a,1,3.3596,,677.6908,677.8909,,,,,,,,29,164,120,-122,68,-215,16,-163,208,-176,-76,-165,-118,-78,-72,174,-19,78,-128,161,-119,112,163,174,22,90,90,360,270,180,270,360,360,270,270,180,,,,,,,,,,,677.8909,677.891,,0,59,59,59,1,2,repeated,,,,,,,,,,,,,,,,,,,,,,,,,,,,,,,,,,,,,,,,,,,,,,,,,
,,17,10,${e://Field/PROLIFIC_PID,F,18,2023-11-03_19h45.10.168,MouseEye_CC,2023.2.2,Win32,74.97938067,1.28,,,1920,1080,64.048,3.68,"49.29, 39.92, 54.86, 45.2, 53.78, 73.31, 58.94",627.38,11.17961999,41.14100155,27.83653633,Passed,137.8223552,,,,,,,,,,,,,,,,,,,,,training,4,13,0,left,a,,,,,677.8913,678.1709,35.84,-2,-5,1,0,0,0.2795,fixationPoint,678.171,678.2642,678.2642,679.3314,35.84,10240,616.96,a,1,1.0518,,679.3314,679.5314,,,,,,,,87,76,-169,164,120,21,208,72,30,-167,28,-215,16,-163,208,-117,-218,-218,-174,-215,-119,27,-75,64,-76,90,270,90,180,270,180,180,360,180,360,180,,,,,,,,,,,679.5315,679.5315,,0,60,60,60,1,12,novel,,,,,,,,,,,,,,,,,,,,,,,,,,,,,,,,,,,,,,,,,,,,,,,,,
,,17,10,${e://Field/PROLIFIC_PID,F,18,2023-11-03_19h45.10.168,MouseEye_CC,2023.2.2,Win32,74.97938067,1.28,,,1920,1080,64.048,3.68,"49.29, 39.92, 54.86, 45.2, 53.78, 73.31, 58.94",627.38,11.17961999,41.14100155,27.83653633,Passed,137.8223552,,,,,,,,,,,,,,,,,,,,,training,4,14,180,right,s,,,,,679.5318,679.8249,35.84,-2,-5,1,0,0,0.2929,fixationPoint,679.8249,679.9181,679.9182,681.2921,35.84,10240,616.96,s,1,1.3499,,681.2921,681.4921,,,,,,,,68,114,-78,212,215,18,16,174,75,-163,208,-28,28,-75,224,-221,-28,-176,-19,-116,-116,172,-224,80,-219,270,180,360,90,270,180,90,360,270,90,360,,,,,,,,,,,681.4921,681.4922,,0,61,61,61,1,8,repeated,,,,,,,,,,,,,,,,,,,,,,,,,,,,,,,,,,,,,,,,,,,,,,,,,
,,17,10,${e://Field/PROLIFIC_PID,F,18,2023-11-03_19h45.10.168,MouseEye_CC,2023.2.2,Win32,74.97938067,1.28,,,1920,1080,64.048,3.68,"49.29, 39.92, 54.86, 45.2, 53.78, 73.31, 58.94",627.38,11.17961999,41.14100155,27.83653633,Passed,137.8223552,,,,,,,,,,,,,,,,,,,,,training,4,15,180,right,s,,,,,681.4925,682.2522,35.84,-2,-5,1,0,0,0.7597,fixationPoint,682.2523,682.3457,682.3457,683.2394,35.84,10240,616.96,s,1,0.8675,,683.2394,683.4394,,,,,,,,14,-73,163,125,208,69,114,112,163,-122,-165,-78,-218,-117,-218,20,-128,216,-69,114,-78,-128,217,-209,74,360,270,360,360,270,270,360,90,180,180,270,,,,,,,,,,,683.4394,683.4395,,0,62,62,62,1,4,repeated,,,,,,,,,,,,,,,,,,,,,,,,,,,,,,,,,,,,,,,,,,,,,,,,,
,,17,10,${e://Field/PROLIFIC_PID,F,18,2023-11-03_19h45.10.168,MouseEye_CC,2023.2.2,Win32,74.97938067,1.28,,,1920,1080,64.048,3.68,"49.29, 39.92, 54.86, 45.2, 53.78, 73.31, 58.94",627.38,11.17961999,41.14100155,27.83653633,Passed,137.8223552,,,,,,,,,,,,,,,,,,,,,training,4,16,180,right,s,,,,,683.4398,684.7598,35.84,-2,-5,1,0,0,1.3199,fixationPoint,684.7598,684.8532,684.8532,686.387,35.84,10240,616.96,s,1,1.5187,,686.3871,686.5871,,,,,,,,72,-165,-118,72,30,65,164,217,124,-17,217,-75,224,-173,65,28,-16,31,-162,172,-224,-176,-19,-176,-76,180,90,360,90,180,90,90,90,90,360,360,,,,,,,,,,,686.5871,687.5352,space,0,63,63,63,1,10,novel,0.9336,,,,,,,,,,,,,,,,,,,,,,,,,,,,,,,,,,,,,,,,,,,,,,,,
,,17,10,${e://Field/PROLIFIC_PID,F,18,2023-11-03_19h45.10.168,MouseEye_CC,2023.2.2,Win32,74.97938067,1.28,,,1920,1080,64.048,3.68,"49.29, 39.92, 54.86, 45.2, 53.78, 73.31, 58.94",627.38,11.17961999,41.14100155,27.83653633,Passed,137.8223552,,,,,,,,,,,,,,,,,,,,,training,5,1,180,right,s,,,,,687.5354,688.5345,35.84,-2,-5,1,0,0,0.9991,fixationPoint,688.5345,688.6278,688.6278,689.7082,35.84,10240,616.96,s,1,1.0563,,689.7082,689.9083,,,,,,,,76,20,-128,112,163,208,18,65,164,-215,16,-27,122,-122,68,-218,-174,-78,-218,-173,-216,64,-76,27,-75,360,270,360,270,180,270,180,180,360,180,180,,,,,,,,,,,689.9083,689.9091,,0,64,64,64,1,11,novel,,,,,,,,,,,,,,,,,,,,,,,,,,,,,,,,,,,,,,,,,,,,,,,,,
,,17,10,${e://Field/PROLIFIC_PID,F,18,2023-11-03_19h45.10.168,MouseEye_CC,2023.2.2,Win32,74.97938067,1.28,,,1920,1080,64.048,3.68,"49.29, 39.92, 54.86, 45.2, 53.78, 73.31, 58.94",627.38,11.17961999,41.14100155,27.83653633,Passed,137.8223552,,,,,,,,,,,,,,,,,,,,,training,5,2,0,left,a,,,,,689.9094,690.0282,35.84,-2,-5,1,0,0,0.1188,fixationPoint,690.0283,690.1217,690.1217,691.122,35.84,10240,616.96,a,1,0.9785,,691.122,691.322,,,,,,,,87,76,-169,212,67,112,163,69,114,-209,74,-216,116,-17,217,-173,-216,-77,-31,-79,-126,119,-23,116,-163,360,90,360,270,180,270,360,180,180,270,90,,,,,,,,,,,691.3221,691.3222,,0,65,65,65,1,12,novel,,,,,,,,,,,,,,,,,,,,,,,,,,,,,,,,,,,,,,,,,,,,,,,,,
,,17,10,${e://Field/PROLIFIC_PID,F,18,2023-11-03_19h45.10.168,MouseEye_CC,2023.2.2,Win32,74.97938067,1.28,,,1920,1080,64.048,3.68,"49.29, 39.92, 54.86, 45.2, 53.78, 73.31, 58.94",627.38,11.17961999,41.14100155,27.83653633,Passed,137.8223552,,,,,,,,,,,,,,,,,,,,,training,5,3,180,right,s,,,,,691.3225,692.0156,35.84,-2,-5,1,0,0,0.693,fixationPoint,692.0157,692.109,692.109,694.0831,35.84,10240,616.96,s,1,1.9588,,694.0831,694.2831,,,,,,,,25,-27,122,128,113,112,72,65,164,-78,-218,-221,-28,-160,-168,27,-75,174,-19,26,-208,-211,215,-213,175,180,360,270,360,90,270,360,90,180,360,90,,,,,,,,,,,694.2831,694.2832,,0,66,66,66,1,3,repeated,,,,,,,,,,,,,,,,,,,,,,,,,,,,,,,,,,,,,,,,,,,,,,,,,
,,17,10,${e://Field/PROLIFIC_PID,F,18,2023-11-03_19h45.10.168,MouseEye_CC,2023.2.2,Win32,74.97938067,1.28,,,1920,1080,64.048,3.68,"49.29, 39.92, 54.86, 45.2, 53.78, 73.31, 58.94",627.38,11.17961999,41.14100155,27.83653633,Passed,137.8223552,,,,,,,,,,,,,,,,,,,,,training,5,4,180,right,s,,,,,694.2835,697.8444,35.84,-2,-1,1,0,0,3.5608,fixationPoint,697.8445,697.9378,697.9378,699.1249,35.84,10240,616.96,s,1,1.1704,,699.1249,699.3256,,,,,,,,88,116,-163,170,167,68,68,128,24,-32,67,-119,124,-164,117,-117,-218,-216,-65,-121,-21,80,-219,214,-112,360,90,180,360,180,360,270,270,360,360,180,,,,,,,,,,,699.3256,699.3258,,0,67,67,67,1,7,repeated,,,,,,,,,,,,,,,,,,,,,,,,,,,,,,,,,,,,,,,,,,,,,,,,,
,,17,10,${e://Field/PROLIFIC_PID,F,18,2023-11-03_19h45.10.168,MouseEye_CC,2023.2.2,Win32,74.97938067,1.28,,,1920,1080,64.048,3.68,"49.29, 39.92, 54.86, 45.2, 53.78, 73.31, 58.94",627.38,11.17961999,41.14100155,27.83653633,Passed,137.8223552,,,,,,,,,,,,,,,,,,,,,training,5,5,180,right,s,,,,,699.3262,700.1518,35.84,-2,-1,1,0,0,0.8253,fixationPoint,700.1518,700.2452,700.2452,701.3388,35.84,10240,616.96,s,1,1.0791,,701.3389,701.5389,,,,,,,,72,-165,-118,68,222,18,16,26,175,-115,168,-163,208,-27,122,161,-119,119,-23,174,-19,-218,-174,-25,-115,180,90,360,180,180,90,270,270,270,180,90,,,,,,,,,,,701.5389,701.539,,0,68,68,68,1,10,novel,,,,,,,,,,,,,,,,,,,,,,,,,,,,,,,,,,,,,,,,,,,,,,,,,
,,17,10,${e://Field/PROLIFIC_PID,F,18,2023-11-03_19h45.10.168,MouseEye_CC,2023.2.2,Win32,74.97938067,1.28,,,1920,1080,64.048,3.68,"49.29, 39.92, 54.86, 45.2, 53.78, 73.31, 58.94",627.38,11.17961999,41.14100155,27.83653633,Passed,137.8223552,,,,,,,,,,,,,,,,,,,,,training,5,6,0,left,a,,,,,701.5393,701.9657,35.84,-2,-1,1,0,0,0.4264,fixationPoint,701.9658,702.0592,702.0592,703.1128,35.84,10240,616.96,a,1,1.0328,,703.1128,703.3128,,,,,,,,74,-79,-126,30,126,217,124,17,74,-29,175,-209,74,-128,217,174,-19,216,-216,168,-163,-216,-65,-116,-116,360,90,360,360,180,360,90,360,180,180,270,,,,,,,,,,,703.3128,703.3129,,0,69,69,69,1,9,novel,,,,,,,,,,,,,,,,,,,,,,,,,,,,,,,,,,,,,,,,,,,,,,,,,
,,17,10,${e://Field/PROLIFIC_PID,F,18,2023-11-03_19h45.10.168,MouseEye_CC,2023.2.2,Win32,74.97938067,1.28,,,1920,1080,64.048,3.68,"49.29, 39.92, 54.86, 45.2, 53.78, 73.31, 58.94",627.38,11.17961999,41.14100155,27.83653633,Passed,137.8223552,,,,,,,,,,,,,,,,,,,,,training,5,7,0,left,a,,,,,703.3133,703.7797,35.84,-2,-1,1,0,0,0.4663,fixationPoint,703.7797,703.873,703.873,705.5403,35.84,10240,616.96,a,1,1.651,,705.5403,705.7404,,,,,,,,30,217,124,-73,163,-164,175,-27,122,-165,-118,-27,-20,-64,-171,216,-69,125,-224,172,-224,212,215,17,74,180,90,270,90,180,360,270,180,90,360,180,,,,,,,,,,,705.7405,705.7405,,0,70,70,70,1,14,novel,,,,,,,,,,,,,,,,,,,,,,,,,,,,,,,,,,,,,,,,,,,,,,,,,
,,17,10,${e://Field/PROLIFIC_PID,F,18,2023-11-03_19h45.10.168,MouseEye_CC,2023.2.2,Win32,74.97938067,1.28,,,1920,1080,64.048,3.68,"49.29, 39.92, 54.86, 45.2, 53.78, 73.31, 58.94",627.38,11.17961999,41.14100155,27.83653633,Passed,137.8223552,,,,,,,,,,,,,,,,,,,,,training,5,8,180,right,s,,,,,705.7408,706.9541,35.84,-2,-1,1,0,0,1.2132,fixationPoint,706.9541,707.0475,707.0476,708.516,35.84,10240,616.96,s,1,1.4543,,708.516,708.7147,,,,,,,,95,-24,-224,208,18,18,16,65,164,-32,67,-209,74,-75,224,125,-224,215,-175,31,-162,-160,-168,-221,-28,270,180,90,180,360,270,270,360,270,360,270,,,,,,,,,,,708.7147,708.7148,,0,71,71,71,1,5,repeated,,,,,,,,,,,,,,,,,,,,,,,,,,,,,,,,,,,,,,,,,,,,,,,,,
,,17,10,${e://Field/PROLIFIC_PID,F,18,2023-11-03_19h45.10.168,MouseEye_CC,2023.2.2,Win32,74.97938067,1.28,,,1920,1080,64.048,3.68,"49.29, 39.92, 54.86, 45.2, 53.78, 73.31, 58.94",627.38,11.17961999,41.14100155,27.83653633,Passed,137.8223552,,,,,,,,,,,,,,,,,,,,,training,5,9,0,left,a,,,,,708.7152,713.1562,35.84,-2,-1,1,0,0,4.441,fixationPoint,713.1563,713.2496,713.2496,715.4771,35.84,10240,616.96,a,1,2.2016,,715.4771,715.6771,,,,,,,,6,21,208,-119,124,-73,163,-32,67,-215,-119,-173,-216,-32,-72,223,-27,26,-208,76,-169,212,215,128,113,90,180,90,270,360,360,360,360,270,90,270,,,,,,,,,,,715.6771,715.6772,,0,72,72,72,1,13,novel,,,,,,,,,,,,,,,,,,,,,,,,,,,,,,,,,,,,,,,,,,,,,,,,,
,,17,10,${e://Field/PROLIFIC_PID,F,18,2023-11-03_19h45.10.168,MouseEye_CC,2023.2.2,Win32,74.97938067,1.28,,,1920,1080,64.048,3.68,"49.29, 39.92, 54.86, 45.2, 53.78, 73.31, 58.94",627.38,11.17961999,41.14100155,27.83653633,Passed,137.8223552,,,,,,,,,,,,,,,,,,,,,training,5,10,180,right,s,,,,,715.6774,716.1572,35.84,-2,-1,1,0,0,0.4798,fixationPoint,716.1572,716.2506,716.2506,717.6511,35.84,10240,616.96,s,1,1.3774,,717.6513,717.8511,,,,,,,,68,114,-78,212,215,18,16,174,75,-163,208,-28,28,-75,224,-221,-28,-176,-19,-116,-116,172,-224,80,-219,90,360,180,180,180,360,90,180,270,270,360,,,,,,,,,,,717.8512,717.8512,,0,73,73,73,1,8,repeated,,,,,,,,,,,,,,,,,,,,,,,,,,,,,,,,,,,,,,,,,,,,,,,,,
,,17,10,${e://Field/PROLIFIC_PID,F,18,2023-11-03_19h45.10.168,MouseEye_CC,2023.2.2,Win32,74.97938067,1.28,,,1920,1080,64.048,3.68,"49.29, 39.92, 54.86, 45.2, 53.78, 73.31, 58.94",627.38,11.17961999,41.14100155,27.83653633,Passed,137.8223552,,,,,,,,,,,,,,,,,,,,,training,5,11,0,left,a,,,,,717.8515,718.3713,35.84,-2,-1,1,0,0,0.5197,fixationPoint,718.3714,718.4647,718.4648,720.8656,35.84,10240,616.96,a,1,2.3793,,720.8656,721.0656,,,,,,,,14,-73,163,125,208,69,114,112,163,-122,-165,-78,-218,-117,-218,20,-128,216,-69,114,-78,-128,217,-209,74,90,180,90,360,270,90,180,90,270,360,90,,,,,,,,,,,721.0656,721.0658,,0,74,74,74,1,4,repeated,,,,,,,,,,,,,,,,,,,,,,,,,,,,,,,,,,,,,,,,,,,,,,,,,
,,17,10,${e://Field/PROLIFIC_PID,F,18,2023-11-03_19h45.10.168,MouseEye_CC,2023.2.2,Win32,74.97938067,1.28,,,1920,1080,64.048,3.68,"49.29, 39.92, 54.86, 45.2, 53.78, 73.31, 58.94",627.38,11.17961999,41.14100155,27.83653633,Passed,137.8223552,,,,,,,,,,,,,,,,,,,,,training,5,12,180,right,s,,,,,721.066,721.4524,35.84,-10,2,1,0,0,0.3862,fixationPoint,721.4524,721.5458,721.5458,723.6534,35.84,10240,616.96,s,1,2.0824,,723.6534,723.8532,,,,,,,,71,-215,-119,212,215,26,175,170,167,-74,22,-65,70,-213,175,72,-21,125,-224,223,-27,-121,-21,-218,-174,360,90,360,90,360,180,180,90,360,90,90,,,,,,,,,,,723.8532,723.8533,,0,75,75,75,1,6,repeated,,,,,,,,,,,,,,,,,,,,,,,,,,,,,,,,,,,,,,,,,,,,,,,,,
,,17,10,${e://Field/PROLIFIC_PID,F,18,2023-11-03_19h45.10.168,MouseEye_CC,2023.2.2,Win32,74.97938067,1.28,,,1920,1080,64.048,3.68,"49.29, 39.92, 54.86, 45.2, 53.78, 73.31, 58.94",627.38,11.17961999,41.14100155,27.83653633,Passed,137.8223552,,,,,,,,,,,,,,,,,,,,,training,5,13,180,right,s,,,,,723.8536,724.2132,35.84,-7,2,1,0,0,0.3596,fixationPoint,724.2133,724.3067,724.3067,726.2408,35.84,10240,616.96,s,1,1.9134,,726.2409,726.4421,,,,,,,,29,164,120,-122,68,-215,16,-163,208,-176,-76,-165,-118,-78,-72,174,-19,78,-128,161,-119,112,163,174,22,360,270,180,360,270,270,90,90,180,90,360,,,,,,,,,,,726.4422,726.4424,,0,76,76,76,1,2,repeated,,,,,,,,,,,,,,,,,,,,,,,,,,,,,,,,,,,,,,,,,,,,,,,,,
,,17,10,${e://Field/PROLIFIC_PID,F,18,2023-11-03_19h45.10.168,MouseEye_CC,2023.2.2,Win32,74.97938067,1.28,,,1920,1080,64.048,3.68,"49.29, 39.92, 54.86, 45.2, 53.78, 73.31, 58.94",627.38,11.17961999,41.14100155,27.83653633,Passed,137.8223552,,,,,,,,,,,,,,,,,,,,,training,5,14,0,left,a,,,,,726.4427,726.7742,35.84,-5,-5,1,0,0,0.3314,fixationPoint,726.7743,726.8675,726.8675,727.8679,35.84,10240,616.96,a,1,0.9763,,727.8679,728.0681,,,,,,,,27,69,114,-68,124,-167,28,-173,65,-121,-21,-165,-118,-24,-224,168,-163,124,-118,116,-163,21,208,128,113,360,360,270,360,270,360,270,180,90,180,360,,,,,,,,,,,728.0681,728.0683,,0,77,77,77,1,1,repeated,,,,,,,,,,,,,,,,,,,,,,,,,,,,,,,,,,,,,,,,,,,,,,,,,
,,17,10,${e://Field/PROLIFIC_PID,F,18,2023-11-03_19h45.10.168,MouseEye_CC,2023.2.2,Win32,74.97938067,1.28,,,1920,1080,64.048,3.68,"49.29, 39.92, 54.86, 45.2, 53.78, 73.31, 58.94",627.38,11.17961999,41.14100155,27.83653633,Passed,137.8223552,,,,,,,,,,,,,,,,,,,,,training,5,15,0,left,a,,,,,728.0685,728.3481,35.84,-4,-8,1,0,0,0.2796,fixationPoint,728.3482,728.4414,728.4414,729.6286,35.84,10240,616.96,a,1,1.1705,,729.6286,729.8285,,,,,,,,13,-115,168,21,208,26,175,171,212,-214,-220,-218,-174,-78,-218,27,-75,78,-128,223,-27,-209,74,-164,175,270,270,90,360,180,360,90,180,180,270,270,,,,,,,,,,,729.8286,729.8286,,0,78,78,78,1,15,novel,,,,,,,,,,,,,,,,,,,,,,,,,,,,,,,,,,,,,,,,,,,,,,,,,
,,17,10,${e://Field/PROLIFIC_PID,F,18,2023-11-03_19h45.10.168,MouseEye_CC,2023.2.2,Win32,74.97938067,1.28,,,1920,1080,64.048,3.68,"49.29, 39.92, 54.86, 45.2, 53.78, 73.31, 58.94",627.38,11.17961999,41.14100155,27.83653633,Passed,137.8223552,,,,,,,,,,,,,,,,,,,,,training,5,16,0,left,a,,,,,729.8289,730.122,35.84,-3,-6,1,0,0,0.293,fixationPoint,730.122,730.2154,730.2154,731.0425,35.84,10240,616.96,a,1,0.8125,,731.0425,731.2424,,,,,,,,33,-122,68,17,74,72,30,125,208,-32,-72,-122,-165,-215,-119,214,-112,76,-169,125,-224,-213,175,-68,124,360,180,180,360,360,360,90,90,360,270,90,,,,,,,,,,,731.2425,732.0427,space,0,79,79,79,1,16,novel,0.7855,,,,,,,,,,,,,,,,,,,,,,,,,,,,,,,,,,,,,,,,,,,,,,,,
,,17,10,${e://Field/PROLIFIC_PID,F,18,2023-11-03_19h45.10.168,MouseEye_CC,2023.2.2,Win32,74.97938067,1.28,,,1920,1080,64.048,3.68,"49.29, 39.92, 54.86, 45.2, 53.78, 73.31, 58.94",627.38,11.17961999,41.14100155,27.83653633,Passed,137.8223552,,,,,,,,,,,,,,,,,,,,,training,6,1,180,right,s,,,,,732.043,732.6564,35.84,-2,-5,1,0,0,0.6132,fixationPoint,732.6564,732.7495,732.7496,733.4445,35.84,10240,616.96,s,1,0.6803,,733.4446,733.6433,,,,,,,,25,-27,122,128,113,112,72,65,164,-78,-218,-221,-28,-160,-168,27,-75,174,-19,26,-208,-211,215,-213,175,90,360,270,270,90,270,360,90,270,180,90,,,,,,,,,,,733.6433,733.6443,,0,80,80,80,1,3,repeated,,,,,,,,,,,,,,,,,,,,,,,,,,,,,,,,,,,,,,,,,,,,,,,,,
,,17,10,${e://Field/PROLIFIC_PID,F,18,2023-11-03_19h45.10.168,MouseEye_CC,2023.2.2,Win32,74.97938067,1.28,,,1920,1080,64.048,3.68,"49.29, 39.92, 54.86, 45.2, 53.78, 73.31, 58.94",627.38,11.17961999,41.14100155,27.83653633,Passed,137.8223552,,,,,,,,,,,,,,,,,,,,,training,6,2,180,right,s,,,,,733.6446,733.9767,35.84,2,-4,1,0,0,0.332,fixationPoint,733.9767,734.0711,734.0711,735.4191,35.84,10240,616.96,s,1,1.3351,,735.4191,735.6173,,,,,,,,88,116,-163,170,167,68,68,128,24,-32,67,-119,124,-164,117,-117,-218,-216,-65,-121,-21,80,-219,214,-112,180,360,270,180,180,270,90,90,270,90,270,,,,,,,,,,,735.6174,735.6174,,0,81,81,81,1,7,repeated,,,,,,,,,,,,,,,,,,,,,,,,,,,,,,,,,,,,,,,,,,,,,,,,,
,,17,10,${e://Field/PROLIFIC_PID,F,18,2023-11-03_19h45.10.168,MouseEye_CC,2023.2.2,Win32,74.97938067,1.28,,,1920,1080,64.048,3.68,"49.29, 39.92, 54.86, 45.2, 53.78, 73.31, 58.94",627.38,11.17961999,41.14100155,27.83653633,Passed,137.8223552,,,,,,,,,,,,,,,,,,,,,training,6,3,180,right,s,,,,,735.6176,736.1374,35.84,4,8,1,0,0,0.5196,fixationPoint,736.1374,736.2319,736.2319,737.738,35.84,10240,616.96,s,1,1.4852,,737.738,737.9381,,,,,,,,68,114,-78,212,215,18,16,174,75,-163,208,-28,28,-75,224,-221,-28,-176,-19,-116,-116,172,-224,80,-219,270,90,360,180,180,90,90,360,90,270,90,,,,,,,,,,,737.9381,737.9382,,0,82,82,82,1,8,repeated,,,,,,,,,,,,,,,,,,,,,,,,,,,,,,,,,,,,,,,,,,,,,,,,,
,,17,10,${e://Field/PROLIFIC_PID,F,18,2023-11-03_19h45.10.168,MouseEye_CC,2023.2.2,Win32,74.97938067,1.28,,,1920,1080,64.048,3.68,"49.29, 39.92, 54.86, 45.2, 53.78, 73.31, 58.94",627.38,11.17961999,41.14100155,27.83653633,Passed,137.8223552,,,,,,,,,,,,,,,,,,,,,training,6,4,0,left,a,,,,,737.9384,738.2981,35.84,2,7,1,0,0,0.3597,fixationPoint,738.2982,738.3915,738.3915,739.5919,35.84,10240,616.96,a,1,1.1809,,739.592,739.7919,,,,,,,,87,76,-169,174,75,18,16,217,124,-74,22,-32,67,-164,175,-165,-118,-218,-174,-176,-19,161,-119,161,-64,360,360,270,180,90,90,270,180,180,270,270,,,,,,,,,,,739.792,739.7921,,0,83,83,83,1,12,novel,,,,,,,,,,,,,,,,,,,,,,,,,,,,,,,,,,,,,,,,,,,,,,,,,
,,17,10,${e://Field/PROLIFIC_PID,F,18,2023-11-03_19h45.10.168,MouseEye_CC,2023.2.2,Win32,74.97938067,1.28,,,1920,1080,64.048,3.68,"49.29, 39.92, 54.86, 45.2, 53.78, 73.31, 58.94",627.38,11.17961999,41.14100155,27.83653633,Passed,137.8223552,,,,,,,,,,,,,,,,,,,,,training,6,5,0,left,a,,,,,739.7923,740.1521,35.84,2,6,1,0,0,0.3596,fixationPoint,740.1521,740.2466,740.2466,741.3259,35.84,10240,616.96,a,1,1.0543,,741.326,741.5261,,,,,,,,71,-215,-119,212,215,26,175,170,167,-74,22,-65,70,-213,175,72,-21,125,-224,223,-27,-121,-21,-218,-174,360,180,90,180,270,180,360,360,270,270,360,,,,,,,,,,,741.5261,741.5261,,0,84,84,84,1,6,repeated,,,,,,,,,,,,,,,,,,,,,,,,,,,,,,,,,,,,,,,,,,,,,,,,,
,,17,10,${e://Field/PROLIFIC_PID,F,18,2023-11-03_19h45.10.168,MouseEye_CC,2023.2.2,Win32,74.97938067,1.28,,,1920,1080,64.048,3.68,"49.29, 39.92, 54.86, 45.2, 53.78, 73.31, 58.94",627.38,11.17961999,41.14100155,27.83653633,Passed,137.8223552,,,,,,,,,,,,,,,,,,,,,training,6,6,180,right,s,,,,,741.5264,742.0327,35.84,-4,-7,1,0,0,0.5063,fixationPoint,742.0328,742.1262,742.1262,743.5545,35.84,10240,616.96,s,1,1.4143,,743.5545,743.7534,,,,,,,,95,-24,-224,208,18,18,16,65,164,-32,67,-209,74,-75,224,125,-224,215,-175,31,-162,-160,-168,-221,-28,270,180,180,270,90,180,180,180,180,360,360,,,,,,,,,,,743.7534,743.7534,,0,85,85,85,1,5,repeated,,,,,,,,,,,,,,,,,,,,,,,,,,,,,,,,,,,,,,,,,,,,,,,,,
,,17,10,${e://Field/PROLIFIC_PID,F,18,2023-11-03_19h45.10.168,MouseEye_CC,2023.2.2,Win32,74.97938067,1.28,,,1920,1080,64.048,3.68,"49.29, 39.92, 54.86, 45.2, 53.78, 73.31, 58.94",627.38,11.17961999,41.14100155,27.83653633,Passed,137.8223552,,,,,,,,,,,,,,,,,,,,,training,6,7,180,right,s,,,,,743.7537,744.1268,35.84,-4,-6,1,0,0,0.373,fixationPoint,744.1269,744.2211,744.2211,745.9809,35.84,10240,616.96,s,1,1.7438,,745.9809,746.1808,,,,,,,,33,-122,68,26,175,69,114,125,208,-64,-171,-78,-218,-215,-119,116,-163,216,-69,114,-78,-74,22,-167,28,180,180,90,180,90,90,270,90,270,270,180,,,,,,,,,,,746.1808,746.1809,,0,86,86,86,1,16,novel,,,,,,,,,,,,,,,,,,,,,,,,,,,,,,,,,,,,,,,,,,,,,,,,,
,,17,10,${e://Field/PROLIFIC_PID,F,18,2023-11-03_19h45.10.168,MouseEye_CC,2023.2.2,Win32,74.97938067,1.28,,,1920,1080,64.048,3.68,"49.29, 39.92, 54.86, 45.2, 53.78, 73.31, 58.94",627.38,11.17961999,41.14100155,27.83653633,Passed,137.8223552,,,,,,,,,,,,,,,,,,,,,training,6,8,0,left,a,,,,,746.1812,746.6076,35.84,-3,-6,1,0,0,0.4264,fixationPoint,746.6077,746.701,746.701,748.6751,35.84,10240,616.96,a,1,1.9507,,748.6751,748.8751,,,,,,,,74,-79,-126,128,113,208,18,171,212,-215,16,-115,168,-28,28,161,-64,125,-224,172,-224,-121,-21,-216,-65,90,180,180,90,270,360,270,360,270,270,90,,,,,,,,,,,748.8752,748.8753,,0,87,87,87,1,9,novel,,,,,,,,,,,,,,,,,,,,,,,,,,,,,,,,,,,,,,,,,,,,,,,,,
,,17,10,${e://Field/PROLIFIC_PID,F,18,2023-11-03_19h45.10.168,MouseEye_CC,2023.2.2,Win32,74.97938067,1.28,,,1920,1080,64.048,3.68,"49.29, 39.92, 54.86, 45.2, 53.78, 73.31, 58.94",627.38,11.17961999,41.14100155,27.83653633,Passed,137.8223552,,,,,,,,,,,,,,,,,,,,,training,6,9,0,left,a,,,,,748.8755,749.2752,35.84,-3,-6,1,0,0,0.3995,fixationPoint,749.2752,749.3686,749.3686,750.7958,35.84,10240,616.96,a,1,1.4031,,750.7959,750.9958,,,,,,,,29,164,120,-122,68,-215,16,-163,208,-176,-76,-165,-118,-78,-72,174,-19,78,-128,161,-119,112,163,174,22,90,360,90,270,90,180,180,270,90,180,180,,,,,,,,,,,750.9959,750.996,,0,88,88,88,1,2,repeated,,,,,,,,,,,,,,,,,,,,,,,,,,,,,,,,,,,,,,,,,,,,,,,,,
,,17,10,${e://Field/PROLIFIC_PID,F,18,2023-11-03_19h45.10.168,MouseEye_CC,2023.2.2,Win32,74.97938067,1.28,,,1920,1080,64.048,3.68,"49.29, 39.92, 54.86, 45.2, 53.78, 73.31, 58.94",627.38,11.17961999,41.14100155,27.83653633,Passed,137.8223552,,,,,,,,,,,,,,,,,,,,,training,6,10,0,left,a,,,,,750.9962,751.4493,35.84,-3,-6,1,0,0,0.4531,fixationPoint,751.4493,751.5441,751.5441,754.9572,35.84,10240,616.96,a,1,3.3892,,754.9572,755.1584,,,,,,,,72,-165,-118,208,18,26,175,69,114,-74,22,-28,28,-122,68,31,-162,64,-76,168,-163,-78,-72,-117,-218,180,360,270,270,90,90,360,270,360,360,360,,,,,,,,,,,755.1585,755.1585,,0,89,89,89,1,10,novel,,,,,,,,,,,,,,,,,,,,,,,,,,,,,,,,,,,,,,,,,,,,,,,,,
,,17,10,${e://Field/PROLIFIC_PID,F,18,2023-11-03_19h45.10.168,MouseEye_CC,2023.2.2,Win32,74.97938067,1.28,,,1920,1080,64.048,3.68,"49.29, 39.92, 54.86, 45.2, 53.78, 73.31, 58.94",627.38,11.17961999,41.14100155,27.83653633,Passed,137.8223552,,,,,,,,,,,,,,,,,,,,,training,6,11,180,right,s,,,,,755.1587,755.4641,35.84,-3,-6,1,0,0,0.3052,fixationPoint,755.4641,755.5574,755.5574,758.9327,35.84,10240,616.96,s,1,3.3609,,758.9327,759.1321,,,,,,,,13,-115,168,21,208,112,72,212,167,-64,-171,-221,-28,-79,-126,161,-64,26,-208,214,-112,-27,122,-29,175,360,360,180,90,180,90,90,270,90,360,90,,,,,,,,,,,759.1321,759.1323,,0,90,90,90,1,15,novel,,,,,,,,,,,,,,,,,,,,,,,,,,,,,,,,,,,,,,,,,,,,,,,,,
,,17,10,${e://Field/PROLIFIC_PID,F,18,2023-11-03_19h45.10.168,MouseEye_CC,2023.2.2,Win32,74.97938067,1.28,,,1920,1080,64.048,3.68,"49.29, 39.92, 54.86, 45.2, 53.78, 73.31, 58.94",627.38,11.17961999,41.14100155,27.83653633,Passed,137.8223552,,,,,,,,,,,,,,,,,,,,,training,6,12,180,right,s,,,,,759.1326,759.452,35.84,-3,-6,1,0,0,0.3194,fixationPoint,759.4521,759.5454,759.5455,761.693,35.84,10240,616.96,s,1,2.1224,,761.693,761.893,,,,,,,,76,20,-128,174,22,208,18,68,68,-115,168,-17,217,-216,116,-214,-220,-77,-31,-173,-216,223,-27,80,-219,360,270,360,360,360,360,180,180,90,360,270,,,,,,,,,,,761.8931,761.8931,,0,91,91,91,1,11,novel,,,,,,,,,,,,,,,,,,,,,,,,,,,,,,,,,,,,,,,,,,,,,,,,,
,,17,10,${e://Field/PROLIFIC_PID,F,18,2023-11-03_19h45.10.168,MouseEye_CC,2023.2.2,Win32,74.97938067,1.28,,,1920,1080,64.048,3.68,"49.29, 39.92, 54.86, 45.2, 53.78, 73.31, 58.94",627.38,11.17961999,41.14100155,27.83653633,Passed,137.8223552,,,,,,,,,,,,,,,,,,,,,training,6,13,180,right,s,,,,,761.8934,762.413,35.84,-3,-6,1,0,0,0.5195,fixationPoint,762.413,762.5066,762.5066,763.5735,35.84,10240,616.96,s,1,1.0495,,763.5735,763.7735,,,,,,,,6,21,208,-65,70,-209,74,-75,224,-176,-76,-117,-218,-24,-224,28,-16,20,-128,31,-162,30,126,72,30,180,270,270,90,270,90,90,90,180,360,360,,,,,,,,,,,763.7735,763.7738,,0,92,92,92,1,13,novel,,,,,,,,,,,,,,,,,,,,,,,,,,,,,,,,,,,,,,,,,,,,,,,,,
,,17,10,${e://Field/PROLIFIC_PID,F,18,2023-11-03_19h45.10.168,MouseEye_CC,2023.2.2,Win32,74.97938067,1.28,,,1920,1080,64.048,3.68,"49.29, 39.92, 54.86, 45.2, 53.78, 73.31, 58.94",627.38,11.17961999,41.14100155,27.83653633,Passed,137.8223552,,,,,,,,,,,,,,,,,,,,,training,6,14,0,left,a,,,,,763.7741,764.2136,35.84,-3,-7,1,0,0,0.4395,fixationPoint,764.2137,764.3071,764.3071,765.3474,35.84,10240,616.96,a,1,1.0249,,765.3475,765.5476,,,,,,,,27,69,114,-68,124,-167,28,-173,65,-121,-21,-165,-118,-24,-224,168,-163,124,-118,116,-163,21,208,128,113,180,270,270,180,90,90,180,180,180,270,90,,,,,,,,,,,765.5476,765.5477,,0,93,93,93,1,1,repeated,,,,,,,,,,,,,,,,,,,,,,,,,,,,,,,,,,,,,,,,,,,,,,,,,
,,17,10,${e://Field/PROLIFIC_PID,F,18,2023-11-03_19h45.10.168,MouseEye_CC,2023.2.2,Win32,74.97938067,1.28,,,1920,1080,64.048,3.68,"49.29, 39.92, 54.86, 45.2, 53.78, 73.31, 58.94",627.38,11.17961999,41.14100155,27.83653633,Passed,137.8223552,,,,,,,,,,,,,,,,,,,,,training,6,15,0,left,a,,,,,765.548,765.9343,35.84,-3,-7,1,0,0,0.3862,fixationPoint,765.9343,766.0276,766.0278,768.0017,35.84,10240,616.96,a,1,1.9519,,768.0018,768.2017,,,,,,,,14,-73,163,125,208,69,114,112,163,-122,-165,-78,-218,-117,-218,20,-128,216,-69,114,-78,-128,217,-209,74,180,90,180,270,360,360,180,180,90,180,270,,,,,,,,,,,768.2017,768.2019,,0,94,94,94,1,4,repeated,,,,,,,,,,,,,,,,,,,,,,,,,,,,,,,,,,,,,,,,,,,,,,,,,
,,17,10,${e://Field/PROLIFIC_PID,F,18,2023-11-03_19h45.10.168,MouseEye_CC,2023.2.2,Win32,74.97938067,1.28,,,1920,1080,64.048,3.68,"49.29, 39.92, 54.86, 45.2, 53.78, 73.31, 58.94",627.38,11.17961999,41.14100155,27.83653633,Passed,137.8223552,,,,,,,,,,,,,,,,,,,,,training,6,16,0,left,a,,,,,768.2021,768.5885,35.84,-7,-4,1,0,0,0.3863,fixationPoint,768.5886,768.6819,768.682,769.6823,35.84,10240,616.96,a,1,0.9784,,769.6823,769.8823,,,,,,,,30,217,124,-68,124,-216,116,-215,16,-160,-168,-215,-119,-216,-65,216,-216,26,-208,64,-76,17,74,68,222,360,180,270,180,270,90,90,270,90,90,180,,,,,,,,,,,769.8824,770.9773,space,0,95,95,95,1,14,novel,1.0804,,,,,,,,,,,,,,,,,,,,,,,,,,,,,,,,,,,,,,,,,,,,,,,,
,,17,10,${e://Field/PROLIFIC_PID,F,18,2023-11-03_19h45.10.168,MouseEye_CC,2023.2.2,Win32,74.97938067,1.28,,,1920,1080,64.048,3.68,"49.29, 39.92, 54.86, 45.2, 53.78, 73.31, 58.94",627.38,11.17961999,41.14100155,27.83653633,Passed,137.8223552,,,,,,,,,,,,,,,,,,,,,training,7,1,0,left,a,,,,,770.9775,771.4163,35.84,-7,-4,1,0,0,0.4387,fixationPoint,771.4163,771.5095,771.5095,773.3101,35.84,10240,616.96,a,1,1.7825,,773.3101,773.5102,,,,,,,,74,-79,-126,17,74,208,18,68,222,-115,168,-29,175,-73,163,216,-69,161,-64,114,-78,-116,-72,-117,-218,180,180,360,180,270,360,360,270,90,180,270,,,,,,,,,,,773.5102,773.5109,,0,96,96,96,1,9,novel,,,,,,,,,,,,,,,,,,,,,,,,,,,,,,,,,,,,,,,,,,,,,,,,,
,,17,10,${e://Field/PROLIFIC_PID,F,18,2023-11-03_19h45.10.168,MouseEye_CC,2023.2.2,Win32,74.97938067,1.28,,,1920,1080,64.048,3.68,"49.29, 39.92, 54.86, 45.2, 53.78, 73.31, 58.94",627.38,11.17961999,41.14100155,27.83653633,Passed,137.8223552,,,,,,,,,,,,,,,,,,,,,training,7,2,180,right,s,,,,,773.5111,773.897,35.84,-7,-4,1,0,0,0.3858,fixationPoint,773.8971,773.9903,773.9904,774.6439,35.84,10240,616.96,s,1,0.6376,,774.6439,774.844,,,,,,,,25,-27,122,128,113,112,72,65,164,-78,-218,-221,-28,-160,-168,27,-75,174,-19,26,-208,-211,215,-213,175,270,90,180,360,90,270,90,270,180,270,180,,,,,,,,,,,774.844,774.8441,,0,97,97,97,1,3,repeated,,,,,,,,,,,,,,,,,,,,,,,,,,,,,,,,,,,,,,,,,,,,,,,,,
,,17,10,${e://Field/PROLIFIC_PID,F,18,2023-11-03_19h45.10.168,MouseEye_CC,2023.2.2,Win32,74.97938067,1.28,,,1920,1080,64.048,3.68,"49.29, 39.92, 54.86, 45.2, 53.78, 73.31, 58.94",627.38,11.17961999,41.14100155,27.83653633,Passed,137.8223552,,,,,,,,,,,,,,,,,,,,,training,7,3,0,left,a,,,,,774.8443,775.1375,35.84,-7,-4,1,0,0,0.2931,fixationPoint,775.1375,775.2308,775.2309,776.0187,35.84,10240,616.96,a,1,0.7741,,776.0187,776.2178,,,,,,,,14,-73,163,125,208,69,114,112,163,-122,-165,-78,-218,-117,-218,20,-128,216,-69,114,-78,-128,217,-209,74,270,360,90,90,90,270,90,180,180,180,360,,,,,,,,,,,776.2178,776.2179,,0,98,98,98,1,4,repeated,,,,,,,,,,,,,,,,,,,,,,,,,,,,,,,,,,,,,,,,,,,,,,,,,
,,17,10,${e://Field/PROLIFIC_PID,F,18,2023-11-03_19h45.10.168,MouseEye_CC,2023.2.2,Win32,74.97938067,1.28,,,1920,1080,64.048,3.68,"49.29, 39.92, 54.86, 45.2, 53.78, 73.31, 58.94",627.38,11.17961999,41.14100155,27.83653633,Passed,137.8223552,,,,,,,,,,,,,,,,,,,,,training,7,4,0,left,a,,,,,776.2181,776.5379,35.84,-7,-4,1,0,0,0.3197,fixationPoint,776.538,776.6313,776.6313,778.9521,35.84,10240,616.96,a,1,2.3007,,778.9521,779.1522,,,,,,,,88,116,-163,170,167,68,68,128,24,-32,67,-119,124,-164,117,-117,-218,-216,-65,-121,-21,80,-219,214,-112,270,90,180,270,90,270,270,270,360,90,270,,,,,,,,,,,779.1523,779.1523,,0,99,99,99,1,7,repeated,,,,,,,,,,,,,,,,,,,,,,,,,,,,,,,,,,,,,,,,,,,,,,,,,
,,17,10,${e://Field/PROLIFIC_PID,F,18,2023-11-03_19h45.10.168,MouseEye_CC,2023.2.2,Win32,74.97938067,1.28,,,1920,1080,64.048,3.68,"49.29, 39.92, 54.86, 45.2, 53.78, 73.31, 58.94",627.38,11.17961999,41.14100155,27.83653633,Passed,137.8223552,,,,,,,,,,,,,,,,,,,,,training,7,5,180,right,s,,,,,779.1525,779.459,35.84,-8,-5,1,0,0,0.3064,fixationPoint,779.459,779.5523,779.5524,784.9822,35.84,10240,616.96,s,1,5.4155,,784.9822,785.1808,,,,,,,,72,-165,-118,21,208,170,167,125,208,-128,217,-122,68,-73,163,216,-69,76,-169,114,-78,-176,-76,-78,-72,270,90,270,360,180,180,270,180,360,180,180,,,,,,,,,,,785.181,785.181,,0,100,100,100,1,10,novel,,,,,,,,,,,,,,,,,,,,,,,,,,,,,,,,,,,,,,,,,,,,,,,,,
,,17,10,${e://Field/PROLIFIC_PID,F,18,2023-11-03_19h45.10.168,MouseEye_CC,2023.2.2,Win32,74.97938067,1.28,,,1920,1080,64.048,3.68,"49.29, 39.92, 54.86, 45.2, 53.78, 73.31, 58.94",627.38,11.17961999,41.14100155,27.83653633,Passed,137.8223552,,,,,,,,,,,,,,,,,,,,,training,7,6,180,right,s,,,,,785.1813,785.5811,35.84,-8,-5,1,0,0,0.3996,fixationPoint,785.5811,785.6744,785.6744,786.7948,35.84,10240,616.96,s,1,1.0976,,786.7948,786.9956,,,,,,,,95,-24,-224,208,18,18,16,65,164,-32,67,-209,74,-75,224,125,-224,215,-175,31,-162,-160,-168,-221,-28,270,270,270,180,360,270,180,360,360,270,360,,,,,,,,,,,786.9956,786.9957,,0,101,101,101,1,5,repeated,,,,,,,,,,,,,,,,,,,,,,,,,,,,,,,,,,,,,,,,,,,,,,,,,
,,17,10,${e://Field/PROLIFIC_PID,F,18,2023-11-03_19h45.10.168,MouseEye_CC,2023.2.2,Win32,74.97938067,1.28,,,1920,1080,64.048,3.68,"49.29, 39.92, 54.86, 45.2, 53.78, 73.31, 58.94",627.38,11.17961999,41.14100155,27.83653633,Passed,137.8223552,,,,,,,,,,,,,,,,,,,,,training,7,7,0,left,a,,,,,786.996,787.2616,35.84,-4,-1,1,0,0,0.2655,fixationPoint,787.2616,787.355,787.3551,788.6355,35.84,10240,616.96,a,1,1.257,,788.6355,788.8355,,,,,,,,71,-215,-119,212,215,26,175,170,167,-74,22,-65,70,-213,175,72,-21,125,-224,223,-27,-121,-21,-218,-174,270,360,90,360,270,90,270,360,360,90,90,,,,,,,,,,,788.8355,788.8356,,0,102,102,102,1,6,repeated,,,,,,,,,,,,,,,,,,,,,,,,,,,,,,,,,,,,,,,,,,,,,,,,,
,,17,10,${e://Field/PROLIFIC_PID,F,18,2023-11-03_19h45.10.168,MouseEye_CC,2023.2.2,Win32,74.97938067,1.28,,,1920,1080,64.048,3.68,"49.29, 39.92, 54.86, 45.2, 53.78, 73.31, 58.94",627.38,11.17961999,41.14100155,27.83653633,Passed,137.8223552,,,,,,,,,,,,,,,,,,,,,training,7,8,180,right,s,,,,,788.8359,789.3023,35.84,-3,0,1,0,0,0.4663,fixationPoint,789.3024,789.3957,789.3957,791.663,35.84,10240,616.96,s,1,2.248,,791.6631,791.8631,,,,,,,,76,20,-128,128,113,112,163,18,16,-173,65,-28,28,-68,124,-218,-174,-221,-28,-160,-168,172,-224,174,-19,270,180,90,270,180,270,360,360,90,270,360,,,,,,,,,,,791.8632,791.8633,,0,103,103,103,1,11,novel,,,,,,,,,,,,,,,,,,,,,,,,,,,,,,,,,,,,,,,,,,,,,,,,,
,,17,10,${e://Field/PROLIFIC_PID,F,18,2023-11-03_19h45.10.168,MouseEye_CC,2023.2.2,Win32,74.97938067,1.28,,,1920,1080,64.048,3.68,"49.29, 39.92, 54.86, 45.2, 53.78, 73.31, 58.94",627.38,11.17961999,41.14100155,27.83653633,Passed,137.8223552,,,,,,,,,,,,,,,,,,,,,training,7,9,180,right,s,,,,,791.8635,792.3315,35.84,-3,2,1,0,0,0.4677,fixationPoint,792.3315,792.4234,792.4234,794.4908,35.84,10240,616.96,s,1,2.0524,,794.4909,794.6908,,,,,,,,27,69,114,-68,124,-167,28,-173,65,-121,-21,-165,-118,-24,-224,168,-163,124,-118,116,-163,21,208,128,113,270,90,360,360,270,180,270,360,90,270,270,,,,,,,,,,,794.6909,794.691,,0,104,104,104,1,1,repeated,,,,,,,,,,,,,,,,,,,,,,,,,,,,,,,,,,,,,,,,,,,,,,,,,
,,17,10,${e://Field/PROLIFIC_PID,F,18,2023-11-03_19h45.10.168,MouseEye_CC,2023.2.2,Win32,74.97938067,1.28,,,1920,1080,64.048,3.68,"49.29, 39.92, 54.86, 45.2, 53.78, 73.31, 58.94",627.38,11.17961999,41.14100155,27.83653633,Passed,137.8223552,,,,,,,,,,,,,,,,,,,,,training,7,10,0,left,a,,,,,794.6912,794.9842,35.84,-3,2,1,0,0,0.293,fixationPoint,794.9843,795.0776,795.0776,797.2918,35.84,10240,616.96,a,1,2.1904,,797.2918,797.4918,,,,,,,,13,-115,168,212,167,21,208,112,72,-30,-164,-214,-220,-160,-168,114,-78,161,-119,174,-19,-122,68,-73,163,90,180,180,270,180,90,90,360,360,360,360,,,,,,,,,,,797.4918,797.4919,,0,105,105,105,1,15,novel,,,,,,,,,,,,,,,,,,,,,,,,,,,,,,,,,,,,,,,,,,,,,,,,,
,,17,10,${e://Field/PROLIFIC_PID,F,18,2023-11-03_19h45.10.168,MouseEye_CC,2023.2.2,Win32,74.97938067,1.28,,,1920,1080,64.048,3.68,"49.29, 39.92, 54.86, 45.2, 53.78, 73.31, 58.94",627.38,11.17961999,41.14100155,27.83653633,Passed,137.8223552,,,,,,,,,,,,,,,,,,,,,training,7,11,180,right,s,,,,,797.4922,797.7452,35.84,-3,2,1,0,0,0.2529,fixationPoint,797.7452,797.8396,797.8396,798.7723,35.84,10240,616.96,s,1,0.9172,,798.7723,798.9722,,,,,,,,6,21,208,-215,16,-115,168,-120,28,-218,-174,-160,-168,-173,-216,168,-163,119,-23,125,-224,170,167,69,114,180,180,90,180,360,360,270,180,360,90,180,,,,,,,,,,,798.9722,798.9723,,0,106,106,106,1,13,novel,,,,,,,,,,,,,,,,,,,,,,,,,,,,,,,,,,,,,,,,,,,,,,,,,
,,17,10,${e://Field/PROLIFIC_PID,F,18,2023-11-03_19h45.10.168,MouseEye_CC,2023.2.2,Win32,74.97938067,1.28,,,1920,1080,64.048,3.68,"49.29, 39.92, 54.86, 45.2, 53.78, 73.31, 58.94",627.38,11.17961999,41.14100155,27.83653633,Passed,137.8223552,,,,,,,,,,,,,,,,,,,,,training,7,12,0,left,a,,,,,798.9725,799.239,35.84,-3,2,1,0,0,0.2664,fixationPoint,799.239,799.3324,799.3324,803.6952,35.84,10240,616.96,a,1,4.3483,,803.6953,803.8939,,,,,,,,30,217,124,-68,124,-128,217,-163,208,-218,-174,-221,-28,-214,-220,119,-23,161,-119,161,-64,174,22,174,75,90,270,180,180,180,360,90,270,360,180,360,,,,,,,,,,,803.894,803.894,,0,107,107,107,1,14,novel,,,,,,,,,,,,,,,,,,,,,,,,,,,,,,,,,,,,,,,,,,,,,,,,,
,,17,10,${e://Field/PROLIFIC_PID,F,18,2023-11-03_19h45.10.168,MouseEye_CC,2023.2.2,Win32,74.97938067,1.28,,,1920,1080,64.048,3.68,"49.29, 39.92, 54.86, 45.2, 53.78, 73.31, 58.94",627.38,11.17961999,41.14100155,27.83653633,Passed,137.8223552,,,,,,,,,,,,,,,,,,,,,training,7,13,0,left,a,,,,,803.8943,804.134,35.84,-3,2,1,0,0,0.2396,fixationPoint,804.1341,804.2275,804.2275,806.5615,35.84,10240,616.96,a,1,2.3121,,806.5615,806.7616,,,,,,,,87,76,-169,18,16,21,208,65,164,-68,124,-27,122,-29,175,-117,-218,-216,-65,-221,-28,116,-163,26,-208,90,180,270,360,360,90,180,270,180,90,360,,,,,,,,,,,806.7616,806.7617,,0,108,108,108,1,12,novel,,,,,,,,,,,,,,,,,,,,,,,,,,,,,,,,,,,,,,,,,,,,,,,,,
,,17,10,${e://Field/PROLIFIC_PID,F,18,2023-11-03_19h45.10.168,MouseEye_CC,2023.2.2,Win32,74.97938067,1.28,,,1920,1080,64.048,3.68,"49.29, 39.92, 54.86, 45.2, 53.78, 73.31, 58.94",627.38,11.17961999,41.14100155,27.83653633,Passed,137.8223552,,,,,,,,,,,,,,,,,,,,,training,7,14,180,right,s,,,,,806.7619,807.1218,35.84,-3,2,1,0,0,0.3597,fixationPoint,807.1218,807.2152,807.2152,811.3775,35.84,10240,616.96,s,1,4.148,,811.3775,811.5766,,,,,,,,29,164,120,-122,68,-215,16,-163,208,-176,-76,-165,-118,-78,-72,174,-19,78,-128,161,-119,112,163,174,22,90,360,180,360,90,270,180,90,180,360,90,,,,,,,,,,,811.5766,811.5767,,0,109,109,109,1,2,repeated,,,,,,,,,,,,,,,,,,,,,,,,,,,,,,,,,,,,,,,,,,,,,,,,,
,,17,10,${e://Field/PROLIFIC_PID,F,18,2023-11-03_19h45.10.168,MouseEye_CC,2023.2.2,Win32,74.97938067,1.28,,,1920,1080,64.048,3.68,"49.29, 39.92, 54.86, 45.2, 53.78, 73.31, 58.94",627.38,11.17961999,41.14100155,27.83653633,Passed,137.8223552,,,,,,,,,,,,,,,,,,,,,training,7,15,0,left,a,,,,,811.5769,811.9367,35.84,-8,3,1,0,0,0.3597,fixationPoint,811.9368,812.0318,812.0318,814.3249,35.84,10240,616.96,a,1,2.2812,,814.3249,814.5242,,,,,,,,33,-122,68,212,67,68,68,112,72,-214,-220,-64,-171,-160,-168,216,-69,124,-118,216,-216,-17,217,-167,28,270,180,270,360,270,90,90,180,270,360,270,,,,,,,,,,,814.5243,814.5245,,0,110,110,110,1,16,novel,,,,,,,,,,,,,,,,,,,,,,,,,,,,,,,,,,,,,,,,,,,,,,,,,
,,17,10,${e://Field/PROLIFIC_PID,F,18,2023-11-03_19h45.10.168,MouseEye_CC,2023.2.2,Win32,74.97938067,1.28,,,1920,1080,64.048,3.68,"49.29, 39.92, 54.86, 45.2, 53.78, 73.31, 58.94",627.38,11.17961999,41.14100155,27.83653633,Passed,137.8223552,,,,,,,,,,,,,,,,,,,,,training,7,16,180,right,s,,,,,814.5246,814.7643,35.84,-11,2,1,0,0,0.2396,fixationPoint,814.7644,814.8577,814.8577,817.1785,35.84,10240,616.96,s,1,2.298,,817.1786,817.3785,,,,,,,,68,114,-78,212,215,18,16,174,75,-163,208,-28,28,-75,224,-221,-28,-176,-19,-116,-116,172,-224,80,-219,270,360,90,360,360,270,180,360,270,180,180,,,,,,,,,,,817.3786,818.1389,space,0,111,111,111,1,8,repeated,0.7453,,,,,,,,,,,,,,,,,,,,,,,,,,,,,,,,,,,,,,,,,,,,,,,,
,,17,10,${e://Field/PROLIFIC_PID,F,18,2023-11-03_19h45.10.168,MouseEye_CC,2023.2.2,Win32,74.97938067,1.28,,,1920,1080,64.048,3.68,"49.29, 39.92, 54.86, 45.2, 53.78, 73.31, 58.94",627.38,11.17961999,41.14100155,27.83653633,Passed,137.8223552,,,,,,,,,,,,,,,,,,,,,training,8,1,180,right,s,,,,,818.1393,818.7792,35.84,-12,-1,1,0,0,0.6397,fixationPoint,818.7792,818.8738,818.8738,820.5397,35.84,10240,616.96,s,1,1.6512,,820.5397,820.7398,,,,,,,,87,76,-169,217,124,68,68,208,18,-215,16,-17,217,-28,28,-78,-72,-24,-224,-25,-115,72,-21,119,-23,180,90,360,180,270,360,270,360,270,360,360,,,,,,,,,,,820.7398,820.7405,,0,112,112,112,1,12,novel,,,,,,,,,,,,,,,,,,,,,,,,,,,,,,,,,,,,,,,,,,,,,,,,,
,,17,10,${e://Field/PROLIFIC_PID,F,18,2023-11-03_19h45.10.168,MouseEye_CC,2023.2.2,Win32,74.97938067,1.28,,,1920,1080,64.048,3.68,"49.29, 39.92, 54.86, 45.2, 53.78, 73.31, 58.94",627.38,11.17961999,41.14100155,27.83653633,Passed,137.8223552,,,,,,,,,,,,,,,,,,,,,training,8,2,180,right,s,,,,,820.7408,821.0732,35.84,-9,1,1,0,0,0.3323,fixationPoint,821.0732,821.1665,821.1665,822.5553,35.84,10240,616.96,s,1,1.3742,,822.5553,822.7538,,,,,,,,71,-215,-119,212,215,26,175,170,167,-74,22,-65,70,-213,175,72,-21,125,-224,223,-27,-121,-21,-218,-174,180,360,90,360,90,360,270,90,180,270,360,,,,,,,,,,,822.7538,822.7539,,0,113,113,113,1,6,repeated,,,,,,,,,,,,,,,,,,,,,,,,,,,,,,,,,,,,,,,,,,,,,,,,,
,,17,10,${e://Field/PROLIFIC_PID,F,18,2023-11-03_19h45.10.168,MouseEye_CC,2023.2.2,Win32,74.97938067,1.28,,,1920,1080,64.048,3.68,"49.29, 39.92, 54.86, 45.2, 53.78, 73.31, 58.94",627.38,11.17961999,41.14100155,27.83653633,Passed,137.8223552,,,,,,,,,,,,,,,,,,,,,training,8,3,0,left,a,,,,,822.7541,824.0876,35.84,-11,-3,1,0,0,1.3333,fixationPoint,824.0876,824.1819,824.1819,827.1952,35.84,10240,616.96,a,1,2.9909,,827.1952,827.3953,,,,,,,,29,164,120,-122,68,-215,16,-163,208,-176,-76,-165,-118,-78,-72,174,-19,78,-128,161,-119,112,163,174,22,360,180,360,180,270,270,360,90,360,270,270,,,,,,,,,,,827.3953,827.3954,,0,114,114,114,1,2,repeated,,,,,,,,,,,,,,,,,,,,,,,,,,,,,,,,,,,,,,,,,,,,,,,,,
,,17,10,${e://Field/PROLIFIC_PID,F,18,2023-11-03_19h45.10.168,MouseEye_CC,2023.2.2,Win32,74.97938067,1.28,,,1920,1080,64.048,3.68,"49.29, 39.92, 54.86, 45.2, 53.78, 73.31, 58.94",627.38,11.17961999,41.14100155,27.83653633,Passed,137.8223552,,,,,,,,,,,,,,,,,,,,,training,8,4,0,left,a,,,,,827.3957,827.7288,35.84,-13,-4,1,0,0,0.333,fixationPoint,827.7288,827.8222,827.8222,830.3564,35.84,10240,616.96,a,1,2.5173,,830.3564,830.5571,,,,,,,,27,69,114,-68,124,-167,28,-173,65,-121,-21,-165,-118,-24,-224,168,-163,124,-118,116,-163,21,208,128,113,90,90,180,180,270,180,270,360,180,270,360,,,,,,,,,,,830.5571,830.5572,,0,115,115,115,1,1,repeated,,,,,,,,,,,,,,,,,,,,,,,,,,,,,,,,,,,,,,,,,,,,,,,,,
,,17,10,${e://Field/PROLIFIC_PID,F,18,2023-11-03_19h45.10.168,MouseEye_CC,2023.2.2,Win32,74.97938067,1.28,,,1920,1080,64.048,3.68,"49.29, 39.92, 54.86, 45.2, 53.78, 73.31, 58.94",627.38,11.17961999,41.14100155,27.83653633,Passed,137.8223552,,,,,,,,,,,,,,,,,,,,,training,8,5,0,left,a,,,,,830.5575,830.9165,35.84,7,-6,1,0,0,0.3589,fixationPoint,830.9165,831.0099,831.0099,831.758,35.84,10240,616.96,a,1,0.7336,,831.7581,831.957,,,,,,,,25,-27,122,128,113,112,72,65,164,-78,-218,-221,-28,-160,-168,27,-75,174,-19,26,-208,-211,215,-213,175,360,90,270,360,360,90,360,270,90,360,90,,,,,,,,,,,831.957,831.9571,,0,116,116,116,1,3,repeated,,,,,,,,,,,,,,,,,,,,,,,,,,,,,,,,,,,,,,,,,,,,,,,,,
,,17,10,${e://Field/PROLIFIC_PID,F,18,2023-11-03_19h45.10.168,MouseEye_CC,2023.2.2,Win32,74.97938067,1.28,,,1920,1080,64.048,3.68,"49.29, 39.92, 54.86, 45.2, 53.78, 73.31, 58.94",627.38,11.17961999,41.14100155,27.83653633,Passed,137.8223552,,,,,,,,,,,,,,,,,,,,,training,8,6,180,right,s,,,,,831.9574,832.3036,35.84,7,-6,1,0,0,0.3462,fixationPoint,832.3036,832.397,832.3971,833.0372,35.84,10240,616.96,s,1,0.6232,,833.0372,833.2373,,,,,,,,14,-73,163,125,208,69,114,112,163,-122,-165,-78,-218,-117,-218,20,-128,216,-69,114,-78,-128,217,-209,74,90,270,180,270,90,180,360,270,180,180,180,,,,,,,,,,,833.2374,833.2375,,0,117,117,117,1,4,repeated,,,,,,,,,,,,,,,,,,,,,,,,,,,,,,,,,,,,,,,,,,,,,,,,,
,,17,10,${e://Field/PROLIFIC_PID,F,18,2023-11-03_19h45.10.168,MouseEye_CC,2023.2.2,Win32,74.97938067,1.28,,,1920,1080,64.048,3.68,"49.29, 39.92, 54.86, 45.2, 53.78, 73.31, 58.94",627.38,11.17961999,41.14100155,27.83653633,Passed,137.8223552,,,,,,,,,,,,,,,,,,,,,training,8,7,180,right,s,,,,,833.2378,833.6108,35.84,7,-6,1,0,0,0.3728,fixationPoint,833.6108,833.7053,833.7054,835.158,35.84,10240,616.96,s,1,1.4356,,835.1581,835.358,,,,,,,,88,116,-163,170,167,68,68,128,24,-32,67,-119,124,-164,117,-117,-218,-216,-65,-121,-21,80,-219,214,-112,180,270,180,270,270,180,180,90,360,360,90,,,,,,,,,,,835.3582,835.3582,,0,118,118,118,1,7,repeated,,,,,,,,,,,,,,,,,,,,,,,,,,,,,,,,,,,,,,,,,,,,,,,,,
,,17,10,${e://Field/PROLIFIC_PID,F,18,2023-11-03_19h45.10.168,MouseEye_CC,2023.2.2,Win32,74.97938067,1.28,,,1920,1080,64.048,3.68,"49.29, 39.92, 54.86, 45.2, 53.78, 73.31, 58.94",627.38,11.17961999,41.14100155,27.83653633,Passed,137.8223552,,,,,,,,,,,,,,,,,,,,,training,8,8,180,right,s,,,,,835.3584,835.6782,35.84,6,-7,1,0,0,0.3196,fixationPoint,835.6782,835.7715,835.7716,837.1988,35.84,10240,616.96,s,1,1.4008,,837.1988,837.3988,,,,,,,,76,20,-128,18,16,164,120,128,113,-65,70,-167,28,-173,65,-30,-164,-77,-31,-214,-220,26,-208,114,-78,180,360,360,360,360,360,270,360,180,270,90,,,,,,,,,,,837.3988,837.3989,,0,119,119,119,1,11,novel,,,,,,,,,,,,,,,,,,,,,,,,,,,,,,,,,,,,,,,,,,,,,,,,,
