InstrStartPage.started,InstrStartPage.stopped,participant,designid,prolificid,Gender,Age,date,expName,psychopyVersion,OS,frameRate,ratio_monitor2CRT,VirtualChinrest.started,VirtualChinrest.stopped,xRes,yRes,viewingdistance_cm,pixeldensity_px2mm,BallPos,squarePos,mm2degree,px2degree,CRT_px2degree,PassVirtualChinrest,foveaRadius_inPixel,InstrRedo.started,InstrRedo.stopped,VirtualChinrest_Redo.started,VirtualChinrest_Redo.stopped,Instruction1.started,Instruction1.stopped,keyPractice.started,keyPractice.stopped,key_keyprac.keys,key_keyprac.corr,key_keyprac.rt,key_keyprac.duration,keyPracFeedback.started,keyPracFeedback.stopped,keyPracLoop.thisRepN,keyPracLoop.thisTrialN,keyPracLoop.thisN,keyPracLoop.thisIndex,keyPracLoop.ran,phase,block,trial,targOrientdeg,targOrient,corrAnswer,Instruction2.started,Instruction2.stopped,Instruction3.started,Instruction3.stopped,fixation.started,fixation.stopped,fixationSize,mouseintial.x,mouseintial.y,mouseintial.leftButton,mouseintial.midButton,mouseintial.rightButton,mouseintial.time,mouseintial.clicked_name,greenFixation.started,greenFixation.stopped,trial.started,trial.stopped,letterSize,apertureSize,searchsize,key_respMain.keys,key_respMain.corr,key_respMain.rt,key_respMain.duration,trialFeedback.started,trialFeedback.stopped,trialsPractice.thisRepN,trialsPractice.thisTrialN,trialsPractice.thisN,trialsPractice.thisIndex,trialsPractice.ran,targetQuad,Tcondition,targcell,tlocx,tlocy,d1x,d1y,d2x,d2y,d3x,d3y,d4x,d4y,d5x,d5y,d6x,d6y,d7x,d7y,d8x,d8y,d9x,d9y,d10x,d10y,d11x,d11y,d1Orient,d2Orient,d3Orient,d4Orient,d5Orient,d6Orient,d7Orient,d8Orient,d9Orient,d10Orient,d11Orient,CheckInstr.started,CheckInstr.stopped,key_checkInstr.keys,key_checkInstr.corr,key_checkInstr.rt,key_checkInstr.duration,CheckInstr_FB.started,CheckInstr_FB.stopped,Instruction_MainExp.started,Instruction_MainExp.stopped,TakeABreak.started,TakeABreak.stopped,key_respBreak.keys,trials.thisRepN,trials.thisTrialN,trials.thisN,trials.thisIndex,trials.ran,configurationNumber,CCCondition,key_respBreak.rt,key_respBreak.duration,displayTestingPhase.started,displayTestingPhase.stopped,key_respTesting.keys,key_respTesting.corr,key_respTesting.rt,key_respTesting.duration,TakeABreak2.started,TakeABreak2.stopped,key_RespBreak.keys,Testingtrials.thisRepN,Testingtrials.thisTrialN,Testingtrials.thisN,Testingtrials.thisIndex,Testingtrials.ran,key_RespBreak.rt,key_RespBreak.duration,RecogQuestion.started,RecogQuestion.stopped,key_AnswerQues.keys,key_AnswerQues.rt,key_AnswerQues.duration,Disclose.started,Disclose.stopped,InstrRT.started,InstrRT.stopped,fixation_RT.started,fixation_RT.stopped,mouseInitial.x,mouseInitial.y,mouseInitial.leftButton,mouseInitial.midButton,mouseInitial.rightButton,mouseInitial.time,mouseInitial.clicked_name,displayRT.started,displayRT.stopped,key_respRT.keys,key_respRT.corr,key_respRT.rt,key_respRT.duration,RTtrials.thisRepN,RTtrials.thisTrialN,RTtrials.thisN,RTtrials.thisIndex,RTtrials.ran,EndOfExperiment.started,EndOfExperiment.stopped
0.0003,9.1858,18,12,${e://Field/PROLIFIC_PID,F,18,2023-11-03_19h58.55.992,MouseEye_CC,2023.2.2,Win32,29.99940001,1,,,,,,,,,,,,,,,,,,,,,,,,,,,,,,,,,,,,,,,,,,,,,,,,,,,,,,,,,,,,,,,,,,,,,,,,,,,,,,,,,,,,,,,,,,,,,,,,,,,,,,,,,,,,,,,,,,,,,,,,,,,,,,,,,,,,,,,,,,,,,,,,,,,,,,,,,,,,,,,,,,,,,,,,,,,,,,,,,
,,18,12,${e://Field/PROLIFIC_PID,F,18,2023-11-03_19h58.55.992,MouseEye_CC,2023.2.2,Win32,29.99940001,1.30238825,9.1867,47.5036,1536,864,48.19,4.31,"252.84, 255.5, 263.61, 259.55, 225.77, 217.78, 212.73",740.93,8.411595789,36.25397785,27.83653633,Passed,121.4508258,,,,,,,,,,,,,,,,,,,,,,,,,,,,,,,,,,,,,,,,,,,,,,,,,,,,,,,,,,,,,,,,,,,,,,,,,,,,,,,,,,,,,,,,,,,,,,,,,,,,,,,,,,,,,,,,,,,,,,,,,,,,,,,,,,,,,,,,,,,,,,,,,,,,,,,,,,,,,,,,,,,,
,,18,12,${e://Field/PROLIFIC_PID,F,18,2023-11-03_19h58.55.992,MouseEye_CC,2023.2.2,Win32,29.99940001,1.30238825,,,1536,864,48.19,4.31,"252.84, 255.5, 263.61, 259.55, 225.77, 217.78, 212.73",740.93,8.411595789,36.25397785,27.83653633,Passed,121.4508258,47.5049,47.5107,,,,,,,,,,,,,,,,,,,,,,,,,,,,,,,,,,,,,,,,,,,,,,,,,,,,,,,,,,,,,,,,,,,,,,,,,,,,,,,,,,,,,,,,,,,,,,,,,,,,,,,,,,,,,,,,,,,,,,,,,,,,,,,,,,,,,,,,,,,,,,,,,,,,,,,,,,,,,,,,,,
,,18,12,${e://Field/PROLIFIC_PID,F,18,2023-11-03_19h58.55.992,MouseEye_CC,2023.2.2,Win32,29.99940001,1.05251769,,,1536,864,47.017,3.57,"252.84, 255.5, 263.61, 259.55, 225.77, 217.78, 212.73",740.93,8.206847877,29.29844692,27.83653633,Passed,98.14979719,,,47.5114,103.529,,,,,,,,,,,,,,,,,,,,,,,,,,,,,,,,,,,,,,,,,,,,,,,,,,,,,,,,,,,,,,,,,,,,,,,,,,,,,,,,,,,,,,,,,,,,,,,,,,,,,,,,,,,,,,,,,,,,,,,,,,,,,,,,,,,,,,,,,,,,,,,,,,,,,,,,,,,,,,,,
,,18,12,${e://Field/PROLIFIC_PID,F,18,2023-11-03_19h58.55.992,MouseEye_CC,2023.2.2,Win32,29.99940001,1.05251769,,,1536,864,47.017,3.57,"252.84, 255.5, 263.61, 259.55, 225.77, 217.78, 212.73",740.93,8.206847877,29.29844692,27.83653633,Passed,98.14979719,,,,,103.5302,118.0943,,,,,,,,,,,,,,,,,,,,,,,,,,,,,,,,,,,,,,,,,,,,,,,,,,,,,,,,,,,,,,,,,,,,,,,,,,,,,,,,,,,,,,,,,,,,,,,,,,,,,,,,,,,,,,,,,,,,,,,,,,,,,,,,,,,,,,,,,,,,,,,,,,,,,,,,,,,,,,
,,18,12,${e://Field/PROLIFIC_PID,F,18,2023-11-03_19h58.55.992,MouseEye_CC,2023.2.2,Win32,29.99940001,1.05251769,,,1536,864,47.017,3.57,"252.84, 255.5, 263.61, 259.55, 225.77, 217.78, 212.73",740.93,8.206847877,29.29844692,27.83653633,Passed,98.14979719,,,,,,,118.1899,119.2592,s,0,0.5283,,119.26,119.7588,0,0,0,0,1,practice,1,1,0,left,a,,,,,,,,,,,,,,,,,,,,,,,,,,,,,,,,,,,,,,,,,,,,,,,,,,,,,,,,,,,,,,,,,,,,,,,,,,,,,,,,,,,,,,,,,,,,,,,,,,,,,,,,,,,,,,,,,,,,,,,,,,,,,,,,,,,,,,,,,,,
,,18,12,${e://Field/PROLIFIC_PID,F,18,2023-11-03_19h58.55.992,MouseEye_CC,2023.2.2,Win32,29.99940001,1.05251769,,,1536,864,47.017,3.57,"252.84, 255.5, 263.61, 259.55, 225.77, 217.78, 212.73",740.93,8.206847877,29.29844692,27.83653633,Passed,98.14979719,,,,,,,119.761,120.8579,a,1,0.5555,,120.8581,121.3577,0,1,1,1,1,practice,1,2,0,left,a,,,,,,,,,,,,,,,,,,,,,,,,,,,,,,,,,,,,,,,,,,,,,,,,,,,,,,,,,,,,,,,,,,,,,,,,,,,,,,,,,,,,,,,,,,,,,,,,,,,,,,,,,,,,,,,,,,,,,,,,,,,,,,,,,,,,,,,,,,,
,,18,12,${e://Field/PROLIFIC_PID,F,18,2023-11-03_19h58.55.992,MouseEye_CC,2023.2.2,Win32,29.99940001,1.05251769,,,1536,864,47.017,3.57,"252.84, 255.5, 263.61, 259.55, 225.77, 217.78, 212.73",740.93,8.206847877,29.29844692,27.83653633,Passed,98.14979719,,,,,,,121.3594,122.3909,a,1,0.4676,,122.3912,122.8907,0,2,2,2,1,practice,1,3,0,left,a,,,,,,,,,,,,,,,,,,,,,,,,,,,,,,,,,,,,,,,,,,,,,,,,,,,,,,,,,,,,,,,,,,,,,,,,,,,,,,,,,,,,,,,,,,,,,,,,,,,,,,,,,,,,,,,,,,,,,,,,,,,,,,,,,,,,,,,,,,,
,,18,12,${e://Field/PROLIFIC_PID,F,18,2023-11-03_19h58.55.992,MouseEye_CC,2023.2.2,Win32,29.99940001,1.05251769,,,1536,864,47.017,3.57,"252.84, 255.5, 263.61, 259.55, 225.77, 217.78, 212.73",740.93,8.206847877,29.29844692,27.83653633,Passed,98.14979719,,,,,,,122.8919,124.1238,s,1,0.6804,,124.124,124.624,0,3,3,3,1,practice,1,4,180,right,s,,,,,,,,,,,,,,,,,,,,,,,,,,,,,,,,,,,,,,,,,,,,,,,,,,,,,,,,,,,,,,,,,,,,,,,,,,,,,,,,,,,,,,,,,,,,,,,,,,,,,,,,,,,,,,,,,,,,,,,,,,,,,,,,,,,,,,,,,,,
,,18,12,${e://Field/PROLIFIC_PID,F,18,2023-11-03_19h58.55.992,MouseEye_CC,2023.2.2,Win32,29.99940001,1.05251769,,,1536,864,47.017,3.57,"252.84, 255.5, 263.61, 259.55, 225.77, 217.78, 212.73",740.93,8.206847877,29.29844692,27.83653633,Passed,98.14979719,,,,,,,124.6253,125.857,s,1,0.6675,,125.8571,126.3571,0,4,4,4,1,practice,1,5,180,right,s,,,,,,,,,,,,,,,,,,,,,,,,,,,,,,,,,,,,,,,,,,,,,,,,,,,,,,,,,,,,,,,,,,,,,,,,,,,,,,,,,,,,,,,,,,,,,,,,,,,,,,,,,,,,,,,,,,,,,,,,,,,,,,,,,,,,,,,,,,,
,,18,12,${e://Field/PROLIFIC_PID,F,18,2023-11-03_19h58.55.992,MouseEye_CC,2023.2.2,Win32,29.99940001,1.05251769,,,1536,864,47.017,3.57,"252.84, 255.5, 263.61, 259.55, 225.77, 217.78, 212.73",740.93,8.206847877,29.29844692,27.83653633,Passed,98.14979719,,,,,,,126.3583,127.39,a,1,0.4897,,127.3901,127.8898,0,5,5,5,1,practice,1,6,0,left,a,,,,,,,,,,,,,,,,,,,,,,,,,,,,,,,,,,,,,,,,,,,,,,,,,,,,,,,,,,,,,,,,,,,,,,,,,,,,,,,,,,,,,,,,,,,,,,,,,,,,,,,,,,,,,,,,,,,,,,,,,,,,,,,,,,,,,,,,,,,
,,18,12,${e://Field/PROLIFIC_PID,F,18,2023-11-03_19h58.55.992,MouseEye_CC,2023.2.2,Win32,29.99940001,1.05251769,,,1536,864,47.017,3.57,"252.84, 255.5, 263.61, 259.55, 225.77, 217.78, 212.73",740.93,8.206847877,29.29844692,27.83653633,Passed,98.14979719,,,,,,,127.8908,129.0232,s,1,0.5769,,129.0234,129.5231,0,6,6,6,1,practice,1,7,180,right,s,,,,,,,,,,,,,,,,,,,,,,,,,,,,,,,,,,,,,,,,,,,,,,,,,,,,,,,,,,,,,,,,,,,,,,,,,,,,,,,,,,,,,,,,,,,,,,,,,,,,,,,,,,,,,,,,,,,,,,,,,,,,,,,,,,,,,,,,,,,
,,18,12,${e://Field/PROLIFIC_PID,F,18,2023-11-03_19h58.55.992,MouseEye_CC,2023.2.2,Win32,29.99940001,1.05251769,,,1536,864,47.017,3.57,"252.84, 255.5, 263.61, 259.55, 225.77, 217.78, 212.73",740.93,8.206847877,29.29844692,27.83653633,Passed,98.14979719,,,,,,,,,,,,,,,,,,,,,,,,,,129.5259,132.39,,,,,,,,,,,,,,,,,,,,,,,,,,,,,,,,,,,,,,,,,,,,,,,,,,,,,,,,,,,,,,,,,,,,,,,,,,,,,,,,,,,,,,,,,,,,,,,,,,,,,,,,,,,,,,,,,,,,,,,,,,,,,,,,,,,,,,,,,
,,18,12,${e://Field/PROLIFIC_PID,F,18,2023-11-03_19h58.55.992,MouseEye_CC,2023.2.2,Win32,29.99940001,1.05251769,,,1536,864,47.017,3.57,"252.84, 255.5, 263.61, 259.55, 225.77, 217.78, 212.73",740.93,8.206847877,29.29844692,27.83653633,Passed,98.14979719,,,,,,,,,,,,,,,,,,,,,,,,,,,,132.3907,135.756,,,,,,,,,,,,,,,,,,,,,,,,,,,,,,,,,,,,,,,,,,,,,,,,,,,,,,,,,,,,,,,,,,,,,,,,,,,,,,,,,,,,,,,,,,,,,,,,,,,,,,,,,,,,,,,,,,,,,,,,,,,,,,,,,,,,,,,
,,18,12,${e://Field/PROLIFIC_PID,F,18,2023-11-03_19h58.55.992,MouseEye_CC,2023.2.2,Win32,29.99940001,1.05251769,,,1536,864,47.017,3.57,"252.84, 255.5, 263.61, 259.55, 225.77, 217.78, 212.73",740.93,8.206847877,29.29844692,27.83653633,Passed,98.14979719,,,,,,,,,,,,,,,,,,,,practice,0,1,0,left,a,,,,,135.8501,137.1906,29.47049532,5.600036621,3.199981689,1,0,0,1.3396,fixationPoint,137.1912,137.2881,137.2886,139.7234,29.47049532,8420.141521,507.3135267,s,0,2.4119,,139.7238,143.7223,0,0,0,0,1,4,sparse,90,217,-164,68,123,222,26,214,216,-218,159,-120,223,-110,82,-115,-130,-224,-120,-68,-219,79,-175,19,-128,90,270,360,90,270,270,180,90,90,90,270,,,,,,,,,,,,,,,,,,,,,,,,,,,,,,,,,,,,,,,,,,,,,,,,,,,,,,,,,,,,,,,,,,,,,
,,18,12,${e://Field/PROLIFIC_PID,F,18,2023-11-03_19h58.55.992,MouseEye_CC,2023.2.2,Win32,29.99940001,1.05251769,,,1536,864,47.017,3.57,"252.84, 255.5, 263.61, 259.55, 225.77, 217.78, 212.73",740.93,8.206847877,29.29844692,27.83653633,Passed,98.14979719,,,,,,,,,,,,,,,,,,,,practice,0,2,0,left,a,,,,,143.754,144.2206,29.47049532,4,7.199981689,1,0,0,0.4662,fixationPoint,144.2209,144.3206,144.3207,146.8872,29.47049532,8420.141521,507.3135267,a,1,2.5283,,146.8874,147.0869,0,1,1,1,1,1,rich,39,169,66,-126,125,-169,169,-130,19,-169,-116,-125,-167,-224,-216,218,-129,171,-218,18,-208,166,26,17,170,180,90,360,270,90,90,90,270,180,180,270,,,,,,,,,,,,,,,,,,,,,,,,,,,,,,,,,,,,,,,,,,,,,,,,,,,,,,,,,,,,,,,,,,,,,
,,18,12,${e://Field/PROLIFIC_PID,F,18,2023-11-03_19h58.55.992,MouseEye_CC,2023.2.2,Win32,29.99940001,1.05251769,,,1536,864,47.017,3.57,"252.84, 255.5, 263.61, 259.55, 225.77, 217.78, 212.73",740.93,8.206847877,29.29844692,27.83653633,Passed,98.14979719,,,,,,,,,,,,,,,,,,,,practice,0,3,0,left,a,,,,,147.0884,148.32,29.47049532,3.200012207,7.199981689,1,0,0,1.2312,fixationPoint,148.3201,148.4195,148.4195,151.0199,29.47049532,8420.141521,507.3135267,a,1,2.5727,,151.0202,151.2196,0,2,2,2,1,2,sparse,22,-162,126,222,26,17,170,126,172,-25,-117,-175,-206,-224,-216,116,-19,130,-174,217,-164,-218,159,-21,162,90,90,180,360,360,270,360,360,360,360,180,,,,,,,,,,,,,,,,,,,,,,,,,,,,,,,,,,,,,,,,,,,,,,,,,,,,,,,,,,,,,,,,,,,,,
,,18,12,${e://Field/PROLIFIC_PID,F,18,2023-11-03_19h58.55.992,MouseEye_CC,2023.2.2,Win32,29.99940001,1.05251769,,,1536,864,47.017,3.57,"252.84, 255.5, 263.61, 259.55, 225.77, 217.78, 212.73",740.93,8.206847877,29.29844692,27.83653633,Passed,98.14979719,,,,,,,,,,,,,,,,,,,,practice,0,4,180,right,s,,,,,151.2214,152.4195,29.47049532,3.200012207,7.199981689,1,0,0,1.1977,fixationPoint,152.4197,152.5188,152.5189,153.9869,29.47049532,8420.141521,507.3135267,s,1,1.4377,,153.9873,154.1859,0,3,3,3,1,4,sparse,76,19,-128,159,121,214,216,219,165,-218,159,-162,126,-219,119,-169,-116,-111,-31,-175,-206,18,-208,81,-114,90,270,180,180,270,180,360,360,360,270,360,,,,,,,,,,,,,,,,,,,,,,,,,,,,,,,,,,,,,,,,,,,,,,,,,,,,,,,,,,,,,,,,,,,,,
,,18,12,${e://Field/PROLIFIC_PID,F,18,2023-11-03_19h58.55.992,MouseEye_CC,2023.2.2,Win32,29.99940001,1.05251769,,,1536,864,47.017,3.57,"252.84, 255.5, 263.61, 259.55, 225.77, 217.78, 212.73",740.93,8.206847877,29.29844692,27.83653633,Passed,98.14979719,,,,,,,,,,,,,,,,,,,,practice,0,5,180,right,s,,,,,154.1875,154.9527,29.47049532,3.200012207,7.199981689,1,0,0,0.7648,fixationPoint,154.953,155.0523,155.0524,155.786,29.47049532,8420.141521,507.3135267,s,1,0.6975,,155.7863,155.9853,0,4,4,4,1,3,sparse,85,-19,-173,219,165,68,123,214,216,-160,68,-64,120,-226,34,162,-21,224,-216,167,-163,-167,-74,-224,-216,360,360,360,90,180,270,90,360,270,270,360,,,,,,,,,,,,,,,,,,,,,,,,,,,,,,,,,,,,,,,,,,,,,,,,,,,,,,,,,,,,,,,,,,,,,
,,18,12,${e://Field/PROLIFIC_PID,F,18,2023-11-03_19h58.55.992,MouseEye_CC,2023.2.2,Win32,29.99940001,1.05251769,,,1536,864,47.017,3.57,"252.84, 255.5, 263.61, 259.55, 225.77, 217.78, 212.73",740.93,8.206847877,29.29844692,27.83653633,Passed,98.14979719,,,,,,,,,,,,,,,,,,,,practice,0,6,180,right,s,,,,,155.9866,156.6189,29.47049532,3.200012207,7.199981689,1,0,0,0.6313,fixationPoint,156.6191,156.7193,156.7195,161.7852,29.47049532,8420.141521,507.3135267,a,0,5.0281,,161.7854,165.7838,0,5,5,5,1,3,sparse,95,-21,-224,126,172,219,165,166,26,-166,207,-223,206,-219,119,169,-75,18,-208,224,-216,-72,-121,-115,-130,180,180,360,180,360,180,270,180,90,180,360,,,,,,,,,,,,,,,,,,,,,,,,,,,,,,,,,,,,,,,,,,,,,,,,,,,,,,,,,,,,,,,,,,,,,
,,18,12,${e://Field/PROLIFIC_PID,F,18,2023-11-03_19h58.55.992,MouseEye_CC,2023.2.2,Win32,29.99940001,1.05251769,,,1536,864,47.017,3.57,"252.84, 255.5, 263.61, 259.55, 225.77, 217.78, 212.73",740.93,8.206847877,29.29844692,27.83653633,Passed,98.14979719,,,,,,,,,,,,,,,,,,,,practice,0,7,0,left,a,,,,,165.816,166.284,29.47049532,-2.399963379,4,1,0,0,0.4677,fixationPoint,166.2844,166.3834,166.3836,168.8173,29.47049532,8420.141521,507.3135267,a,1,2.405,,168.8175,169.017,0,6,6,6,1,1,rich,7,62,223,-166,207,-226,34,-162,126,-169,-116,-168,-160,-161,-27,15,-162,162,-21,79,-175,219,165,219,129,180,180,360,180,270,360,180,360,270,180,360,,,,,,,,,,,,,,,,,,,,,,,,,,,,,,,,,,,,,,,,,,,,,,,,,,,,,,,,,,,,,,,,,,,,,
,,18,12,${e://Field/PROLIFIC_PID,F,18,2023-11-03_19h58.55.992,MouseEye_CC,2023.2.2,Win32,29.99940001,1.05251769,,,1536,864,47.017,3.57,"252.84, 255.5, 263.61, 259.55, 225.77, 217.78, 212.73",740.93,8.206847877,29.29844692,27.83653633,Passed,98.14979719,,,,,,,,,,,,,,,,,,,,practice,0,8,180,right,s,,,,,169.0187,169.7833,29.47049532,-2.399963379,4,1,0,0,0.764,fixationPoint,169.7837,169.8834,169.8836,171.4176,29.47049532,8420.141521,507.3135267,s,1,1.522,,171.4178,171.6164,0,7,7,7,1,2,sparse,24,-64,120,18,215,126,172,33,121,-206,-170,-64,-162,-218,-78,130,-174,211,-74,168,-130,-164,32,-21,162,90,180,270,360,180,90,180,180,180,360,270,,,,,,,,,,,,,,,,,,,,,,,,,,,,,,,,,,,,,,,,,,,,,,,,,,,,,,,,,,,,,,,,,,,,,
,,18,12,${e://Field/PROLIFIC_PID,F,18,2023-11-03_19h58.55.992,MouseEye_CC,2023.2.2,Win32,29.99940001,1.05251769,,,1536,864,47.017,3.57,"252.84, 255.5, 263.61, 259.55, 225.77, 217.78, 212.73",740.93,8.206847877,29.29844692,27.83653633,Passed,98.14979719,,,,,,,,,,,,,,,,,,,,practice,0,9,180,right,s,,,,,171.6181,172.3164,29.47049532,-2.399963379,4,1,0,0,0.6979,fixationPoint,172.3167,172.4163,172.4164,173.8164,29.47049532,8420.141521,507.3135267,s,1,1.3748,,173.8167,174.0161,0,8,8,8,1,3,sparse,85,-19,-173,127,30,62,223,217,67,-110,82,-21,162,-80,218,167,-163,126,-79,130,-174,-125,-167,-68,-219,360,360,360,180,360,360,180,270,90,360,180,,,,,,,,,,,,,,,,,,,,,,,,,,,,,,,,,,,,,,,,,,,,,,,,,,,,,,,,,,,,,,,,,,,,,
,,18,12,${e://Field/PROLIFIC_PID,F,18,2023-11-03_19h58.55.992,MouseEye_CC,2023.2.2,Win32,29.99940001,1.05251769,,,1536,864,47.017,3.57,"252.84, 255.5, 263.61, 259.55, 225.77, 217.78, 212.73",740.93,8.206847877,29.29844692,27.83653633,Passed,98.14979719,,,,,,,,,,,,,,,,,,,,practice,0,10,180,right,s,,,,,174.0174,175.0158,29.47049532,-2.399963379,4,1,0,0,0.998,fixationPoint,175.0161,175.1152,175.1153,177.4162,29.47049532,8420.141521,507.3135267,s,1,2.2713,,177.4164,177.6153,0,9,9,9,1,1,rich,9,160,209,-166,207,-226,34,-120,223,-224,-120,-118,-217,-218,-78,112,-209,126,-113,169,-75,178,160,110,129,180,90,90,270,360,270,360,180,360,180,360,,,,,,,,,,,,,,,,,,,,,,,,,,,,,,,,,,,,,,,,,,,,,,,,,,,,,,,,,,,,,,,,,,,,,
,,18,12,${e://Field/PROLIFIC_PID,F,18,2023-11-03_19h58.55.992,MouseEye_CC,2023.2.2,Win32,29.99940001,1.05251769,,,1536,864,47.017,3.57,"252.84, 255.5, 263.61, 259.55, 225.77, 217.78, 212.73",740.93,8.206847877,29.29844692,27.83653633,Passed,98.14979719,,,,,,,,,,,,,,,,,,,,practice,0,11,180,right,s,,,,,177.617,179.283,29.47049532,1.600036621,-9.600006104,1,0,0,1.665,fixationPoint,179.2834,179.3815,179.3816,180.8154,29.47049532,8420.141521,507.3135267,s,1,1.4193,,180.8156,181.0152,0,10,10,10,1,4,sparse,80,218,-129,62,223,159,121,110,129,-218,159,-223,206,-75,173,-169,-116,-118,-217,-125,-167,217,-164,169,-75,360,270,360,180,360,180,180,270,360,180,90,,,,,,,,,,,,,,,,,,,,,,,,,,,,,,,,,,,,,,,,,,,,,,,,,,,,,,,,,,,,,,,,,,,,,
,,18,12,${e://Field/PROLIFIC_PID,F,18,2023-11-03_19h58.55.992,MouseEye_CC,2023.2.2,Win32,29.99940001,1.05251769,,,1536,864,47.017,3.57,"252.84, 255.5, 263.61, 259.55, 225.77, 217.78, 212.73",740.93,8.206847877,29.29844692,27.83653633,Passed,98.14979719,,,,,,,,,,,,,,,,,,,,practice,0,12,0,left,a,,,,,181.0166,181.9816,29.47049532,-6.399963379,11.19998169,1,0,0,0.9646,fixationPoint,181.9818,182.0807,182.0808,184.4479,29.47049532,8420.141521,507.3135267,a,1,2.3398,,184.4482,184.6474,0,11,11,11,1,3,sparse,75,-25,-117,110,129,125,63,214,216,-164,32,-27,117,-126,125,171,-218,126,-113,167,-163,-21,-224,-212,-21,270,180,180,360,180,270,360,270,360,180,270,,,,,,,,,,,,,,,,,,,,,,,,,,,,,,,,,,,,,,,,,,,,,,,,,,,,,,,,,,,,,,,,,,,,,
,,18,12,${e://Field/PROLIFIC_PID,F,18,2023-11-03_19h58.55.992,MouseEye_CC,2023.2.2,Win32,29.99940001,1.05251769,,,1536,864,47.017,3.57,"252.84, 255.5, 263.61, 259.55, 225.77, 217.78, 212.73",740.93,8.206847877,29.29844692,27.83653633,Passed,98.14979719,,,,,,,,,,,,,,,,,,,,,,,,,,,,,,,,,,,,,,,,,,,,,,,,,,,,,,,,,,,,,,,,,,,,,,,,,,,,,,,,,,,,,,,,,,,,,,,,184.6508,189.0507,a,1,4.3717,,,,,,,,,,,,,,,,,,,,,,,,,,,,,,,,,,,,,,,,,,,,,,,,,,,,,,,,,,,,,,,,
,,18,12,${e://Field/PROLIFIC_PID,F,18,2023-11-03_19h58.55.992,MouseEye_CC,2023.2.2,Win32,29.99940001,1.05251769,,,1536,864,47.017,3.57,"252.84, 255.5, 263.61, 259.55, 225.77, 217.78, 212.73",740.93,8.206847877,29.29844692,27.83653633,Passed,98.14979719,,,,,,,,,,,,,,,,,,,,,,,,,,,,,,,,,,,,,,,,,,,,,,,,,,,,,,,,,,,,,,,,,,,,,,,,,,,,,,,,,,,,,,,,,,,,,,,,,,,,,,189.0514,189.9142,,,,,,,,,,,,,,,,,,,,,,,,,,,,,,,,,,,,,,,,,,,,,,,,,,,,,,,,,,,,,
,,18,12,${e://Field/PROLIFIC_PID,F,18,2023-11-03_19h58.55.992,MouseEye_CC,2023.2.2,Win32,29.99940001,1.05251769,,,1536,864,47.017,3.57,"252.84, 255.5, 263.61, 259.55, 225.77, 217.78, 212.73",740.93,8.206847877,29.29844692,27.83653633,Passed,98.14979719,,,,,,,,,,,,,,,,,,,,,,,,,,,,,,,,,,,,,,,,,,,,,,,,,,,,,,,,,,,,,,,,,,,,,,,,,,,,,,,,,,,,,,,,,,,,,,,,,,,,,,,,189.9149,191.7808,,,,,,,,,,,,,,,,,,,,,,,,,,,,,,,,,,,,,,,,,,,,,,,,,,,,,,,,,,,
,,18,12,${e://Field/PROLIFIC_PID,F,18,2023-11-03_19h58.55.992,MouseEye_CC,2023.2.2,Win32,29.99940001,1.05251769,,,1536,864,47.017,3.57,"252.84, 255.5, 263.61, 259.55, 225.77, 217.78, 212.73",740.93,8.206847877,29.29844692,27.83653633,Passed,98.14979719,,,,,,,,,,,,,,,,,,,,training,1,1,0,left,a,,,,,192.1525,193.1462,29.47049532,-4,8,1,0,0,0.9933,fixationPoint,193.1465,193.2461,193.2462,194.78,29.47049532,8420.141521,507.3135267,s,0,1.5127,,194.7803,198.7789,,,,,,,,18,113,168,-73,160,-116,66,-124,163,-120,-32,-114,-214,-32,-121,24,-166,169,-117,211,-128,164,29,17,212,270,360,270,270,180,360,90,270,270,180,90,,,,,,,,,,,198.7817,198.8178,,0,0,0,0,1,1,repeated,,,,,,,,,,,,,,,,,,,,,,,,,,,,,,,,,,,,,,,,,,,,,,,,,
,,18,12,${e://Field/PROLIFIC_PID,F,18,2023-11-03_19h58.55.992,MouseEye_CC,2023.2.2,Win32,29.99940001,1.05251769,,,1536,864,47.017,3.57,"252.84, 255.5, 263.61, 259.55, 225.77, 217.78, 212.73",740.93,8.206847877,29.29844692,27.83653633,Passed,98.14979719,,,,,,,,,,,,,,,,,,,,training,1,2,180,right,s,,,,,198.8192,199.1791,29.47049532,-4,8,1,0,0,0.3595,fixationPoint,199.1793,199.278,199.2782,201.3787,29.47049532,8420.141521,507.3135267,s,1,2.0742,,201.3789,201.5781,,,,,,,,83,-123,-161,220,121,79,165,164,29,-124,118,-160,124,-171,68,69,-213,214,-28,128,-25,-161,-171,-64,-164,360,360,90,90,270,360,90,180,360,270,180,,,,,,,,,,,201.5783,201.5788,,0,1,1,1,1,9,novel,,,,,,,,,,,,,,,,,,,,,,,,,,,,,,,,,,,,,,,,,,,,,,,,,
,,18,12,${e://Field/PROLIFIC_PID,F,18,2023-11-03_19h58.55.992,MouseEye_CC,2023.2.2,Win32,29.99940001,1.05251769,,,1536,864,47.017,3.57,"252.84, 255.5, 263.61, 259.55, 225.77, 217.78, 212.73",740.93,8.206847877,29.29844692,27.83653633,Passed,98.14979719,,,,,,,,,,,,,,,,,,,,training,1,3,180,right,s,,,,,201.5803,202.6115,29.47049532,-6.399963379,12,1,0,0,1.0307,fixationPoint,202.6117,202.7113,202.7113,203.5118,29.47049532,8420.141521,507.3135267,s,1,0.7646,,203.512,203.7112,,,,,,,,33,-116,66,164,29,172,166,172,76,-123,-161,-163,-69,-21,-172,120,-120,162,-65,210,-74,-166,163,-75,222,270,360,180,180,90,360,180,180,360,270,270,,,,,,,,,,,203.7114,203.7122,,0,2,2,2,1,3,repeated,,,,,,,,,,,,,,,,,,,,,,,,,,,,,,,,,,,,,,,,,,,,,,,,,
,,18,12,${e://Field/PROLIFIC_PID,F,18,2023-11-03_19h58.55.992,MouseEye_CC,2023.2.2,Win32,29.99940001,1.05251769,,,1536,864,47.017,3.57,"252.84, 255.5, 263.61, 259.55, 225.77, 217.78, 212.73",740.93,8.206847877,29.29844692,27.83653633,Passed,98.14979719,,,,,,,,,,,,,,,,,,,,training,1,4,0,left,a,,,,,203.7144,204.6447,29.47049532,-4,13.6000061,1,0,0,0.9297,fixationPoint,204.6449,204.7442,204.7444,206.5111,29.47049532,8420.141521,507.3135267,s,0,1.7387,,206.5112,210.5101,,,,,,,,69,162,-65,218,74,172,76,121,68,-160,124,-124,118,-209,25,-28,-70,-120,-32,-123,-161,114,-68,67,-164,180,180,270,270,90,90,90,180,90,360,360,,,,,,,,,,,210.5101,210.5422,,0,3,3,3,1,8,repeated,,,,,,,,,,,,,,,,,,,,,,,,,,,,,,,,,,,,,,,,,,,,,,,,,
,,18,12,${e://Field/PROLIFIC_PID,F,18,2023-11-03_19h58.55.992,MouseEye_CC,2023.2.2,Win32,29.99940001,1.05251769,,,1536,864,47.017,3.57,"252.84, 255.5, 263.61, 259.55, 225.77, 217.78, 212.73",740.93,8.206847877,29.29844692,27.83653633,Passed,98.14979719,,,,,,,,,,,,,,,,,,,,training,1,5,180,right,s,,,,,210.5436,210.8772,29.47049532,-4,6.399993896,1,0,0,0.333,fixationPoint,210.8774,210.9764,210.9764,212.2433,29.47049532,8420.141521,507.3135267,s,1,1.2396,,212.2434,212.4439,,,,,,,,63,-124,-64,118,16,113,168,121,68,-160,124,-209,25,-32,76,64,-80,116,-167,174,-216,-224,-25,-79,-222,180,360,180,90,180,90,360,270,360,90,90,,,,,,,,,,,212.4442,212.4451,,0,4,4,4,1,10,novel,,,,,,,,,,,,,,,,,,,,,,,,,,,,,,,,,,,,,,,,,,,,,,,,,
,,18,12,${e://Field/PROLIFIC_PID,F,18,2023-11-03_19h58.55.992,MouseEye_CC,2023.2.2,Win32,29.99940001,1.05251769,,,1536,864,47.017,3.57,"252.84, 255.5, 263.61, 259.55, 225.77, 217.78, 212.73",740.93,8.206847877,29.29844692,27.83653633,Passed,98.14979719,,,,,,,,,,,,,,,,,,,,training,1,6,0,left,a,,,,,212.4461,213.1438,29.47049532,-4,5.600006104,1,0,0,0.6973,fixationPoint,213.1439,213.243,213.2431,214.6096,29.47049532,8420.141521,507.3135267,a,1,1.355,,214.61,214.8103,,,,,,,,38,121,68,-75,222,-28,32,-171,68,-215,-162,-215,-64,-216,-128,21,-72,24,-166,210,-74,79,165,172,166,90,90,180,360,270,90,270,270,270,360,360,,,,,,,,,,,214.8106,214.8114,,0,5,5,5,1,2,repeated,,,,,,,,,,,,,,,,,,,,,,,,,,,,,,,,,,,,,,,,,,,,,,,,,
,,18,12,${e://Field/PROLIFIC_PID,F,18,2023-11-03_19h58.55.992,MouseEye_CC,2023.2.2,Win32,29.99940001,1.05251769,,,1536,864,47.017,3.57,"252.84, 255.5, 263.61, 259.55, 225.77, 217.78, 212.73",740.93,8.206847877,29.29844692,27.83653633,Passed,98.14979719,,,,,,,,,,,,,,,,,,,,training,1,7,0,left,a,,,,,214.8175,215.7431,29.47049532,-1.599975586,9.600006104,1,0,0,0.9252,fixationPoint,215.7435,215.8421,215.8421,217.5426,29.47049532,8420.141521,507.3135267,a,1,1.6773,,217.5429,217.7424,,,,,,,,30,220,121,-18,114,-169,16,-20,165,-123,-161,-114,-214,-215,-64,162,-65,210,-74,26,-209,172,76,172,166,90,270,270,270,90,180,90,360,360,180,360,,,,,,,,,,,217.7425,217.7435,,0,6,6,6,1,14,novel,,,,,,,,,,,,,,,,,,,,,,,,,,,,,,,,,,,,,,,,,,,,,,,,,
,,18,12,${e://Field/PROLIFIC_PID,F,18,2023-11-03_19h58.55.992,MouseEye_CC,2023.2.2,Win32,29.99940001,1.05251769,,,1536,864,47.017,3.57,"252.84, 255.5, 263.61, 259.55, 225.77, 217.78, 212.73",740.93,8.206847877,29.29844692,27.83653633,Passed,98.14979719,,,,,,,,,,,,,,,,,,,,training,1,8,180,right,s,,,,,217.7447,218.5756,29.47049532,0.799987793,0.799987793,1,0,0,0.8305,fixationPoint,218.5758,218.6763,218.6765,221.4421,29.47049532,8420.141521,507.3135267,s,1,2.7416,,221.4422,221.6417,,,,,,,,32,-171,68,27,67,79,165,220,121,-69,-24,-114,-214,-64,-164,162,-65,174,-216,21,-72,-170,218,-216,126,180,180,90,270,180,270,90,360,360,90,180,,,,,,,,,,,221.6419,221.6433,,0,7,7,7,1,16,novel,,,,,,,,,,,,,,,,,,,,,,,,,,,,,,,,,,,,,,,,,,,,,,,,,
,,18,12,${e://Field/PROLIFIC_PID,F,18,2023-11-03_19h58.55.992,MouseEye_CC,2023.2.2,Win32,29.99940001,1.05251769,,,1536,864,47.017,3.57,"252.84, 255.5, 263.61, 259.55, 225.77, 217.78, 212.73",740.93,8.206847877,29.29844692,27.83653633,Passed,98.14979719,,,,,,,,,,,,,,,,,,,,training,1,9,180,right,s,,,,,221.6447,222.4085,29.47049532,-0.799987793,5.600006104,1,0,0,0.7631,fixationPoint,222.4087,222.5084,222.5086,223.8415,29.47049532,8420.141521,507.3135267,s,1,1.3088,,223.8417,224.0413,,,,,,,,68,114,-68,22,114,118,16,127,120,-28,32,-170,218,-209,25,-215,-162,-123,-161,-163,-69,210,-74,171,-24,270,360,180,180,270,180,90,90,90,270,360,,,,,,,,,,,224.0414,224.0422,,0,8,8,8,1,11,novel,,,,,,,,,,,,,,,,,,,,,,,,,,,,,,,,,,,,,,,,,,,,,,,,,
,,18,12,${e://Field/PROLIFIC_PID,F,18,2023-11-03_19h58.55.992,MouseEye_CC,2023.2.2,Win32,29.99940001,1.05251769,,,1536,864,47.017,3.57,"252.84, 255.5, 263.61, 259.55, 225.77, 217.78, 212.73",740.93,8.206847877,29.29844692,27.83653633,Passed,98.14979719,,,,,,,,,,,,,,,,,,,,training,1,10,0,left,a,,,,,224.0433,225.1079,29.47049532,-0.799987793,4,1,0,0,1.0643,fixationPoint,225.108,225.2083,225.2084,226.841,29.47049532,8420.141521,507.3135267,a,1,1.6048,,226.8411,227.0408,,,,,,,,49,164,29,-18,114,-166,163,-32,76,-32,-121,-64,-164,-70,-73,224,-223,26,-20,78,-16,114,208,220,121,180,90,270,90,270,360,90,270,180,270,270,,,,,,,,,,,227.0409,227.0414,,0,9,9,9,1,13,novel,,,,,,,,,,,,,,,,,,,,,,,,,,,,,,,,,,,,,,,,,,,,,,,,,
,,18,12,${e://Field/PROLIFIC_PID,F,18,2023-11-03_19h58.55.992,MouseEye_CC,2023.2.2,Win32,29.99940001,1.05251769,,,1536,864,47.017,3.57,"252.84, 255.5, 263.61, 259.55, 225.77, 217.78, 212.73",740.93,8.206847877,29.29844692,27.83653633,Passed,98.14979719,,,,,,,,,,,,,,,,,,,,training,1,11,0,left,a,,,,,227.0427,227.8074,29.47049532,-0.799987793,4,1,0,0,0.7644,fixationPoint,227.8076,227.9076,227.9078,230.5075,29.47049532,8420.141521,507.3135267,a,1,2.5827,,230.5078,230.7069,,,,,,,,42,-169,16,72,114,113,168,27,67,-215,-64,-216,-220,-215,-162,214,-28,114,-68,116,-167,-116,66,-124,118,270,270,180,360,360,90,270,360,360,180,180,,,,,,,,,,,230.707,230.7078,,0,10,10,10,1,4,repeated,,,,,,,,,,,,,,,,,,,,,,,,,,,,,,,,,,,,,,,,,,,,,,,,,
,,18,12,${e://Field/PROLIFIC_PID,F,18,2023-11-03_19h58.55.992,MouseEye_CC,2023.2.2,Win32,29.99940001,1.05251769,,,1536,864,47.017,3.57,"252.84, 255.5, 263.61, 259.55, 225.77, 217.78, 212.73",740.93,8.206847877,29.29844692,27.83653633,Passed,98.14979719,,,,,,,,,,,,,,,,,,,,training,1,12,180,right,s,,,,,230.7097,231.4068,29.47049532,-0.799987793,5.600006104,1,0,0,0.6967,fixationPoint,231.4069,231.5066,231.5069,232.8403,29.47049532,8420.141521,507.3135267,s,1,1.2966,,232.8404,233.0398,,,,,,,,71,-216,-128,164,29,22,28,16,173,-73,160,-169,16,-160,124,214,-28,174,-216,219,-168,-161,-171,-69,-24,270,180,180,360,90,180,90,270,270,270,270,,,,,,,,,,,233.04,233.0414,,0,11,11,11,1,6,repeated,,,,,,,,,,,,,,,,,,,,,,,,,,,,,,,,,,,,,,,,,,,,,,,,,
,,18,12,${e://Field/PROLIFIC_PID,F,18,2023-11-03_19h58.55.992,MouseEye_CC,2023.2.2,Win32,29.99940001,1.05251769,,,1536,864,47.017,3.57,"252.84, 255.5, 263.61, 259.55, 225.77, 217.78, 212.73",740.93,8.206847877,29.29844692,27.83653633,Passed,98.14979719,,,,,,,,,,,,,,,,,,,,training,1,13,0,left,a,,,,,233.0425,233.8066,29.47049532,-0.799987793,4.799987793,1,0,0,0.7638,fixationPoint,233.8067,233.9067,233.9068,235.14,29.47049532,8420.141521,507.3135267,a,1,1.1995,,235.1402,235.3397,,,,,,,,52,-163,-20,27,67,215,164,164,29,-160,124,-212,70,-171,68,169,-117,80,-115,116,-167,-163,-69,-216,-128,180,270,90,360,180,270,360,360,90,270,360,,,,,,,,,,,235.3399,235.3409,,0,12,12,12,1,5,repeated,,,,,,,,,,,,,,,,,,,,,,,,,,,,,,,,,,,,,,,,,,,,,,,,,
,,18,12,${e://Field/PROLIFIC_PID,F,18,2023-11-03_19h58.55.992,MouseEye_CC,2023.2.2,Win32,29.99940001,1.05251769,,,1536,864,47.017,3.57,"252.84, 255.5, 263.61, 259.55, 225.77, 217.78, 212.73",740.93,8.206847877,29.29844692,27.83653633,Passed,98.14979719,,,,,,,,,,,,,,,,,,,,training,1,14,180,right,s,,,,,235.342,236.1064,29.47049532,-0.799987793,4.799987793,1,0,0,0.7641,fixationPoint,236.1066,236.206,236.2062,238.3727,29.47049532,8420.141521,507.3135267,s,1,2.1381,,238.3729,238.5726,,,,,,,,78,120,-120,72,114,79,165,172,76,-68,21,-212,70,-116,214,-69,-24,-168,-124,-163,-69,174,-216,69,-213,270,360,270,360,180,360,180,180,360,360,270,,,,,,,,,,,238.5728,238.5734,,0,13,13,13,1,7,repeated,,,,,,,,,,,,,,,,,,,,,,,,,,,,,,,,,,,,,,,,,,,,,,,,,
,,18,12,${e://Field/PROLIFIC_PID,F,18,2023-11-03_19h58.55.992,MouseEye_CC,2023.2.2,Win32,29.99940001,1.05251769,,,1536,864,47.017,3.57,"252.84, 255.5, 263.61, 259.55, 225.77, 217.78, 212.73",740.93,8.206847877,29.29844692,27.83653633,Passed,98.14979719,,,,,,,,,,,,,,,,,,,,training,1,15,180,right,s,,,,,238.5749,239.9723,29.47049532,-0.799987793,4.799987793,1,0,0,1.397,fixationPoint,239.9724,240.0723,240.0724,241.806,29.47049532,8420.141521,507.3135267,s,1,1.6998,,241.8063,242.0052,,,,,,,,23,-124,118,22,28,17,212,118,16,-163,-20,-163,-69,-29,-210,69,-213,26,-209,67,-164,-80,79,-32,76,180,270,180,90,90,360,90,90,270,270,90,,,,,,,,,,,242.0053,242.006,,0,14,14,14,1,15,novel,,,,,,,,,,,,,,,,,,,,,,,,,,,,,,,,,,,,,,,,,,,,,,,,,
,,18,12,${e://Field/PROLIFIC_PID,F,18,2023-11-03_19h58.55.992,MouseEye_CC,2023.2.2,Win32,29.99940001,1.05251769,,,1536,864,47.017,3.57,"252.84, 255.5, 263.61, 259.55, 225.77, 217.78, 212.73",740.93,8.206847877,29.29844692,27.83653633,Passed,98.14979719,,,,,,,,,,,,,,,,,,,,training,1,16,0,left,a,,,,,242.0074,242.7726,29.47049532,-0.799987793,4.799987793,1,0,0,0.7648,fixationPoint,242.7729,242.8717,242.8719,245.1716,29.47049532,8420.141521,507.3135267,a,1,2.2861,,245.172,245.3711,,,,,,,,59,171,-24,121,68,216,16,172,76,-18,114,-169,16,-73,160,-69,-24,-175,-223,-161,-171,210,-74,116,-167,360,270,360,180,270,180,90,90,180,180,360,,,,,,,,,,,245.3712,295.1308,space,0,15,15,15,1,12,novel,49.7153,,,,,,,,,,,,,,,,,,,,,,,,,,,,,,,,,,,,,,,,,,,,,,,,
,,18,12,${e://Field/PROLIFIC_PID,F,18,2023-11-03_19h58.55.992,MouseEye_CC,2023.2.2,Win32,29.99940001,1.05251769,,,1536,864,47.017,3.57,"252.84, 255.5, 263.61, 259.55, 225.77, 217.78, 212.73",740.93,8.206847877,29.29844692,27.83653633,Passed,98.14979719,,,,,,,,,,,,,,,,,,,,training,2,1,0,left,a,,,,,295.1615,296.6968,29.47049532,0,5.600006104,1,0,0,1.5351,fixationPoint,296.6972,296.7965,296.7965,299.1299,29.47049532,8420.141521,507.3135267,a,1,2.297,,299.1301,299.3295,,,,,,,,83,-123,-161,72,114,22,114,22,28,-116,66,-171,68,-68,21,219,-168,224,-223,171,-24,-163,-69,-23,-24,180,270,270,270,270,270,360,270,90,180,360,,,,,,,,,,,299.3297,299.3352,,0,16,16,16,1,9,novel,,,,,,,,,,,,,,,,,,,,,,,,,,,,,,,,,,,,,,,,,,,,,,,,,
,,18,12,${e://Field/PROLIFIC_PID,F,18,2023-11-03_19h58.55.992,MouseEye_CC,2023.2.2,Win32,29.99940001,1.05251769,,,1536,864,47.017,3.57,"252.84, 255.5, 263.61, 259.55, 225.77, 217.78, 212.73",740.93,8.206847877,29.29844692,27.83653633,Passed,98.14979719,,,,,,,,,,,,,,,,,,,,training,2,2,0,left,a,,,,,299.3365,299.996,29.47049532,0.799987793,-5.600006104,1,0,0,0.6592,fixationPoint,299.9962,300.0961,300.0962,302.4291,29.47049532,8420.141521,507.3135267,a,1,2.3098,,302.4291,302.6299,,,,,,,,42,-169,16,72,114,113,168,27,67,-215,-64,-216,-220,-215,-162,214,-28,114,-68,116,-167,-116,66,-124,118,270,360,360,90,180,270,360,90,180,360,90,,,,,,,,,,,302.6301,302.6307,,0,17,17,17,1,4,repeated,,,,,,,,,,,,,,,,,,,,,,,,,,,,,,,,,,,,,,,,,,,,,,,,,
,,18,12,${e://Field/PROLIFIC_PID,F,18,2023-11-03_19h58.55.992,MouseEye_CC,2023.2.2,Win32,29.99940001,1.05251769,,,1536,864,47.017,3.57,"252.84, 255.5, 263.61, 259.55, 225.77, 217.78, 212.73",740.93,8.206847877,29.29844692,27.83653633,Passed,98.14979719,,,,,,,,,,,,,,,,,,,,training,2,3,0,left,a,,,,,302.6318,303.2621,29.47049532,-12,-3.200012207,1,0,0,0.6297,fixationPoint,303.2622,303.3624,303.3625,305.2303,29.47049532,8420.141521,507.3135267,a,1,1.832,,305.2304,305.4293,,,,,,,,71,-216,-128,164,29,22,28,16,173,-73,160,-169,16,-160,124,214,-28,174,-216,219,-168,-161,-171,-69,-24,270,360,90,360,180,90,360,360,180,360,180,,,,,,,,,,,305.4302,305.4309,,0,18,18,18,1,6,repeated,,,,,,,,,,,,,,,,,,,,,,,,,,,,,,,,,,,,,,,,,,,,,,,,,
,,18,12,${e://Field/PROLIFIC_PID,F,18,2023-11-03_19h58.55.992,MouseEye_CC,2023.2.2,Win32,29.99940001,1.05251769,,,1536,864,47.017,3.57,"252.84, 255.5, 263.61, 259.55, 225.77, 217.78, 212.73",740.93,8.206847877,29.29844692,27.83653633,Passed,98.14979719,,,,,,,,,,,,,,,,,,,,training,2,4,0,left,a,,,,,305.4327,305.995,29.47049532,-3.200012207,-0.800018311,1,0,0,0.5618,fixationPoint,305.9951,306.095,306.0951,307.3955,29.47049532,8420.141521,507.3135267,a,1,1.2795,,307.3957,307.5953,,,,,,,,23,-124,118,68,212,216,16,215,164,-121,-128,-70,-73,-163,-69,78,-16,26,-20,210,-74,-216,217,-28,32,180,90,270,360,270,360,180,90,270,360,360,,,,,,,,,,,307.5954,307.5963,,0,19,19,19,1,15,novel,,,,,,,,,,,,,,,,,,,,,,,,,,,,,,,,,,,,,,,,,,,,,,,,,
,,18,12,${e://Field/PROLIFIC_PID,F,18,2023-11-03_19h58.55.992,MouseEye_CC,2023.2.2,Win32,29.99940001,1.05251769,,,1536,864,47.017,3.57,"252.84, 255.5, 263.61, 259.55, 225.77, 217.78, 212.73",740.93,8.206847877,29.29844692,27.83653633,Passed,98.14979719,,,,,,,,,,,,,,,,,,,,training,2,5,180,right,s,,,,,307.5977,308.0283,29.47049532,3.200012207,-8,1,0,0,0.4303,fixationPoint,308.0285,308.1281,308.1282,310.0277,29.47049532,8420.141521,507.3135267,s,1,1.8796,,310.0279,310.2286,,,,,,,,63,-124,-64,210,221,65,80,218,74,-80,79,-212,70,-216,126,163,-175,26,-20,64,-80,-28,-70,-64,-164,360,180,360,360,360,180,90,90,270,180,270,,,,,,,,,,,310.2287,310.2303,,0,20,20,20,1,10,novel,,,,,,,,,,,,,,,,,,,,,,,,,,,,,,,,,,,,,,,,,,,,,,,,,
,,18,12,${e://Field/PROLIFIC_PID,F,18,2023-11-03_19h58.55.992,MouseEye_CC,2023.2.2,Win32,29.99940001,1.05251769,,,1536,864,47.017,3.57,"252.84, 255.5, 263.61, 259.55, 225.77, 217.78, 212.73",740.93,8.206847877,29.29844692,27.83653633,Passed,98.14979719,,,,,,,,,,,,,,,,,,,,training,2,6,0,left,a,,,,,310.2317,310.8609,29.47049532,-0.799987793,1.600006104,1,0,0,0.629,fixationPoint,310.861,310.9607,310.9609,312.0942,29.47049532,8420.141521,507.3135267,a,1,1.1213,,312.0943,312.2945,,,,,,,,68,114,-68,113,168,218,74,167,215,-116,66,-65,115,-124,118,-114,-214,-29,-210,-124,-64,171,-24,125,-215,270,360,90,360,90,90,180,270,180,270,360,,,,,,,,,,,312.2947,312.2953,,0,21,21,21,1,11,novel,,,,,,,,,,,,,,,,,,,,,,,,,,,,,,,,,,,,,,,,,,,,,,,,,
,,18,12,${e://Field/PROLIFIC_PID,F,18,2023-11-03_19h58.55.992,MouseEye_CC,2023.2.2,Win32,29.99940001,1.05251769,,,1536,864,47.017,3.57,"252.84, 255.5, 263.61, 259.55, 225.77, 217.78, 212.73",740.93,8.206847877,29.29844692,27.83653633,Passed,98.14979719,,,,,,,,,,,,,,,,,,,,training,2,7,180,right,s,,,,,312.2968,312.8607,29.47049532,-3.200012207,0,1,0,0,0.5634,fixationPoint,312.8609,312.9606,312.9607,313.7945,29.47049532,8420.141521,507.3135267,s,1,0.8002,,313.7948,313.9942,,,,,,,,78,120,-120,72,114,79,165,172,76,-68,21,-212,70,-116,214,-69,-24,-168,-124,-163,-69,174,-216,69,-213,180,360,90,90,90,360,270,360,360,360,90,,,,,,,,,,,313.9943,313.9951,,0,22,22,22,1,7,repeated,,,,,,,,,,,,,,,,,,,,,,,,,,,,,,,,,,,,,,,,,,,,,,,,,
,,18,12,${e://Field/PROLIFIC_PID,F,18,2023-11-03_19h58.55.992,MouseEye_CC,2023.2.2,Win32,29.99940001,1.05251769,,,1536,864,47.017,3.57,"252.84, 255.5, 263.61, 259.55, 225.77, 217.78, 212.73",740.93,8.206847877,29.29844692,27.83653633,Passed,98.14979719,,,,,,,,,,,,,,,,,,,,training,2,8,0,left,a,,,,,313.9962,314.3943,29.47049532,-2.399963379,1.600006104,1,0,0,0.3979,fixationPoint,314.3945,314.4936,314.4937,315.4269,29.47049532,8420.141521,507.3135267,a,1,0.9075,,315.427,315.6273,,,,,,,,38,121,68,-75,222,-28,32,-171,68,-215,-162,-215,-64,-216,-128,21,-72,24,-166,210,-74,79,165,172,166,360,90,90,360,180,180,270,360,360,270,360,,,,,,,,,,,315.6276,315.6288,,0,23,23,23,1,2,repeated,,,,,,,,,,,,,,,,,,,,,,,,,,,,,,,,,,,,,,,,,,,,,,,,,
,,18,12,${e://Field/PROLIFIC_PID,F,18,2023-11-03_19h58.55.992,MouseEye_CC,2023.2.2,Win32,29.99940001,1.05251769,,,1536,864,47.017,3.57,"252.84, 255.5, 263.61, 259.55, 225.77, 217.78, 212.73",740.93,8.206847877,29.29844692,27.83653633,Passed,98.14979719,,,,,,,,,,,,,,,,,,,,training,2,9,0,left,a,,,,,315.6307,316.2934,29.47049532,-7.200012207,16,1,0,0,0.2956,fixationPoint,316.2935,316.3934,316.3936,318.1937,29.47049532,8420.141521,507.3135267,a,1,1.7762,,318.1939,318.3933,,,,,,,,33,-116,66,164,29,172,166,172,76,-123,-161,-163,-69,-21,-172,120,-120,162,-65,210,-74,-166,163,-75,222,360,360,360,360,90,90,270,270,180,360,90,,,,,,,,,,,318.3935,318.3945,,0,24,24,24,1,3,repeated,,,,,,,,,,,,,,,,,,,,,,,,,,,,,,,,,,,,,,,,,,,,,,,,,
,,18,12,${e://Field/PROLIFIC_PID,F,18,2023-11-03_19h58.55.992,MouseEye_CC,2023.2.2,Win32,29.99940001,1.05251769,,,1536,864,47.017,3.57,"252.84, 255.5, 263.61, 259.55, 225.77, 217.78, 212.73",740.93,8.206847877,29.29844692,27.83653633,Passed,98.14979719,,,,,,,,,,,,,,,,,,,,training,2,10,180,right,s,,,,,318.3958,319.0267,29.47049532,1.600036621,2.399993896,1,0,0,0.6307,fixationPoint,319.0269,319.1262,319.1264,320.1264,29.47049532,8420.141521,507.3135267,s,1,0.9672,,320.1265,320.3263,,,,,,,,30,220,121,-211,161,-116,214,-209,25,-69,-24,-124,-64,-163,-69,171,-24,210,-74,125,-215,22,28,172,166,360,360,90,270,270,270,90,180,360,90,90,,,,,,,,,,,320.3264,320.3268,,0,25,25,25,1,14,novel,,,,,,,,,,,,,,,,,,,,,,,,,,,,,,,,,,,,,,,,,,,,,,,,,
,,18,12,${e://Field/PROLIFIC_PID,F,18,2023-11-03_19h58.55.992,MouseEye_CC,2023.2.2,Win32,29.99940001,1.05251769,,,1536,864,47.017,3.57,"252.84, 255.5, 263.61, 259.55, 225.77, 217.78, 212.73",740.93,8.206847877,29.29844692,27.83653633,Passed,98.14979719,,,,,,,,,,,,,,,,,,,,training,2,11,180,right,s,,,,,320.3286,320.4928,29.47049532,4,-1.600006104,1,0,0,0.1639,fixationPoint,320.493,320.5927,320.5928,322.3259,29.47049532,8420.141521,507.3135267,a,0,1.6986,,322.3261,326.3252,,,,,,,,52,-163,-20,27,67,215,164,164,29,-160,124,-212,70,-171,68,169,-117,80,-115,116,-167,-163,-69,-216,-128,180,90,90,180,90,270,270,180,360,360,360,,,,,,,,,,,326.3253,326.356,,0,26,26,26,1,5,repeated,,,,,,,,,,,,,,,,,,,,,,,,,,,,,,,,,,,,,,,,,,,,,,,,,
,,18,12,${e://Field/PROLIFIC_PID,F,18,2023-11-03_19h58.55.992,MouseEye_CC,2023.2.2,Win32,29.99940001,1.05251769,,,1536,864,47.017,3.57,"252.84, 255.5, 263.61, 259.55, 225.77, 217.78, 212.73",740.93,8.206847877,29.29844692,27.83653633,Passed,98.14979719,,,,,,,,,,,,,,,,,,,,training,2,12,180,right,s,,,,,326.3571,326.6919,29.47049532,4,-1.600006104,1,0,0,0.3344,fixationPoint,326.6919,326.7916,326.7917,327.6588,29.47049532,8420.141521,507.3135267,s,1,0.8517,,327.6591,327.8581,,,,,,,,59,171,-24,164,29,218,74,113,168,-212,70,-65,115,-124,163,-28,-70,-224,-25,-23,-24,67,-164,69,-213,180,270,360,270,90,180,360,360,270,180,90,,,,,,,,,,,327.8582,327.8587,,0,27,27,27,1,12,novel,,,,,,,,,,,,,,,,,,,,,,,,,,,,,,,,,,,,,,,,,,,,,,,,,
,,18,12,${e://Field/PROLIFIC_PID,F,18,2023-11-03_19h58.55.992,MouseEye_CC,2023.2.2,Win32,29.99940001,1.05251769,,,1536,864,47.017,3.57,"252.84, 255.5, 263.61, 259.55, 225.77, 217.78, 212.73",740.93,8.206847877,29.29844692,27.83653633,Passed,98.14979719,,,,,,,,,,,,,,,,,,,,training,2,13,180,right,s,,,,,327.8605,327.9916,29.47049532,4,-1.600006104,1,0,0,0.1308,fixationPoint,327.9918,328.0914,328.0915,330.4918,29.47049532,8420.141521,507.3135267,s,1,2.3632,,330.492,330.6913,,,,,,,,18,113,168,-73,160,-116,66,-124,163,-120,-32,-114,-214,-32,-121,24,-166,169,-117,211,-128,164,29,17,212,360,360,360,360,270,270,180,270,180,180,180,,,,,,,,,,,330.6915,330.6918,,0,28,28,28,1,1,repeated,,,,,,,,,,,,,,,,,,,,,,,,,,,,,,,,,,,,,,,,,,,,,,,,,
,,18,12,${e://Field/PROLIFIC_PID,F,18,2023-11-03_19h58.55.992,MouseEye_CC,2023.2.2,Win32,29.99940001,1.05251769,,,1536,864,47.017,3.57,"252.84, 255.5, 263.61, 259.55, 225.77, 217.78, 212.73",740.93,8.206847877,29.29844692,27.83653633,Passed,98.14979719,,,,,,,,,,,,,,,,,,,,training,2,14,180,right,s,,,,,330.6928,330.7244,29.47049532,4,-1.600006104,1,0,0,0.0313,fixationPoint,330.7246,330.8243,330.8244,331.6925,29.47049532,8420.141521,507.3135267,s,1,0.848,,331.6927,331.891,,,,,,,,69,162,-65,218,74,172,76,121,68,-160,124,-124,118,-209,25,-28,-70,-120,-32,-123,-161,114,-68,67,-164,180,360,90,90,270,180,90,270,360,90,270,,,,,,,,,,,331.8911,331.8915,,0,29,29,29,1,8,repeated,,,,,,,,,,,,,,,,,,,,,,,,,,,,,,,,,,,,,,,,,,,,,,,,,
,,18,12,${e://Field/PROLIFIC_PID,F,18,2023-11-03_19h58.55.992,MouseEye_CC,2023.2.2,Win32,29.99940001,1.05251769,,,1536,864,47.017,3.57,"252.84, 255.5, 263.61, 259.55, 225.77, 217.78, 212.73",740.93,8.206847877,29.29844692,27.83653633,Passed,98.14979719,,,,,,,,,,,,,,,,,,,,training,2,15,180,right,s,,,,,331.8928,331.9576,29.47049532,4,-1.600006104,1,0,0,0.0646,fixationPoint,331.9577,332.0577,332.0577,333.7244,29.47049532,8420.141521,507.3135267,s,1,1.6504,,333.7245,333.9241,,,,,,,,32,-171,68,215,164,79,165,172,166,-70,-73,-32,-121,-29,-210,169,-117,125,-215,78,-16,-166,163,-75,222,360,270,360,270,90,270,180,180,270,90,180,,,,,,,,,,,333.9242,333.9259,,0,30,30,30,1,16,novel,,,,,,,,,,,,,,,,,,,,,,,,,,,,,,,,,,,,,,,,,,,,,,,,,
,,18,12,${e://Field/PROLIFIC_PID,F,18,2023-11-03_19h58.55.992,MouseEye_CC,2023.2.2,Win32,29.99940001,1.05251769,,,1536,864,47.017,3.57,"252.84, 255.5, 263.61, 259.55, 225.77, 217.78, 212.73",740.93,8.206847877,29.29844692,27.83653633,Passed,98.14979719,,,,,,,,,,,,,,,,,,,,training,2,16,0,left,a,,,,,333.9284,333.9574,29.47049532,4,-1.600006104,1,0,0,0.0284,fixationPoint,333.9574,334.0574,334.0574,334.9575,29.47049532,8420.141521,507.3135267,a,1,0.8781,,334.9576,335.1573,,,,,,,,49,164,29,-171,68,-75,222,-124,118,-224,-25,-28,-70,-76,-116,78,-16,174,-216,163,-175,68,212,16,173,270,90,180,270,180,360,90,180,90,180,360,,,,,,,,,,,335.1575,351.9545,space,0,31,31,31,1,13,novel,16.7437,,,,,,,,,,,,,,,,,,,,,,,,,,,,,,,,,,,,,,,,,,,,,,,,
,,18,12,${e://Field/PROLIFIC_PID,F,18,2023-11-03_19h58.55.992,MouseEye_CC,2023.2.2,Win32,29.99940001,1.05251769,,,1536,864,47.017,3.57,"252.84, 255.5, 263.61, 259.55, 225.77, 217.78, 212.73",740.93,8.206847877,29.29844692,27.83653633,Passed,98.14979719,,,,,,,,,,,,,,,,,,,,training,3,1,180,right,s,,,,,351.9877,352.8547,29.47049532,6.400024414,10.3999939,1,0,0,0.8667,fixationPoint,352.8549,352.9547,352.9548,354.1575,29.47049532,8420.141521,507.3135267,s,1,1.1905,,354.1578,354.354,,,,,,,,38,121,68,-75,222,-28,32,-171,68,-215,-162,-215,-64,-216,-128,21,-72,24,-166,210,-74,79,165,172,166,90,360,360,180,360,90,90,90,90,180,90,,,,,,,,,,,354.3541,354.3572,,0,32,32,32,1,2,repeated,,,,,,,,,,,,,,,,,,,,,,,,,,,,,,,,,,,,,,,,,,,,,,,,,
,,18,12,${e://Field/PROLIFIC_PID,F,18,2023-11-03_19h58.55.992,MouseEye_CC,2023.2.2,Win32,29.99940001,1.05251769,,,1536,864,47.017,3.57,"252.84, 255.5, 263.61, 259.55, 225.77, 217.78, 212.73",740.93,8.206847877,29.29844692,27.83653633,Passed,98.14979719,,,,,,,,,,,,,,,,,,,,training,3,2,180,right,s,,,,,354.3589,355.1879,29.47049532,5.600036621,-0.800018311,1,0,0,0.8286,fixationPoint,355.1881,355.287,355.287,356.1205,29.47049532,8420.141521,507.3135267,s,1,0.8198,,356.1207,356.3202,,,,,,,,49,164,29,-18,114,-116,66,-80,79,-64,-164,-69,-24,-114,-214,211,-128,64,-80,171,-24,114,208,113,168,90,180,90,90,270,180,90,90,270,360,360,,,,,,,,,,,356.3203,356.3209,,0,33,33,33,1,13,novel,,,,,,,,,,,,,,,,,,,,,,,,,,,,,,,,,,,,,,,,,,,,,,,,,
,,18,12,${e://Field/PROLIFIC_PID,F,18,2023-11-03_19h58.55.992,MouseEye_CC,2023.2.2,Win32,29.99940001,1.05251769,,,1536,864,47.017,3.57,"252.84, 255.5, 263.61, 259.55, 225.77, 217.78, 212.73",740.93,8.206847877,29.29844692,27.83653633,Passed,98.14979719,,,,,,,,,,,,,,,,,,,,training,3,3,0,left,a,,,,,356.3222,357.0546,29.47049532,7.200012207,-0.800018311,1,0,0,0.7321,fixationPoint,357.0549,357.1534,357.1534,358.987,29.47049532,8420.141521,507.3135267,a,1,1.811,,358.9871,359.1865,,,,,,,,30,220,121,-28,32,-212,70,-116,214,-168,-124,-70,-73,-163,-20,26,-209,211,-128,116,-167,65,80,215,164,270,270,90,180,360,270,360,180,270,90,360,,,,,,,,,,,359.1866,359.1872,,0,34,34,34,1,14,novel,,,,,,,,,,,,,,,,,,,,,,,,,,,,,,,,,,,,,,,,,,,,,,,,,
,,18,12,${e://Field/PROLIFIC_PID,F,18,2023-11-03_19h58.55.992,MouseEye_CC,2023.2.2,Win32,29.99940001,1.05251769,,,1536,864,47.017,3.57,"252.84, 255.5, 263.61, 259.55, 225.77, 217.78, 212.73",740.93,8.206847877,29.29844692,27.83653633,Passed,98.14979719,,,,,,,,,,,,,,,,,,,,training,3,4,0,left,a,,,,,359.1882,360.2532,29.47049532,6.400024414,-0.800018311,1,0,0,1.0646,fixationPoint,360.2533,360.3525,360.3526,361.9864,29.47049532,8420.141521,507.3135267,a,1,1.6137,,361.9865,362.1864,,,,,,,,42,-169,16,72,114,113,168,27,67,-215,-64,-216,-220,-215,-162,214,-28,114,-68,116,-167,-116,66,-124,118,360,270,270,270,180,360,360,360,90,360,270,,,,,,,,,,,362.1865,362.1871,,0,35,35,35,1,4,repeated,,,,,,,,,,,,,,,,,,,,,,,,,,,,,,,,,,,,,,,,,,,,,,,,,
,,18,12,${e://Field/PROLIFIC_PID,F,18,2023-11-03_19h58.55.992,MouseEye_CC,2023.2.2,Win32,29.99940001,1.05251769,,,1536,864,47.017,3.57,"252.84, 255.5, 263.61, 259.55, 225.77, 217.78, 212.73",740.93,8.206847877,29.29844692,27.83653633,Passed,98.14979719,,,,,,,,,,,,,,,,,,,,training,3,5,180,right,s,,,,,362.1886,362.886,29.47049532,5.600036621,0,1,0,0,0.6972,fixationPoint,362.8861,362.9857,362.9858,363.8532,29.47049532,8420.141521,507.3135267,s,1,0.8335,,363.8535,364.0525,,,,,,,,69,162,-65,218,74,172,76,121,68,-160,124,-124,118,-209,25,-28,-70,-120,-32,-123,-161,114,-68,67,-164,360,270,360,270,270,270,270,180,180,180,270,,,,,,,,,,,364.0526,364.053,,0,36,36,36,1,8,repeated,,,,,,,,,,,,,,,,,,,,,,,,,,,,,,,,,,,,,,,,,,,,,,,,,
,,18,12,${e://Field/PROLIFIC_PID,F,18,2023-11-03_19h58.55.992,MouseEye_CC,2023.2.2,Win32,29.99940001,1.05251769,,,1536,864,47.017,3.57,"252.84, 255.5, 263.61, 259.55, 225.77, 217.78, 212.73",740.93,8.206847877,29.29844692,27.83653633,Passed,98.14979719,,,,,,,,,,,,,,,,,,,,training,3,6,180,right,s,,,,,364.0546,365.0866,29.47049532,-0.799987793,-2.399993896,1,0,0,1.0316,fixationPoint,365.0867,365.1852,365.1852,366.3191,29.47049532,8420.141521,507.3135267,s,1,1.105,,366.3194,366.5189,,,,,,,,63,-124,-64,218,74,215,164,172,76,-216,217,-171,68,-216,126,162,-65,69,-213,174,-216,-215,-162,-69,-24,270,180,90,270,360,90,90,180,270,90,270,,,,,,,,,,,366.5191,366.5198,,0,37,37,37,1,10,novel,,,,,,,,,,,,,,,,,,,,,,,,,,,,,,,,,,,,,,,,,,,,,,,,,
,,18,12,${e://Field/PROLIFIC_PID,F,18,2023-11-03_19h58.55.992,MouseEye_CC,2023.2.2,Win32,29.99940001,1.05251769,,,1536,864,47.017,3.57,"252.84, 255.5, 263.61, 259.55, 225.77, 217.78, 212.73",740.93,8.206847877,29.29844692,27.83653633,Passed,98.14979719,,,,,,,,,,,,,,,,,,,,training,3,7,180,right,s,,,,,366.5213,367.619,29.47049532,-0.799987793,-2.399993896,1,0,0,1.0973,fixationPoint,367.6193,367.7183,367.7184,369.252,29.47049532,8420.141521,507.3135267,s,1,1.5194,,369.2522,369.4518,,,,,,,,23,-124,118,68,212,220,121,16,173,-216,-128,-69,-24,-70,-73,21,-72,67,-164,80,-115,-116,27,-211,161,270,180,90,360,360,180,180,90,360,270,180,,,,,,,,,,,369.4519,369.4523,,0,38,38,38,1,15,novel,,,,,,,,,,,,,,,,,,,,,,,,,,,,,,,,,,,,,,,,,,,,,,,,,
,,18,12,${e://Field/PROLIFIC_PID,F,18,2023-11-03_19h58.55.992,MouseEye_CC,2023.2.2,Win32,29.99940001,1.05251769,,,1536,864,47.017,3.57,"252.84, 255.5, 263.61, 259.55, 225.77, 217.78, 212.73",740.93,8.206847877,29.29844692,27.83653633,Passed,98.14979719,,,,,,,,,,,,,,,,,,,,training,3,8,0,left,a,,,,,369.4534,370.3516,29.47049532,-0.799987793,-2.399993896,1,0,0,0.8979,fixationPoint,370.3517,370.451,370.4511,371.6849,29.47049532,8420.141521,507.3135267,a,1,1.2009,,371.6851,371.8847,,,,,,,,59,171,-24,164,29,218,74,65,80,-116,66,-216,217,-124,118,-114,-214,-28,-70,-64,-164,174,-216,214,-28,360,270,270,360,90,360,270,90,270,360,270,,,,,,,,,,,371.8847,371.8853,,0,39,39,39,1,12,novel,,,,,,,,,,,,,,,,,,,,,,,,,,,,,,,,,,,,,,,,,,,,,,,,,
,,18,12,${e://Field/PROLIFIC_PID,F,18,2023-11-03_19h58.55.992,MouseEye_CC,2023.2.2,Win32,29.99940001,1.05251769,,,1536,864,47.017,3.57,"252.84, 255.5, 263.61, 259.55, 225.77, 217.78, 212.73",740.93,8.206847877,29.29844692,27.83653633,Passed,98.14979719,,,,,,,,,,,,,,,,,,,,training,3,9,180,right,s,,,,,371.8865,372.8512,29.47049532,-0.799987793,-2.399993896,1,0,0,0.9644,fixationPoint,372.8513,372.9509,372.951,375.4178,29.47049532,8420.141521,507.3135267,s,1,2.4378,,375.418,375.6177,,,,,,,,18,113,168,-73,160,-116,66,-124,163,-120,-32,-114,-214,-32,-121,24,-166,169,-117,211,-128,164,29,17,212,180,270,360,360,270,90,180,360,180,270,180,,,,,,,,,,,375.6179,375.6192,,0,40,40,40,1,1,repeated,,,,,,,,,,,,,,,,,,,,,,,,,,,,,,,,,,,,,,,,,,,,,,,,,
,,18,12,${e://Field/PROLIFIC_PID,F,18,2023-11-03_19h58.55.992,MouseEye_CC,2023.2.2,Win32,29.99940001,1.05251769,,,1536,864,47.017,3.57,"252.84, 255.5, 263.61, 259.55, 225.77, 217.78, 212.73",740.93,8.206847877,29.29844692,27.83653633,Passed,98.14979719,,,,,,,,,,,,,,,,,,,,training,3,10,0,left,a,,,,,375.621,376.4194,29.47049532,8.799987793,9.600006104,1,0,0,0.7981,fixationPoint,376.4197,376.5171,376.5173,378.6514,29.47049532,8420.141521,507.3135267,a,1,2.1141,,378.6517,378.8502,,,,,,,,33,-116,66,164,29,172,166,172,76,-123,-161,-163,-69,-21,-172,120,-120,162,-65,210,-74,-166,163,-75,222,180,90,270,90,270,360,360,180,90,90,90,,,,,,,,,,,378.8502,378.8506,,0,41,41,41,1,3,repeated,,,,,,,,,,,,,,,,,,,,,,,,,,,,,,,,,,,,,,,,,,,,,,,,,
,,18,12,${e://Field/PROLIFIC_PID,F,18,2023-11-03_19h58.55.992,MouseEye_CC,2023.2.2,Win32,29.99940001,1.05251769,,,1536,864,47.017,3.57,"252.84, 255.5, 263.61, 259.55, 225.77, 217.78, 212.73",740.93,8.206847877,29.29844692,27.83653633,Passed,98.14979719,,,,,,,,,,,,,,,,,,,,training,3,11,0,left,a,,,,,378.8521,379.55,29.47049532,4.799987793,8,1,0,0,0.6977,fixationPoint,379.5501,379.6495,379.6496,380.85,29.47049532,8420.141521,507.3135267,a,1,1.1788,,380.8501,381.0499,,,,,,,,68,114,-68,172,76,22,114,164,29,-32,76,-32,222,-80,79,-23,-24,-76,-116,-121,-128,125,-215,163,-175,270,90,270,90,360,90,180,270,180,180,270,,,,,,,,,,,381.0501,381.0509,,0,42,42,42,1,11,novel,,,,,,,,,,,,,,,,,,,,,,,,,,,,,,,,,,,,,,,,,,,,,,,,,
,,18,12,${e://Field/PROLIFIC_PID,F,18,2023-11-03_19h58.55.992,MouseEye_CC,2023.2.2,Win32,29.99940001,1.05251769,,,1536,864,47.017,3.57,"252.84, 255.5, 263.61, 259.55, 225.77, 217.78, 212.73",740.93,8.206847877,29.29844692,27.83653633,Passed,98.14979719,,,,,,,,,,,,,,,,,,,,training,3,12,0,left,a,,,,,381.0517,381.7507,29.47049532,8.799987793,0.799987793,1,0,0,0.6987,fixationPoint,381.751,381.8492,381.8492,383.0832,29.47049532,8420.141521,507.3135267,a,1,1.2089,,383.0836,383.2828,,,,,,,,52,-163,-20,27,67,215,164,164,29,-160,124,-212,70,-171,68,169,-117,80,-115,116,-167,-163,-69,-216,-128,360,270,270,270,270,180,90,180,180,360,180,,,,,,,,,,,383.2829,383.2836,,0,43,43,43,1,5,repeated,,,,,,,,,,,,,,,,,,,,,,,,,,,,,,,,,,,,,,,,,,,,,,,,,
,,18,12,${e://Field/PROLIFIC_PID,F,18,2023-11-03_19h58.55.992,MouseEye_CC,2023.2.2,Win32,29.99940001,1.05251769,,,1536,864,47.017,3.57,"252.84, 255.5, 263.61, 259.55, 225.77, 217.78, 212.73",740.93,8.206847877,29.29844692,27.83653633,Passed,98.14979719,,,,,,,,,,,,,,,,,,,,training,3,13,0,left,a,,,,,383.2852,384.3826,29.47049532,3.200012207,2.399993896,1,0,0,1.0972,fixationPoint,384.3827,384.4825,384.4827,385.5493,29.47049532,8420.141521,507.3135267,a,1,1.0548,,385.5495,385.7493,,,,,,,,71,-216,-128,164,29,22,28,16,173,-73,160,-169,16,-160,124,214,-28,174,-216,219,-168,-161,-171,-69,-24,180,90,360,360,270,90,90,360,180,360,270,,,,,,,,,,,385.7495,385.7501,,0,44,44,44,1,6,repeated,,,,,,,,,,,,,,,,,,,,,,,,,,,,,,,,,,,,,,,,,,,,,,,,,
,,18,12,${e://Field/PROLIFIC_PID,F,18,2023-11-03_19h58.55.992,MouseEye_CC,2023.2.2,Win32,29.99940001,1.05251769,,,1536,864,47.017,3.57,"252.84, 255.5, 263.61, 259.55, 225.77, 217.78, 212.73",740.93,8.206847877,29.29844692,27.83653633,Passed,98.14979719,,,,,,,,,,,,,,,,,,,,training,3,14,180,right,s,,,,,385.7516,386.6823,29.47049532,0.799987793,2.399993896,1,0,0,0.9304,fixationPoint,386.6824,386.7821,386.7822,387.5157,29.47049532,8420.141521,507.3135267,s,1,0.7161,,387.5158,387.7153,,,,,,,,78,120,-120,72,114,79,165,172,76,-68,21,-212,70,-116,214,-69,-24,-168,-124,-163,-69,174,-216,69,-213,90,270,360,180,270,360,180,180,360,270,180,,,,,,,,,,,387.7154,387.7162,,0,45,45,45,1,7,repeated,,,,,,,,,,,,,,,,,,,,,,,,,,,,,,,,,,,,,,,,,,,,,,,,,
,,18,12,${e://Field/PROLIFIC_PID,F,18,2023-11-03_19h58.55.992,MouseEye_CC,2023.2.2,Win32,29.99940001,1.05251769,,,1536,864,47.017,3.57,"252.84, 255.5, 263.61, 259.55, 225.77, 217.78, 212.73",740.93,8.206847877,29.29844692,27.83653633,Passed,98.14979719,,,,,,,,,,,,,,,,,,,,training,3,15,0,left,a,,,,,387.7173,388.5491,29.47049532,5.600036621,-4.800018311,1,0,0,0.8315,fixationPoint,388.5492,388.6481,388.6481,391.4818,29.47049532,8420.141521,507.3135267,a,1,2.804,,391.4819,391.6815,,,,,,,,83,-123,-161,127,120,76,31,17,212,-166,163,-32,222,-212,70,169,-117,210,-74,80,-115,-215,-64,-120,-32,270,360,180,360,360,180,360,360,270,180,180,,,,,,,,,,,391.6816,391.6827,,0,46,46,46,1,9,novel,,,,,,,,,,,,,,,,,,,,,,,,,,,,,,,,,,,,,,,,,,,,,,,,,
,,18,12,${e://Field/PROLIFIC_PID,F,18,2023-11-03_19h58.55.992,MouseEye_CC,2023.2.2,Win32,29.99940001,1.05251769,,,1536,864,47.017,3.57,"252.84, 255.5, 263.61, 259.55, 225.77, 217.78, 212.73",740.93,8.206847877,29.29844692,27.83653633,Passed,98.14979719,,,,,,,,,,,,,,,,,,,,training,3,16,180,right,s,,,,,391.6839,393.1147,29.47049532,-16.79998779,-9.600006104,1,0,0,0.7307,fixationPoint,393.1148,393.2147,393.2148,394.3813,29.47049532,8420.141521,507.3135267,s,1,1.1391,,394.3815,394.5811,,,,,,,,32,-171,68,218,74,172,76,215,164,-163,-20,-21,-172,-120,-32,169,-117,128,-25,67,-164,-209,25,-160,124,180,90,180,270,90,270,360,90,180,360,180,,,,,,,,,,,394.5812,396.6146,space,0,47,47,47,1,16,novel,1.9752,,,,,,,,,,,,,,,,,,,,,,,,,,,,,,,,,,,,,,,,,,,,,,,,
,,18,12,${e://Field/PROLIFIC_PID,F,18,2023-11-03_19h58.55.992,MouseEye_CC,2023.2.2,Win32,29.99940001,1.05251769,,,1536,864,47.017,3.57,"252.84, 255.5, 263.61, 259.55, 225.77, 217.78, 212.73",740.93,8.206847877,29.29844692,27.83653633,Passed,98.14979719,,,,,,,,,,,,,,,,,,,,training,4,1,0,left,a,,,,,396.6162,397.5821,29.47049532,0.799987793,4,1,0,0,0.9655,fixationPoint,397.5822,397.6806,397.6808,399.014,29.47049532,8420.141521,507.3135267,s,0,1.3038,,399.0142,403.0131,,,,,,,,18,113,168,-73,160,-116,66,-124,163,-120,-32,-114,-214,-32,-121,24,-166,169,-117,211,-128,164,29,17,212,180,180,360,360,180,90,270,180,360,360,360,,,,,,,,,,,403.0132,403.0462,,0,48,48,48,1,1,repeated,,,,,,,,,,,,,,,,,,,,,,,,,,,,,,,,,,,,,,,,,,,,,,,,,
,,18,12,${e://Field/PROLIFIC_PID,F,18,2023-11-03_19h58.55.992,MouseEye_CC,2023.2.2,Win32,29.99940001,1.05251769,,,1536,864,47.017,3.57,"252.84, 255.5, 263.61, 259.55, 225.77, 217.78, 212.73",740.93,8.206847877,29.29844692,27.83653633,Passed,98.14979719,,,,,,,,,,,,,,,,,,,,training,4,2,0,left,a,,,,,403.0475,404.1128,29.47049532,-1.599975586,1.600006104,1,0,0,1.065,fixationPoint,404.113,404.2129,404.213,409.1125,29.47049532,8420.141521,507.3135267,a,1,4.885,,409.1128,409.3119,,,,,,,,38,121,68,-75,222,-28,32,-171,68,-215,-162,-215,-64,-216,-128,21,-72,24,-166,210,-74,79,165,172,166,270,180,180,180,90,270,90,180,180,270,270,,,,,,,,,,,409.3119,409.3123,,0,49,49,49,1,2,repeated,,,,,,,,,,,,,,,,,,,,,,,,,,,,,,,,,,,,,,,,,,,,,,,,,
,,18,12,${e://Field/PROLIFIC_PID,F,18,2023-11-03_19h58.55.992,MouseEye_CC,2023.2.2,Win32,29.99940001,1.05251769,,,1536,864,47.017,3.57,"252.84, 255.5, 263.61, 259.55, 225.77, 217.78, 212.73",740.93,8.206847877,29.29844692,27.83653633,Passed,98.14979719,,,,,,,,,,,,,,,,,,,,training,4,3,0,left,a,,,,,409.3141,409.4787,29.47049532,-1.599975586,1.600006104,1,0,0,0.1644,fixationPoint,409.4789,409.5787,409.5787,411.9455,29.47049532,8420.141521,507.3135267,a,1,2.3367,,411.9457,412.1449,,,,,,,,33,-116,66,164,29,172,166,172,76,-123,-161,-163,-69,-21,-172,120,-120,162,-65,210,-74,-166,163,-75,222,270,180,90,90,90,360,360,90,270,360,180,,,,,,,,,,,412.145,412.1453,,0,50,50,50,1,3,repeated,,,,,,,,,,,,,,,,,,,,,,,,,,,,,,,,,,,,,,,,,,,,,,,,,
,,18,12,${e://Field/PROLIFIC_PID,F,18,2023-11-03_19h58.55.992,MouseEye_CC,2023.2.2,Win32,29.99940001,1.05251769,,,1536,864,47.017,3.57,"252.84, 255.5, 263.61, 259.55, 225.77, 217.78, 212.73",740.93,8.206847877,29.29844692,27.83653633,Passed,98.14979719,,,,,,,,,,,,,,,,,,,,training,4,4,0,left,a,,,,,412.147,412.545,29.47049532,-1.599975586,1.600006104,1,0,0,0.3978,fixationPoint,412.5451,412.6452,412.6454,415.278,29.47049532,8420.141521,507.3135267,a,1,2.6015,,415.2783,415.4778,,,,,,,,69,162,-65,218,74,172,76,121,68,-160,124,-124,118,-209,25,-28,-70,-120,-32,-123,-161,114,-68,67,-164,90,360,180,90,360,180,180,180,270,360,90,,,,,,,,,,,415.478,415.4787,,0,51,51,51,1,8,repeated,,,,,,,,,,,,,,,,,,,,,,,,,,,,,,,,,,,,,,,,,,,,,,,,,
,,18,12,${e://Field/PROLIFIC_PID,F,18,2023-11-03_19h58.55.992,MouseEye_CC,2023.2.2,Win32,29.99940001,1.05251769,,,1536,864,47.017,3.57,"252.84, 255.5, 263.61, 259.55, 225.77, 217.78, 212.73",740.93,8.206847877,29.29844692,27.83653633,Passed,98.14979719,,,,,,,,,,,,,,,,,,,,training,4,5,180,right,s,,,,,415.4801,415.6113,29.47049532,-1.599975586,1.600006104,1,0,0,0.131,fixationPoint,415.6115,415.7111,415.7111,417.6444,29.47049532,8420.141521,507.3135267,s,1,1.9108,,417.6446,417.8441,,,,,,,,52,-163,-20,27,67,215,164,164,29,-160,124,-212,70,-171,68,169,-117,80,-115,116,-167,-163,-69,-216,-128,180,360,180,360,180,270,90,180,90,360,360,,,,,,,,,,,417.8442,417.8447,,0,52,52,52,1,5,repeated,,,,,,,,,,,,,,,,,,,,,,,,,,,,,,,,,,,,,,,,,,,,,,,,,
,,18,12,${e://Field/PROLIFIC_PID,F,18,2023-11-03_19h58.55.992,MouseEye_CC,2023.2.2,Win32,29.99940001,1.05251769,,,1536,864,47.017,3.57,"252.84, 255.5, 263.61, 259.55, 225.77, 217.78, 212.73",740.93,8.206847877,29.29844692,27.83653633,Passed,98.14979719,,,,,,,,,,,,,,,,,,,,training,4,6,180,right,s,,,,,417.846,418.0774,29.47049532,-1.599975586,1.600006104,1,0,0,0.2312,fixationPoint,418.0775,418.1773,418.1774,419.8773,29.47049532,8420.141521,507.3135267,s,1,1.6858,,419.8776,420.0769,,,,,,,,78,120,-120,72,114,79,165,172,76,-68,21,-212,70,-116,214,-69,-24,-168,-124,-163,-69,174,-216,69,-213,180,90,360,180,360,90,90,360,90,180,90,,,,,,,,,,,420.0771,420.0776,,0,53,53,53,1,7,repeated,,,,,,,,,,,,,,,,,,,,,,,,,,,,,,,,,,,,,,,,,,,,,,,,,
,,18,12,${e://Field/PROLIFIC_PID,F,18,2023-11-03_19h58.55.992,MouseEye_CC,2023.2.2,Win32,29.99940001,1.05251769,,,1536,864,47.017,3.57,"252.84, 255.5, 263.61, 259.55, 225.77, 217.78, 212.73",740.93,8.206847877,29.29844692,27.83653633,Passed,98.14979719,,,,,,,,,,,,,,,,,,,,training,4,7,180,right,s,,,,,420.079,420.1771,29.47049532,-1.599975586,1.600006104,1,0,0,0.0976,fixationPoint,420.1772,420.2771,420.2772,421.2105,29.47049532,8420.141521,507.3135267,s,1,0.9107,,421.2106,421.4101,,,,,,,,49,164,29,-216,126,-124,118,-170,218,-124,-64,-79,-222,-161,-171,125,-215,162,-65,120,-120,172,166,114,208,180,90,180,90,180,180,270,270,270,360,360,,,,,,,,,,,421.4103,421.411,,0,54,54,54,1,13,novel,,,,,,,,,,,,,,,,,,,,,,,,,,,,,,,,,,,,,,,,,,,,,,,,,
,,18,12,${e://Field/PROLIFIC_PID,F,18,2023-11-03_19h58.55.992,MouseEye_CC,2023.2.2,Win32,29.99940001,1.05251769,,,1536,864,47.017,3.57,"252.84, 255.5, 263.61, 259.55, 225.77, 217.78, 212.73",740.93,8.206847877,29.29844692,27.83653633,Passed,98.14979719,,,,,,,,,,,,,,,,,,,,training,4,8,180,right,s,,,,,421.4125,421.8433,29.47049532,-1.599975586,1.600006104,1,0,0,0.4304,fixationPoint,421.8434,421.9432,421.9433,424.2099,29.47049532,8420.141521,507.3135267,s,1,2.2372,,424.21,424.4113,,,,,,,,83,-123,-161,79,165,164,29,220,121,-116,27,-68,21,-169,16,120,-120,214,-28,67,-164,-121,-128,-21,-172,270,360,270,360,270,270,90,360,180,90,360,,,,,,,,,,,424.4114,424.4118,,0,55,55,55,1,9,novel,,,,,,,,,,,,,,,,,,,,,,,,,,,,,,,,,,,,,,,,,,,,,,,,,
,,18,12,${e://Field/PROLIFIC_PID,F,18,2023-11-03_19h58.55.992,MouseEye_CC,2023.2.2,Win32,29.99940001,1.05251769,,,1536,864,47.017,3.57,"252.84, 255.5, 263.61, 259.55, 225.77, 217.78, 212.73",740.93,8.206847877,29.29844692,27.83653633,Passed,98.14979719,,,,,,,,,,,,,,,,,,,,training,4,9,0,left,a,,,,,424.4129,424.8762,29.47049532,-1.599975586,1.600006104,1,0,0,0.4628,fixationPoint,424.8763,424.9762,424.9764,426.0433,29.47049532,8420.141521,507.3135267,a,1,1.0416,,426.0435,426.2428,,,,,,,,71,-216,-128,164,29,22,28,16,173,-73,160,-169,16,-160,124,214,-28,174,-216,219,-168,-161,-171,-69,-24,360,90,270,270,360,90,360,270,180,90,360,,,,,,,,,,,426.2429,426.2436,,0,56,56,56,1,6,repeated,,,,,,,,,,,,,,,,,,,,,,,,,,,,,,,,,,,,,,,,,,,,,,,,,
,,18,12,${e://Field/PROLIFIC_PID,F,18,2023-11-03_19h58.55.992,MouseEye_CC,2023.2.2,Win32,29.99940001,1.05251769,,,1536,864,47.017,3.57,"252.84, 255.5, 263.61, 259.55, 225.77, 217.78, 212.73",740.93,8.206847877,29.29844692,27.83653633,Passed,98.14979719,,,,,,,,,,,,,,,,,,,,training,4,10,180,right,s,,,,,426.2445,426.2759,29.47049532,-1.599975586,1.600006104,1,0,0,0.0312,fixationPoint,426.276,426.3761,426.3762,427.7098,29.47049532,8420.141521,507.3135267,s,1,1.2977,,427.7101,427.9093,,,,,,,,63,-124,-64,172,166,76,31,72,114,-68,21,-169,16,-28,32,125,-215,210,-74,219,-168,-224,-25,-29,-210,180,270,180,270,270,360,90,270,270,360,180,,,,,,,,,,,427.9095,427.9102,,0,57,57,57,1,10,novel,,,,,,,,,,,,,,,,,,,,,,,,,,,,,,,,,,,,,,,,,,,,,,,,,
,,18,12,${e://Field/PROLIFIC_PID,F,18,2023-11-03_19h58.55.992,MouseEye_CC,2023.2.2,Win32,29.99940001,1.05251769,,,1536,864,47.017,3.57,"252.84, 255.5, 263.61, 259.55, 225.77, 217.78, 212.73",740.93,8.206847877,29.29844692,27.83653633,Passed,98.14979719,,,,,,,,,,,,,,,,,,,,training,4,11,0,left,a,,,,,427.9116,428.2423,29.47049532,-1.599975586,1.600006104,1,0,0,0.3305,fixationPoint,428.2424,428.3422,428.3423,430.2421,29.47049532,8420.141521,507.3135267,a,1,1.867,,430.2422,430.4422,,,,,,,,32,-171,68,160,125,16,173,72,114,-120,-32,-64,-164,-123,-161,210,-74,211,-128,214,-28,-124,118,-20,165,360,360,180,180,270,90,270,180,180,90,360,,,,,,,,,,,430.4423,430.4426,,0,58,58,58,1,16,novel,,,,,,,,,,,,,,,,,,,,,,,,,,,,,,,,,,,,,,,,,,,,,,,,,
,,18,12,${e://Field/PROLIFIC_PID,F,18,2023-11-03_19h58.55.992,MouseEye_CC,2023.2.2,Win32,29.99940001,1.05251769,,,1536,864,47.017,3.57,"252.84, 255.5, 263.61, 259.55, 225.77, 217.78, 212.73",740.93,8.206847877,29.29844692,27.83653633,Passed,98.14979719,,,,,,,,,,,,,,,,,,,,training,4,12,0,left,a,,,,,430.4438,430.8419,29.47049532,-1.599975586,1.600006104,1,0,0,0.398,fixationPoint,430.8421,430.9419,430.942,434.2416,29.47049532,8420.141521,507.3135267,a,1,3.2678,,434.2418,434.4413,,,,,,,,30,220,121,-32,222,-169,16,-216,126,-175,-223,-163,-20,-216,-128,174,-216,211,-128,80,-115,79,165,218,74,180,360,90,90,180,270,180,90,360,270,90,,,,,,,,,,,434.4415,434.4426,,0,59,59,59,1,14,novel,,,,,,,,,,,,,,,,,,,,,,,,,,,,,,,,,,,,,,,,,,,,,,,,,
,,18,12,${e://Field/PROLIFIC_PID,F,18,2023-11-03_19h58.55.992,MouseEye_CC,2023.2.2,Win32,29.99940001,1.05251769,,,1536,864,47.017,3.57,"252.84, 255.5, 263.61, 259.55, 225.77, 217.78, 212.73",740.93,8.206847877,29.29844692,27.83653633,Passed,98.14979719,,,,,,,,,,,,,,,,,,,,training,4,13,180,right,s,,,,,434.4439,434.6082,29.47049532,-1.599975586,1.600006104,1,0,0,0.164,fixationPoint,434.6083,434.7079,434.7081,436.4747,29.47049532,8420.141521,507.3135267,s,1,1.7484,,436.4749,436.6744,,,,,,,,59,171,-24,160,125,113,168,216,16,-170,218,-32,222,-160,124,-114,-214,-215,-64,-29,-210,21,-72,219,-168,270,270,270,90,270,270,90,270,360,270,180,,,,,,,,,,,436.6745,436.6754,,0,60,60,60,1,12,novel,,,,,,,,,,,,,,,,,,,,,,,,,,,,,,,,,,,,,,,,,,,,,,,,,
,,18,12,${e://Field/PROLIFIC_PID,F,18,2023-11-03_19h58.55.992,MouseEye_CC,2023.2.2,Win32,29.99940001,1.05251769,,,1536,864,47.017,3.57,"252.84, 255.5, 263.61, 259.55, 225.77, 217.78, 212.73",740.93,8.206847877,29.29844692,27.83653633,Passed,98.14979719,,,,,,,,,,,,,,,,,,,,training,4,14,180,right,s,,,,,436.6765,436.8745,29.47049532,-1.599975586,1.600006104,1,0,0,0.1979,fixationPoint,436.8747,436.9744,436.9746,438.1082,29.47049532,8420.141521,507.3135267,s,1,1.0962,,438.1087,438.3078,,,,,,,,23,-124,118,113,168,215,164,216,16,-69,-24,-70,-73,-114,-214,114,-68,80,-115,69,-213,-209,25,-160,124,180,90,90,270,180,180,360,360,360,360,90,,,,,,,,,,,438.3079,438.3083,,0,61,61,61,1,15,novel,,,,,,,,,,,,,,,,,,,,,,,,,,,,,,,,,,,,,,,,,,,,,,,,,
,,18,12,${e://Field/PROLIFIC_PID,F,18,2023-11-03_19h58.55.992,MouseEye_CC,2023.2.2,Win32,29.99940001,1.05251769,,,1536,864,47.017,3.57,"252.84, 255.5, 263.61, 259.55, 225.77, 217.78, 212.73",740.93,8.206847877,29.29844692,27.83653633,Passed,98.14979719,,,,,,,,,,,,,,,,,,,,training,4,15,0,left,a,,,,,438.3102,438.3407,29.47049532,-1.599975586,1.600006104,1,0,0,0.0301,fixationPoint,438.3409,438.4405,438.4406,440.641,29.47049532,8420.141521,507.3135267,a,1,2.1706,,440.6411,440.8402,,,,,,,,42,-169,16,72,114,113,168,27,67,-215,-64,-216,-220,-215,-162,214,-28,114,-68,116,-167,-116,66,-124,118,360,180,270,360,270,270,270,270,360,270,270,,,,,,,,,,,440.8403,440.8409,,0,62,62,62,1,4,repeated,,,,,,,,,,,,,,,,,,,,,,,,,,,,,,,,,,,,,,,,,,,,,,,,,
,,18,12,${e://Field/PROLIFIC_PID,F,18,2023-11-03_19h58.55.992,MouseEye_CC,2023.2.2,Win32,29.99940001,1.05251769,,,1536,864,47.017,3.57,"252.84, 255.5, 263.61, 259.55, 225.77, 217.78, 212.73",740.93,8.206847877,29.29844692,27.83653633,Passed,98.14979719,,,,,,,,,,,,,,,,,,,,training,4,16,180,right,s,,,,,440.8421,440.8737,29.47049532,-1.599975586,1.600006104,1,0,0,0.0312,fixationPoint,440.8737,440.9739,440.974,442.4405,29.47049532,8420.141521,507.3135267,s,1,1.4296,,442.4407,442.6403,,,,,,,,68,114,-68,216,16,127,120,121,68,-216,217,-116,27,-212,70,-120,-32,-21,-172,-124,-64,21,-72,219,-168,360,270,180,360,90,90,270,360,270,180,360,,,,,,,,,,,442.6405,541.3917,space,0,63,63,63,1,11,novel,98.7044,,,,,,,,,,,,,,,,,,,,,,,,,,,,,,,,,,,,,,,,,,,,,,,,
,,18,12,${e://Field/PROLIFIC_PID,F,18,2023-11-03_19h58.55.992,MouseEye_CC,2023.2.2,Win32,29.99940001,1.05251769,,,1536,864,47.017,3.57,"252.84, 255.5, 263.61, 259.55, 225.77, 217.78, 212.73",740.93,8.206847877,29.29844692,27.83653633,Passed,98.14979719,,,,,,,,,,,,,,,,,,,,training,5,1,0,left,a,,,,,541.4233,542.058,29.47049532,-1.599975586,1.600006104,1,0,0,0.6343,fixationPoint,542.0581,542.1579,542.158,543.9251,29.47049532,8420.141521,507.3135267,a,1,1.7554,,543.9253,544.1244,,,,,,,,49,164,29,-216,126,-28,32,-169,16,-161,-171,-120,-32,-64,-164,210,-74,174,-216,224,-223,172,76,79,165,180,270,360,180,270,90,90,180,270,270,90,,,,,,,,,,,544.1246,544.1289,,0,64,64,64,1,13,novel,,,,,,,,,,,,,,,,,,,,,,,,,,,,,,,,,,,,,,,,,,,,,,,,,
,,18,12,${e://Field/PROLIFIC_PID,F,18,2023-11-03_19h58.55.992,MouseEye_CC,2023.2.2,Win32,29.99940001,1.05251769,,,1536,864,47.017,3.57,"252.84, 255.5, 263.61, 259.55, 225.77, 217.78, 212.73",740.93,8.206847877,29.29844692,27.83653633,Passed,98.14979719,,,,,,,,,,,,,,,,,,,,training,5,2,0,left,a,,,,,544.1305,544.9247,29.47049532,-16,-0.800018311,1,0,0,0.4597,fixationPoint,544.9249,545.0239,545.024,546.0906,29.47049532,8420.141521,507.3135267,a,1,1.0494,,546.0908,546.2907,,,,,,,,38,121,68,-75,222,-28,32,-171,68,-215,-162,-215,-64,-216,-128,21,-72,24,-166,210,-74,79,165,172,166,360,90,90,180,90,180,270,180,90,270,180,,,,,,,,,,,546.2908,546.2915,,0,65,65,65,1,2,repeated,,,,,,,,,,,,,,,,,,,,,,,,,,,,,,,,,,,,,,,,,,,,,,,,,
,,18,12,${e://Field/PROLIFIC_PID,F,18,2023-11-03_19h58.55.992,MouseEye_CC,2023.2.2,Win32,29.99940001,1.05251769,,,1536,864,47.017,3.57,"252.84, 255.5, 263.61, 259.55, 225.77, 217.78, 212.73",740.93,8.206847877,29.29844692,27.83653633,Passed,98.14979719,,,,,,,,,,,,,,,,,,,,training,5,3,180,right,s,,,,,546.2929,546.557,29.47049532,-2.399963379,4,1,0,0,0.2637,fixationPoint,546.5571,546.657,546.6571,547.7572,29.47049532,8420.141521,507.3135267,s,1,1.0809,,547.7574,547.9569,,,,,,,,23,-124,118,113,168,167,215,118,16,-163,-69,-79,-222,-216,-128,219,-168,114,-68,171,-24,-20,165,-73,160,180,360,270,90,90,270,360,360,90,180,360,,,,,,,,,,,547.9572,547.9581,,0,66,66,66,1,15,novel,,,,,,,,,,,,,,,,,,,,,,,,,,,,,,,,,,,,,,,,,,,,,,,,,
,,18,12,${e://Field/PROLIFIC_PID,F,18,2023-11-03_19h58.55.992,MouseEye_CC,2023.2.2,Win32,29.99940001,1.05251769,,,1536,864,47.017,3.57,"252.84, 255.5, 263.61, 259.55, 225.77, 217.78, 212.73",740.93,8.206847877,29.29844692,27.83653633,Passed,98.14979719,,,,,,,,,,,,,,,,,,,,training,5,4,180,right,s,,,,,547.9596,548.3234,29.47049532,-2.399963379,4,1,0,0,0.3635,fixationPoint,548.3235,548.4237,548.4238,549.1901,29.47049532,8420.141521,507.3135267,s,1,0.7473,,549.1903,549.3901,,,,,,,,33,-116,66,164,29,172,166,172,76,-123,-161,-163,-69,-21,-172,120,-120,162,-65,210,-74,-166,163,-75,222,180,90,90,180,270,90,270,360,180,270,270,,,,,,,,,,,549.3904,549.3911,,0,67,67,67,1,3,repeated,,,,,,,,,,,,,,,,,,,,,,,,,,,,,,,,,,,,,,,,,,,,,,,,,
,,18,12,${e://Field/PROLIFIC_PID,F,18,2023-11-03_19h58.55.992,MouseEye_CC,2023.2.2,Win32,29.99940001,1.05251769,,,1536,864,47.017,3.57,"252.84, 255.5, 263.61, 259.55, 225.77, 217.78, 212.73",740.93,8.206847877,29.29844692,27.83653633,Passed,98.14979719,,,,,,,,,,,,,,,,,,,,training,5,5,0,left,a,,,,,549.3922,549.7567,29.47049532,-2.399963379,4,1,0,0,0.3641,fixationPoint,549.757,549.8621,549.8621,551.1231,29.47049532,8420.141521,507.3135267,a,1,1.2257,,551.1232,551.3231,,,,,,,,83,-123,-161,215,164,167,215,16,173,-80,79,-211,161,-68,21,116,-167,26,-20,78,-16,-124,-64,-21,-172,90,270,360,180,270,180,180,270,270,180,270,,,,,,,,,,,551.3231,551.3239,,0,68,68,68,1,9,novel,,,,,,,,,,,,,,,,,,,,,,,,,,,,,,,,,,,,,,,,,,,,,,,,,
,,18,12,${e://Field/PROLIFIC_PID,F,18,2023-11-03_19h58.55.992,MouseEye_CC,2023.2.2,Win32,29.99940001,1.05251769,,,1536,864,47.017,3.57,"252.84, 255.5, 263.61, 259.55, 225.77, 217.78, 212.73",740.93,8.206847877,29.29844692,27.83653633,Passed,98.14979719,,,,,,,,,,,,,,,,,,,,training,5,6,0,left,a,,,,,551.3248,552.456,29.47049532,-2.399963379,4,1,0,0,1.1308,fixationPoint,552.4561,552.5557,552.5558,554.0894,29.47049532,8420.141521,507.3135267,a,1,1.5232,,554.0894,554.2892,,,,,,,,63,-124,-64,68,212,172,166,114,208,-209,25,-216,126,-212,70,214,-28,128,-25,210,-74,-123,-161,-70,-73,90,180,360,180,360,270,180,180,180,360,90,,,,,,,,,,,554.2894,554.2904,,0,69,69,69,1,10,novel,,,,,,,,,,,,,,,,,,,,,,,,,,,,,,,,,,,,,,,,,,,,,,,,,
,,18,12,${e://Field/PROLIFIC_PID,F,18,2023-11-03_19h58.55.992,MouseEye_CC,2023.2.2,Win32,29.99940001,1.05251769,,,1536,864,47.017,3.57,"252.84, 255.5, 263.61, 259.55, 225.77, 217.78, 212.73",740.93,8.206847877,29.29844692,27.83653633,Passed,98.14979719,,,,,,,,,,,,,,,,,,,,training,5,7,180,right,s,,,,,554.292,555.023,29.47049532,-2.399963379,-3.200012207,1,0,0,0.7306,fixationPoint,555.0231,555.1221,555.1222,557.3908,29.47049532,8420.141521,507.3135267,s,1,2.2595,,557.391,557.5887,,,,,,,,71,-216,-128,164,29,22,28,16,173,-73,160,-169,16,-160,124,214,-28,174,-216,219,-168,-161,-171,-69,-24,90,360,270,90,360,270,270,360,90,270,180,,,,,,,,,,,557.5888,557.5892,,0,70,70,70,1,6,repeated,,,,,,,,,,,,,,,,,,,,,,,,,,,,,,,,,,,,,,,,,,,,,,,,,
,,18,12,${e://Field/PROLIFIC_PID,F,18,2023-11-03_19h58.55.992,MouseEye_CC,2023.2.2,Win32,29.99940001,1.05251769,,,1536,864,47.017,3.57,"252.84, 255.5, 263.61, 259.55, 225.77, 217.78, 212.73",740.93,8.206847877,29.29844692,27.83653633,Passed,98.14979719,,,,,,,,,,,,,,,,,,,,training,5,8,180,right,s,,,,,557.5905,558.2888,29.47049532,-12,-7.200012207,1,0,0,0.6981,fixationPoint,558.2889,558.3881,558.3881,561.1886,29.47049532,8420.141521,507.3135267,s,1,2.7838,,561.1889,561.388,,,,,,,,30,220,121,-75,222,-216,126,-32,76,-216,-220,-161,-171,-64,-164,125,-215,26,-20,20,-120,172,76,72,114,270,180,90,180,90,180,180,270,90,180,360,,,,,,,,,,,561.3882,561.3891,,0,71,71,71,1,14,novel,,,,,,,,,,,,,,,,,,,,,,,,,,,,,,,,,,,,,,,,,,,,,,,,,
,,18,12,${e://Field/PROLIFIC_PID,F,18,2023-11-03_19h58.55.992,MouseEye_CC,2023.2.2,Win32,29.99940001,1.05251769,,,1536,864,47.017,3.57,"252.84, 255.5, 263.61, 259.55, 225.77, 217.78, 212.73",740.93,8.206847877,29.29844692,27.83653633,Passed,98.14979719,,,,,,,,,,,,,,,,,,,,training,5,9,180,right,s,,,,,561.3903,562.1884,29.47049532,2.400024414,-8.800018311,1,0,0,0.7977,fixationPoint,562.1886,562.288,562.2881,564.0225,29.47049532,8420.141521,507.3135267,s,1,1.6982,,564.0227,564.2211,,,,,,,,78,120,-120,72,114,79,165,172,76,-68,21,-212,70,-116,214,-69,-24,-168,-124,-163,-69,174,-216,69,-213,270,180,360,180,180,360,360,270,360,360,360,,,,,,,,,,,564.2215,564.2221,,0,72,72,72,1,7,repeated,,,,,,,,,,,,,,,,,,,,,,,,,,,,,,,,,,,,,,,,,,,,,,,,,
,,18,12,${e://Field/PROLIFIC_PID,F,18,2023-11-03_19h58.55.992,MouseEye_CC,2023.2.2,Win32,29.99940001,1.05251769,,,1536,864,47.017,3.57,"252.84, 255.5, 263.61, 259.55, 225.77, 217.78, 212.73",740.93,8.206847877,29.29844692,27.83653633,Passed,98.14979719,,,,,,,,,,,,,,,,,,,,training,5,10,0,left,a,,,,,564.2232,565.1875,29.47049532,-4.799987793,0,1,0,0,0.964,fixationPoint,565.1876,565.2874,565.2875,566.5541,29.47049532,8420.141521,507.3135267,a,1,1.2295,,566.5542,566.754,,,,,,,,59,171,-24,68,212,118,16,172,76,-116,66,-216,126,-32,76,-215,-162,-23,-24,-163,-69,214,-28,20,-120,180,90,90,180,90,270,360,180,90,270,180,,,,,,,,,,,566.7542,566.7548,,0,73,73,73,1,12,novel,,,,,,,,,,,,,,,,,,,,,,,,,,,,,,,,,,,,,,,,,,,,,,,,,
,,18,12,${e://Field/PROLIFIC_PID,F,18,2023-11-03_19h58.55.992,MouseEye_CC,2023.2.2,Win32,29.99940001,1.05251769,,,1536,864,47.017,3.57,"252.84, 255.5, 263.61, 259.55, 225.77, 217.78, 212.73",740.93,8.206847877,29.29844692,27.83653633,Passed,98.14979719,,,,,,,,,,,,,,,,,,,,training,5,11,180,right,s,,,,,566.7563,567.6204,29.47049532,-4.799987793,-0.800018311,1,0,0,0.8638,fixationPoint,567.6206,567.7203,567.7203,569.2201,29.47049532,8420.141521,507.3135267,s,1,1.479,,569.2204,569.42,,,,,,,,68,114,-68,27,67,16,173,127,120,-75,222,-124,118,-32,222,-114,-214,-124,-64,-28,-70,64,-80,174,-216,180,270,90,360,180,180,180,270,270,270,270,,,,,,,,,,,569.4202,569.4206,,0,74,74,74,1,11,novel,,,,,,,,,,,,,,,,,,,,,,,,,,,,,,,,,,,,,,,,,,,,,,,,,
,,18,12,${e://Field/PROLIFIC_PID,F,18,2023-11-03_19h58.55.992,MouseEye_CC,2023.2.2,Win32,29.99940001,1.05251769,,,1536,864,47.017,3.57,"252.84, 255.5, 263.61, 259.55, 225.77, 217.78, 212.73",740.93,8.206847877,29.29844692,27.83653633,Passed,98.14979719,,,,,,,,,,,,,,,,,,,,training,5,12,0,left,a,,,,,569.4227,570.32,29.47049532,-4.799987793,-0.800018311,1,0,0,0.8971,fixationPoint,570.3202,570.4193,570.4194,571.52,29.47049532,8420.141521,507.3135267,a,1,1.0864,,571.5201,571.7196,,,,,,,,69,162,-65,218,74,172,76,121,68,-160,124,-124,118,-209,25,-28,-70,-120,-32,-123,-161,114,-68,67,-164,360,360,360,180,90,270,90,90,180,360,90,,,,,,,,,,,571.7197,571.7203,,0,75,75,75,1,8,repeated,,,,,,,,,,,,,,,,,,,,,,,,,,,,,,,,,,,,,,,,,,,,,,,,,
,,18,12,${e://Field/PROLIFIC_PID,F,18,2023-11-03_19h58.55.992,MouseEye_CC,2023.2.2,Win32,29.99940001,1.05251769,,,1536,864,47.017,3.57,"252.84, 255.5, 263.61, 259.55, 225.77, 217.78, 212.73",740.93,8.206847877,29.29844692,27.83653633,Passed,98.14979719,,,,,,,,,,,,,,,,,,,,training,5,13,180,right,s,,,,,571.7215,572.5198,29.47049532,-4.799987793,-0.800018311,1,0,0,0.7978,fixationPoint,572.5199,572.6196,572.6198,577.3855,29.47049532,8420.141521,507.3135267,s,1,4.7304,,577.3856,577.5855,,,,,,,,18,113,168,-73,160,-116,66,-124,163,-120,-32,-114,-214,-32,-121,24,-166,169,-117,211,-128,164,29,17,212,360,90,360,180,90,360,180,90,180,360,180,,,,,,,,,,,577.5856,577.5862,,0,76,76,76,1,1,repeated,,,,,,,,,,,,,,,,,,,,,,,,,,,,,,,,,,,,,,,,,,,,,,,,,
,,18,12,${e://Field/PROLIFIC_PID,F,18,2023-11-03_19h58.55.992,MouseEye_CC,2023.2.2,Win32,29.99940001,1.05251769,,,1536,864,47.017,3.57,"252.84, 255.5, 263.61, 259.55, 225.77, 217.78, 212.73",740.93,8.206847877,29.29844692,27.83653633,Passed,98.14979719,,,,,,,,,,,,,,,,,,,,training,5,14,0,left,a,,,,,577.5874,578.3519,29.47049532,-4.799987793,-0.800018311,1,0,0,0.7643,fixationPoint,578.352,578.4518,578.4519,580.7188,29.47049532,8420.141521,507.3135267,a,1,2.2344,,580.719,580.9184,,,,,,,,32,-171,68,160,125,220,121,167,215,-224,-25,-163,-69,-79,-222,80,-115,163,-175,21,-72,-80,79,-211,161,270,180,180,90,360,360,270,180,270,180,90,,,,,,,,,,,580.9186,580.9192,,0,77,77,77,1,16,novel,,,,,,,,,,,,,,,,,,,,,,,,,,,,,,,,,,,,,,,,,,,,,,,,,
,,18,12,${e://Field/PROLIFIC_PID,F,18,2023-11-03_19h58.55.992,MouseEye_CC,2023.2.2,Win32,29.99940001,1.05251769,,,1536,864,47.017,3.57,"252.84, 255.5, 263.61, 259.55, 225.77, 217.78, 212.73",740.93,8.206847877,29.29844692,27.83653633,Passed,98.14979719,,,,,,,,,,,,,,,,,,,,training,5,15,180,right,s,,,,,580.9206,581.6516,29.47049532,10.40002441,-3.200012207,1,0,0,0.7306,fixationPoint,581.6518,581.7513,581.7514,582.8519,29.47049532,8420.141521,507.3135267,s,1,1.0842,,582.8522,583.0514,,,,,,,,42,-169,16,72,114,113,168,27,67,-215,-64,-216,-220,-215,-162,214,-28,114,-68,116,-167,-116,66,-124,118,90,360,360,270,360,360,180,270,270,180,360,,,,,,,,,,,583.0514,583.0518,,0,78,78,78,1,4,repeated,,,,,,,,,,,,,,,,,,,,,,,,,,,,,,,,,,,,,,,,,,,,,,,,,
,,18,12,${e://Field/PROLIFIC_PID,F,18,2023-11-03_19h58.55.992,MouseEye_CC,2023.2.2,Win32,29.99940001,1.05251769,,,1536,864,47.017,3.57,"252.84, 255.5, 263.61, 259.55, 225.77, 217.78, 212.73",740.93,8.206847877,29.29844692,27.83653633,Passed,98.14979719,,,,,,,,,,,,,,,,,,,,training,5,16,0,left,a,,,,,583.0529,584.1177,29.47049532,8.799987793,-3.200012207,1,0,0,1.0645,fixationPoint,584.1178,584.2173,584.2173,585.2511,29.47049532,8420.141521,507.3135267,a,1,1.0046,,585.2512,585.4508,,,,,,,,52,-163,-20,27,67,215,164,164,29,-160,124,-212,70,-171,68,169,-117,80,-115,116,-167,-163,-69,-216,-128,270,360,180,90,90,90,360,90,270,360,270,,,,,,,,,,,585.4509,605.1491,space,0,79,79,79,1,5,repeated,19.6557,,,,,,,,,,,,,,,,,,,,,,,,,,,,,,,,,,,,,,,,,,,,,,,,
,,18,12,${e://Field/PROLIFIC_PID,F,18,2023-11-03_19h58.55.992,MouseEye_CC,2023.2.2,Win32,29.99940001,1.05251769,,,1536,864,47.017,3.57,"252.84, 255.5, 263.61, 259.55, 225.77, 217.78, 212.73",740.93,8.206847877,29.29844692,27.83653633,Passed,98.14979719,,,,,,,,,,,,,,,,,,,,training,6,1,180,right,s,,,,,605.1797,606.681,29.47049532,6.400024414,-0.800018311,1,0,0,1.501,fixationPoint,606.6811,606.7812,606.7813,607.7477,29.47049532,8420.141521,507.3135267,s,1,0.9445,,607.7479,607.9474,,,,,,,,52,-163,-20,27,67,215,164,164,29,-160,124,-212,70,-171,68,169,-117,80,-115,116,-167,-163,-69,-216,-128,180,90,270,90,360,270,270,270,270,360,360,,,,,,,,,,,607.9475,607.9515,,0,80,80,80,1,5,repeated,,,,,,,,,,,,,,,,,,,,,,,,,,,,,,,,,,,,,,,,,,,,,,,,,
,,18,12,${e://Field/PROLIFIC_PID,F,18,2023-11-03_19h58.55.992,MouseEye_CC,2023.2.2,Win32,29.99940001,1.05251769,,,1536,864,47.017,3.57,"252.84, 255.5, 263.61, 259.55, 225.77, 217.78, 212.73",740.93,8.206847877,29.29844692,27.83653633,Passed,98.14979719,,,,,,,,,,,,,,,,,,,,training,6,2,0,left,a,,,,,607.9531,608.0809,29.47049532,3.200012207,0,1,0,0,0.1275,fixationPoint,608.0811,608.1806,608.1807,609.9473,29.47049532,8420.141521,507.3135267,a,1,1.7549,,609.9475,610.1468,,,,,,,,68,114,-68,218,74,210,221,65,80,-216,217,-211,161,-209,25,-215,-64,-163,-69,-32,-121,64,-80,20,-120,90,180,180,270,270,270,360,180,180,270,360,,,,,,,,,,,610.1469,610.1474,,0,81,81,81,1,11,novel,,,,,,,,,,,,,,,,,,,,,,,,,,,,,,,,,,,,,,,,,,,,,,,,,
,,18,12,${e://Field/PROLIFIC_PID,F,18,2023-11-03_19h58.55.992,MouseEye_CC,2023.2.2,Win32,29.99940001,1.05251769,,,1536,864,47.017,3.57,"252.84, 255.5, 263.61, 259.55, 225.77, 217.78, 212.73",740.93,8.206847877,29.29844692,27.83653633,Passed,98.14979719,,,,,,,,,,,,,,,,,,,,training,6,3,180,right,s,,,,,610.1492,610.714,29.47049532,0.799987793,4,1,0,0,0.5644,fixationPoint,610.7141,610.8135,610.8136,613.1804,29.47049532,8420.141521,507.3135267,s,1,2.3493,,613.1806,613.3798,,,,,,,,71,-216,-128,164,29,22,28,16,173,-73,160,-169,16,-160,124,214,-28,174,-216,219,-168,-161,-171,-69,-24,180,180,270,90,180,180,180,90,90,270,90,,,,,,,,,,,613.3799,613.3804,,0,82,82,82,1,6,repeated,,,,,,,,,,,,,,,,,,,,,,,,,,,,,,,,,,,,,,,,,,,,,,,,,
,,18,12,${e://Field/PROLIFIC_PID,F,18,2023-11-03_19h58.55.992,MouseEye_CC,2023.2.2,Win32,29.99940001,1.05251769,,,1536,864,47.017,3.57,"252.84, 255.5, 263.61, 259.55, 225.77, 217.78, 212.73",740.93,8.206847877,29.29844692,27.83653633,Passed,98.14979719,,,,,,,,,,,,,,,,,,,,training,6,4,180,right,s,,,,,613.3816,613.5472,29.47049532,-12.79998779,13.6000061,1,0,0,0.165,fixationPoint,613.5475,613.6468,613.647,614.4465,29.47049532,8420.141521,507.3135267,s,1,0.7812,,614.4466,614.6467,,,,,,,,49,164,29,-124,118,-212,70,-209,25,-124,-64,-64,-164,-32,-121,20,-120,80,-115,120,-120,167,215,79,165,270,360,270,90,360,180,270,90,360,180,90,,,,,,,,,,,614.6468,614.6472,,0,83,83,83,1,13,novel,,,,,,,,,,,,,,,,,,,,,,,,,,,,,,,,,,,,,,,,,,,,,,,,,
,,18,12,${e://Field/PROLIFIC_PID,F,18,2023-11-03_19h58.55.992,MouseEye_CC,2023.2.2,Win32,29.99940001,1.05251769,,,1536,864,47.017,3.57,"252.84, 255.5, 263.61, 259.55, 225.77, 217.78, 212.73",740.93,8.206847877,29.29844692,27.83653633,Passed,98.14979719,,,,,,,,,,,,,,,,,,,,training,6,5,0,left,a,,,,,614.6493,614.7462,29.47049532,-2.399963379,3.199981689,1,0,0,0.0964,fixationPoint,614.7464,614.8463,614.8465,616.3798,29.47049532,8420.141521,507.3135267,a,1,1.5194,,616.38,616.5795,,,,,,,,42,-169,16,72,114,113,168,27,67,-215,-64,-216,-220,-215,-162,214,-28,114,-68,116,-167,-116,66,-124,118,180,180,180,360,180,90,90,180,270,90,90,,,,,,,,,,,616.5797,616.58,,0,84,84,84,1,4,repeated,,,,,,,,,,,,,,,,,,,,,,,,,,,,,,,,,,,,,,,,,,,,,,,,,
,,18,12,${e://Field/PROLIFIC_PID,F,18,2023-11-03_19h58.55.992,MouseEye_CC,2023.2.2,Win32,29.99940001,1.05251769,,,1536,864,47.017,3.57,"252.84, 255.5, 263.61, 259.55, 225.77, 217.78, 212.73",740.93,8.206847877,29.29844692,27.83653633,Passed,98.14979719,,,,,,,,,,,,,,,,,,,,training,6,6,180,right,s,,,,,616.5811,616.7461,29.47049532,-2.399963379,3.199981689,1,0,0,0.1647,fixationPoint,616.7464,616.8459,616.846,618.3793,29.47049532,8420.141521,507.3135267,s,1,1.5048,,618.3795,618.579,,,,,,,,78,120,-120,72,114,79,165,172,76,-68,21,-212,70,-116,214,-69,-24,-168,-124,-163,-69,174,-216,69,-213,360,90,90,270,360,270,180,180,180,180,270,,,,,,,,,,,618.5792,618.5798,,0,85,85,85,1,7,repeated,,,,,,,,,,,,,,,,,,,,,,,,,,,,,,,,,,,,,,,,,,,,,,,,,
,,18,12,${e://Field/PROLIFIC_PID,F,18,2023-11-03_19h58.55.992,MouseEye_CC,2023.2.2,Win32,29.99940001,1.05251769,,,1536,864,47.017,3.57,"252.84, 255.5, 263.61, 259.55, 225.77, 217.78, 212.73",740.93,8.206847877,29.29844692,27.83653633,Passed,98.14979719,,,,,,,,,,,,,,,,,,,,training,6,7,180,right,s,,,,,618.5815,620.112,29.47049532,9.600036621,5.600006104,1,0,0,1.5301,fixationPoint,620.1121,620.2123,620.2124,621.5121,29.47049532,8420.141521,507.3135267,s,1,1.2762,,621.5122,621.7118,,,,,,,,30,220,121,-20,165,-166,163,-80,79,-28,-70,-123,-161,-216,-128,20,-120,26,-209,224,-223,216,16,113,168,90,360,180,360,180,180,180,90,360,270,90,,,,,,,,,,,621.7119,621.7126,,0,86,86,86,1,14,novel,,,,,,,,,,,,,,,,,,,,,,,,,,,,,,,,,,,,,,,,,,,,,,,,,
,,18,12,${e://Field/PROLIFIC_PID,F,18,2023-11-03_19h58.55.992,MouseEye_CC,2023.2.2,Win32,29.99940001,1.05251769,,,1536,864,47.017,3.57,"252.84, 255.5, 263.61, 259.55, 225.77, 217.78, 212.73",740.93,8.206847877,29.29844692,27.83653633,Passed,98.14979719,,,,,,,,,,,,,,,,,,,,training,6,8,0,left,a,,,,,621.7138,622.1452,29.47049532,2.400024414,11.19998169,1,0,0,0.4309,fixationPoint,622.1452,622.2453,622.2455,623.5118,29.47049532,8420.141521,507.3135267,a,1,1.2468,,623.5119,623.7116,,,,,,,,38,121,68,-75,222,-28,32,-171,68,-215,-162,-215,-64,-216,-128,21,-72,24,-166,210,-74,79,165,172,166,360,360,270,180,270,270,90,90,180,180,90,,,,,,,,,,,623.7117,623.7125,,0,87,87,87,1,2,repeated,,,,,,,,,,,,,,,,,,,,,,,,,,,,,,,,,,,,,,,,,,,,,,,,,
,,18,12,${e://Field/PROLIFIC_PID,F,18,2023-11-03_19h58.55.992,MouseEye_CC,2023.2.2,Win32,29.99940001,1.05251769,,,1536,864,47.017,3.57,"252.84, 255.5, 263.61, 259.55, 225.77, 217.78, 212.73",740.93,8.206847877,29.29844692,27.83653633,Passed,98.14979719,,,,,,,,,,,,,,,,,,,,training,6,9,0,left,a,,,,,623.7138,624.0449,29.47049532,2.400024414,11.19998169,1,0,0,0.3308,fixationPoint,624.045,624.145,624.1451,625.6778,29.47049532,8420.141521,507.3135267,a,1,1.5001,,625.6779,625.8782,,,,,,,,33,-116,66,164,29,172,166,172,76,-123,-161,-163,-69,-21,-172,120,-120,162,-65,210,-74,-166,163,-75,222,360,180,180,360,180,360,270,360,180,90,360,,,,,,,,,,,625.8784,625.8799,,0,88,88,88,1,3,repeated,,,,,,,,,,,,,,,,,,,,,,,,,,,,,,,,,,,,,,,,,,,,,,,,,
,,18,12,${e://Field/PROLIFIC_PID,F,18,2023-11-03_19h58.55.992,MouseEye_CC,2023.2.2,Win32,29.99940001,1.05251769,,,1536,864,47.017,3.57,"252.84, 255.5, 263.61, 259.55, 225.77, 217.78, 212.73",740.93,8.206847877,29.29844692,27.83653633,Passed,98.14979719,,,,,,,,,,,,,,,,,,,,training,6,10,0,left,a,,,,,625.8814,626.1125,29.47049532,-7.200012207,5.600006104,1,0,0,0.2303,fixationPoint,626.1127,626.2111,626.2111,627.6778,29.47049532,8420.141521,507.3135267,a,1,1.4461,,627.678,627.878,,,,,,,,83,-123,-161,218,74,210,221,68,212,-75,222,-171,68,-170,218,219,-168,26,-20,211,-128,-124,-64,-29,-210,360,270,270,360,180,270,270,360,180,270,180,,,,,,,,,,,627.8782,627.879,,0,89,89,89,1,9,novel,,,,,,,,,,,,,,,,,,,,,,,,,,,,,,,,,,,,,,,,,,,,,,,,,
,,18,12,${e://Field/PROLIFIC_PID,F,18,2023-11-03_19h58.55.992,MouseEye_CC,2023.2.2,Win32,29.99940001,1.05251769,,,1536,864,47.017,3.57,"252.84, 255.5, 263.61, 259.55, 225.77, 217.78, 212.73",740.93,8.206847877,29.29844692,27.83653633,Passed,98.14979719,,,,,,,,,,,,,,,,,,,,training,6,11,0,left,a,,,,,627.8807,628.6443,29.47049532,-5.599975586,5.600006104,1,0,0,0.7632,fixationPoint,628.6444,628.7435,628.7436,631.5436,29.47049532,8420.141521,507.3135267,a,1,2.7697,,631.5438,631.7435,,,,,,,,23,-124,118,22,114,215,164,68,212,-28,-70,-79,-222,-29,-210,64,-80,80,-115,120,-120,-166,163,-116,214,270,270,90,180,180,360,90,180,180,90,270,,,,,,,,,,,631.7436,631.744,,0,90,90,90,1,15,novel,,,,,,,,,,,,,,,,,,,,,,,,,,,,,,,,,,,,,,,,,,,,,,,,,
,,18,12,${e://Field/PROLIFIC_PID,F,18,2023-11-03_19h58.55.992,MouseEye_CC,2023.2.2,Win32,29.99940001,1.05251769,,,1536,864,47.017,3.57,"252.84, 255.5, 263.61, 259.55, 225.77, 217.78, 212.73",740.93,8.206847877,29.29844692,27.83653633,Passed,98.14979719,,,,,,,,,,,,,,,,,,,,training,6,12,180,right,s,,,,,631.7452,632.7435,29.47049532,-2.399963379,0.799987793,1,0,0,0.9979,fixationPoint,632.7436,632.8429,632.8429,635.443,29.47049532,8420.141521,507.3135267,s,1,2.5663,,635.4432,635.6429,,,,,,,,59,171,-24,160,125,22,28,16,173,-124,163,-80,79,-216,217,-124,-64,-123,-161,-216,-128,69,-213,116,-167,360,90,180,90,180,180,360,270,360,270,270,,,,,,,,,,,635.6429,635.6434,,0,91,91,91,1,12,novel,,,,,,,,,,,,,,,,,,,,,,,,,,,,,,,,,,,,,,,,,,,,,,,,,
,,18,12,${e://Field/PROLIFIC_PID,F,18,2023-11-03_19h58.55.992,MouseEye_CC,2023.2.2,Win32,29.99940001,1.05251769,,,1536,864,47.017,3.57,"252.84, 255.5, 263.61, 259.55, 225.77, 217.78, 212.73",740.93,8.206847877,29.29844692,27.83653633,Passed,98.14979719,,,,,,,,,,,,,,,,,,,,training,6,13,180,right,s,,,,,635.6446,636.5761,29.47049532,0,-5.600006104,1,0,0,0.9312,fixationPoint,636.5761,636.6763,636.6765,637.6761,29.47049532,8420.141521,507.3135267,s,1,0.9663,,637.6763,637.8761,,,,,,,,32,-171,68,16,173,172,76,22,28,-114,-214,-21,-172,-64,-164,26,-20,174,-216,26,-209,-124,118,-124,163,90,90,360,360,360,180,270,270,180,180,180,,,,,,,,,,,637.8762,637.8766,,0,92,92,92,1,16,novel,,,,,,,,,,,,,,,,,,,,,,,,,,,,,,,,,,,,,,,,,,,,,,,,,
,,18,12,${e://Field/PROLIFIC_PID,F,18,2023-11-03_19h58.55.992,MouseEye_CC,2023.2.2,Win32,29.99940001,1.05251769,,,1536,864,47.017,3.57,"252.84, 255.5, 263.61, 259.55, 225.77, 217.78, 212.73",740.93,8.206847877,29.29844692,27.83653633,Passed,98.14979719,,,,,,,,,,,,,,,,,,,,training,6,14,0,left,a,,,,,637.8778,638.6091,29.47049532,0,-5.600006104,1,0,0,0.7311,fixationPoint,638.6093,638.7099,638.7101,641.8421,29.47049532,8420.141521,507.3135267,a,1,3.1141,,641.8423,642.042,,,,,,,,18,113,168,-73,160,-116,66,-124,163,-120,-32,-114,-214,-32,-121,24,-166,169,-117,211,-128,164,29,17,212,180,270,360,360,360,360,180,90,360,270,90,,,,,,,,,,,642.0421,642.0429,,0,93,93,93,1,1,repeated,,,,,,,,,,,,,,,,,,,,,,,,,,,,,,,,,,,,,,,,,,,,,,,,,
,,18,12,${e://Field/PROLIFIC_PID,F,18,2023-11-03_19h58.55.992,MouseEye_CC,2023.2.2,Win32,29.99940001,1.05251769,,,1536,864,47.017,3.57,"252.84, 255.5, 263.61, 259.55, 225.77, 217.78, 212.73",740.93,8.206847877,29.29844692,27.83653633,Passed,98.14979719,,,,,,,,,,,,,,,,,,,,training,6,15,0,left,a,,,,,642.0442,642.742,29.47049532,0,-5.600006104,1,0,0,0.6974,fixationPoint,642.7421,642.8417,642.8418,643.9086,29.47049532,8420.141521,507.3135267,a,1,1.0309,,643.9087,644.1084,,,,,,,,69,162,-65,218,74,172,76,121,68,-160,124,-124,118,-209,25,-28,-70,-120,-32,-123,-161,114,-68,67,-164,180,270,270,270,270,360,270,270,180,90,180,,,,,,,,,,,644.1084,644.109,,0,94,94,94,1,8,repeated,,,,,,,,,,,,,,,,,,,,,,,,,,,,,,,,,,,,,,,,,,,,,,,,,
,,18,12,${e://Field/PROLIFIC_PID,F,18,2023-11-03_19h58.55.992,MouseEye_CC,2023.2.2,Win32,29.99940001,1.05251769,,,1536,864,47.017,3.57,"252.84, 255.5, 263.61, 259.55, 225.77, 217.78, 212.73",740.93,8.206847877,29.29844692,27.83653633,Passed,98.14979719,,,,,,,,,,,,,,,,,,,,training,6,16,180,right,s,,,,,644.1108,644.9097,29.47049532,0,-3.200012207,1,0,0,0.798,fixationPoint,644.9102,645.0084,645.0086,646.2081,29.47049532,8420.141521,507.3135267,s,1,1.1643,,646.2082,646.408,,,,,,,,63,-124,-64,210,221,68,212,160,125,-216,126,-20,165,-116,27,163,-175,67,-164,80,-115,-163,-20,-216,-128,180,180,270,360,180,360,270,90,180,360,90,,,,,,,,,,,646.4081,647.5747,space,0,95,95,95,1,10,novel,1.1188,,,,,,,,,,,,,,,,,,,,,,,,,,,,,,,,,,,,,,,,,,,,,,,,
,,18,12,${e://Field/PROLIFIC_PID,F,18,2023-11-03_19h58.55.992,MouseEye_CC,2023.2.2,Win32,29.99940001,1.05251769,,,1536,864,47.017,3.57,"252.84, 255.5, 263.61, 259.55, 225.77, 217.78, 212.73",740.93,8.206847877,29.29844692,27.83653633,Passed,98.14979719,,,,,,,,,,,,,,,,,,,,training,7,1,180,right,s,,,,,647.5763,648.6744,29.47049532,0,-3.200012207,1,0,0,1.0976,fixationPoint,648.6745,648.7742,648.7743,651.1074,29.47049532,8420.141521,507.3135267,a,0,2.3068,,651.1075,655.1067,,,,,,,,18,113,168,-73,160,-116,66,-124,163,-120,-32,-114,-214,-32,-121,24,-166,169,-117,211,-128,164,29,17,212,360,360,180,360,90,180,270,270,270,90,90,,,,,,,,,,,655.1067,655.1414,,0,96,96,96,1,1,repeated,,,,,,,,,,,,,,,,,,,,,,,,,,,,,,,,,,,,,,,,,,,,,,,,,
,,18,12,${e://Field/PROLIFIC_PID,F,18,2023-11-03_19h58.55.992,MouseEye_CC,2023.2.2,Win32,29.99940001,1.05251769,,,1536,864,47.017,3.57,"252.84, 255.5, 263.61, 259.55, 225.77, 217.78, 212.73",740.93,8.206847877,29.29844692,27.83653633,Passed,98.14979719,,,,,,,,,,,,,,,,,,,,training,7,2,180,right,s,,,,,655.1426,655.1531,29.47049532,-3.200012207,4,1,0,0,0.0104,fixationPoint,655.1532,655.2401,655.2403,656.8406,29.47049532,8420.141521,507.3135267,s,1,1.5896,,656.8408,657.04,,,,,,,,32,-171,68,17,212,220,121,27,67,-161,-171,-224,-25,-123,-161,120,-120,210,-74,169,-117,-80,79,-169,16,90,270,270,180,360,360,180,180,90,90,270,,,,,,,,,,,657.0404,657.0411,,0,97,97,97,1,16,novel,,,,,,,,,,,,,,,,,,,,,,,,,,,,,,,,,,,,,,,,,,,,,,,,,
,,18,12,${e://Field/PROLIFIC_PID,F,18,2023-11-03_19h58.55.992,MouseEye_CC,2023.2.2,Win32,29.99940001,1.05251769,,,1536,864,47.017,3.57,"252.84, 255.5, 263.61, 259.55, 225.77, 217.78, 212.73",740.93,8.206847877,29.29844692,27.83653633,Passed,98.14979719,,,,,,,,,,,,,,,,,,,,training,7,3,0,left,a,,,,,657.0424,657.1396,29.47049532,-3.200012207,4,1,0,0,0.097,fixationPoint,657.1398,657.2396,657.2398,660.5401,29.47049532,8420.141521,507.3135267,a,1,3.2691,,660.5405,660.7393,,,,,,,,38,121,68,-75,222,-28,32,-171,68,-215,-162,-215,-64,-216,-128,21,-72,24,-166,210,-74,79,165,172,166,270,180,90,90,180,90,270,90,360,90,360,,,,,,,,,,,660.7394,660.7398,,0,98,98,98,1,2,repeated,,,,,,,,,,,,,,,,,,,,,,,,,,,,,,,,,,,,,,,,,,,,,,,,,
,,18,12,${e://Field/PROLIFIC_PID,F,18,2023-11-03_19h58.55.992,MouseEye_CC,2023.2.2,Win32,29.99940001,1.05251769,,,1536,864,47.017,3.57,"252.84, 255.5, 263.61, 259.55, 225.77, 217.78, 212.73",740.93,8.206847877,29.29844692,27.83653633,Passed,98.14979719,,,,,,,,,,,,,,,,,,,,training,7,4,180,right,s,,,,,660.7415,660.7726,29.47049532,0.799987793,0.799987793,1,0,0,0.0306,fixationPoint,660.7727,660.8724,660.8726,662.7054,29.47049532,8420.141521,507.3135267,s,1,1.8145,,662.7054,662.9052,,,,,,,,71,-216,-128,164,29,22,28,16,173,-73,160,-169,16,-160,124,214,-28,174,-216,219,-168,-161,-171,-69,-24,90,90,360,360,90,90,90,270,270,360,270,,,,,,,,,,,662.9053,662.9057,,0,99,99,99,1,6,repeated,,,,,,,,,,,,,,,,,,,,,,,,,,,,,,,,,,,,,,,,,,,,,,,,,
,,18,12,${e://Field/PROLIFIC_PID,F,18,2023-11-03_19h58.55.992,MouseEye_CC,2023.2.2,Win32,29.99940001,1.05251769,,,1536,864,47.017,3.57,"252.84, 255.5, 263.61, 259.55, 225.77, 217.78, 212.73",740.93,8.206847877,29.29844692,27.83653633,Passed,98.14979719,,,,,,,,,,,,,,,,,,,,training,7,5,0,left,a,,,,,662.9071,663.339,29.47049532,0.799987793,0.799987793,1,0,0,0.4314,fixationPoint,663.3392,663.4394,663.4404,665.1383,29.47049532,8420.141521,507.3135267,a,1,1.6858,,665.1384,665.3384,,,,,,,,49,164,29,-80,79,-169,16,-116,214,-161,-171,-32,-121,-124,-64,128,-25,24,-166,125,-215,76,31,113,168,180,360,270,180,90,180,270,90,270,180,270,,,,,,,,,,,665.3384,665.3391,,0,100,100,100,1,13,novel,,,,,,,,,,,,,,,,,,,,,,,,,,,,,,,,,,,,,,,,,,,,,,,,,
,,18,12,${e://Field/PROLIFIC_PID,F,18,2023-11-03_19h58.55.992,MouseEye_CC,2023.2.2,Win32,29.99940001,1.05251769,,,1536,864,47.017,3.57,"252.84, 255.5, 263.61, 259.55, 225.77, 217.78, 212.73",740.93,8.206847877,29.29844692,27.83653633,Passed,98.14979719,,,,,,,,,,,,,,,,,,,,training,7,6,180,right,s,,,,,665.3407,665.3716,29.47049532,0.799987793,0.799987793,1,0,0,0.0305,fixationPoint,665.3716,665.4721,665.4726,666.2384,29.47049532,8420.141521,507.3135267,s,1,0.7347,,666.2387,666.4381,,,,,,,,59,171,-24,76,31,72,114,113,168,-211,161,-209,25,-116,27,-161,-171,-64,-164,-215,-64,67,-164,64,-80,360,180,90,360,270,270,180,90,180,270,90,,,,,,,,,,,666.4382,666.4402,,0,101,101,101,1,12,novel,,,,,,,,,,,,,,,,,,,,,,,,,,,,,,,,,,,,,,,,,,,,,,,,,
,,18,12,${e://Field/PROLIFIC_PID,F,18,2023-11-03_19h58.55.992,MouseEye_CC,2023.2.2,Win32,29.99940001,1.05251769,,,1536,864,47.017,3.57,"252.84, 255.5, 263.61, 259.55, 225.77, 217.78, 212.73",740.93,8.206847877,29.29844692,27.83653633,Passed,98.14979719,,,,,,,,,,,,,,,,,,,,training,7,7,0,left,a,,,,,666.4422,666.7383,29.47049532,0.799987793,0.799987793,1,0,0,0.2956,fixationPoint,666.7384,666.8382,666.8384,669.1715,29.47049532,8420.141521,507.3135267,a,1,2.301,,669.1717,669.3709,,,,,,,,83,-123,-161,218,74,216,16,118,16,-75,222,-32,76,-124,163,171,-24,64,-80,163,-175,-64,-164,-216,-220,180,360,270,90,180,180,90,180,270,90,90,,,,,,,,,,,669.3711,669.3715,,0,102,102,102,1,9,novel,,,,,,,,,,,,,,,,,,,,,,,,,,,,,,,,,,,,,,,,,,,,,,,,,
,,18,12,${e://Field/PROLIFIC_PID,F,18,2023-11-03_19h58.55.992,MouseEye_CC,2023.2.2,Win32,29.99940001,1.05251769,,,1536,864,47.017,3.57,"252.84, 255.5, 263.61, 259.55, 225.77, 217.78, 212.73",740.93,8.206847877,29.29844692,27.83653633,Passed,98.14979719,,,,,,,,,,,,,,,,,,,,training,7,8,180,right,s,,,,,669.3728,669.7045,29.47049532,0.799987793,0.799987793,1,0,0,0.3314,fixationPoint,669.7047,669.8041,669.8042,670.6712,29.47049532,8420.141521,507.3135267,s,1,0.8358,,670.6716,670.8708,,,,,,,,63,-124,-64,76,31,127,120,160,125,-216,126,-160,124,-68,21,128,-25,163,-175,64,-80,-120,-32,-29,-210,180,180,90,90,180,360,270,90,180,90,90,,,,,,,,,,,670.8709,670.8716,,0,103,103,103,1,10,novel,,,,,,,,,,,,,,,,,,,,,,,,,,,,,,,,,,,,,,,,,,,,,,,,,
,,18,12,${e://Field/PROLIFIC_PID,F,18,2023-11-03_19h58.55.992,MouseEye_CC,2023.2.2,Win32,29.99940001,1.05251769,,,1536,864,47.017,3.57,"252.84, 255.5, 263.61, 259.55, 225.77, 217.78, 212.73",740.93,8.206847877,29.29844692,27.83653633,Passed,98.14979719,,,,,,,,,,,,,,,,,,,,training,7,9,180,right,s,,,,,670.8732,670.9041,29.47049532,0.799987793,0.799987793,1,0,0,0.0306,fixationPoint,670.9041,671.0041,671.0042,671.9708,29.47049532,8420.141521,507.3135267,s,1,0.9505,,671.971,672.1705,,,,,,,,52,-163,-20,27,67,215,164,164,29,-160,124,-212,70,-171,68,169,-117,80,-115,116,-167,-163,-69,-216,-128,360,90,90,180,360,90,270,180,90,90,360,,,,,,,,,,,672.1706,672.1711,,0,104,104,104,1,5,repeated,,,,,,,,,,,,,,,,,,,,,,,,,,,,,,,,,,,,,,,,,,,,,,,,,
,,18,12,${e://Field/PROLIFIC_PID,F,18,2023-11-03_19h58.55.992,MouseEye_CC,2023.2.2,Win32,29.99940001,1.05251769,,,1536,864,47.017,3.57,"252.84, 255.5, 263.61, 259.55, 225.77, 217.78, 212.73",740.93,8.206847877,29.29844692,27.83653633,Passed,98.14979719,,,,,,,,,,,,,,,,,,,,training,7,10,180,right,s,,,,,672.1725,672.2037,29.47049532,0.799987793,0.799987793,1,0,0,0.0311,fixationPoint,672.2039,672.3038,672.3039,673.6708,29.47049532,8420.141521,507.3135267,s,1,1.3294,,673.6712,673.8702,,,,,,,,69,162,-65,218,74,172,76,121,68,-160,124,-124,118,-209,25,-28,-70,-120,-32,-123,-161,114,-68,67,-164,360,270,270,270,180,180,270,360,90,270,360,,,,,,,,,,,673.8704,673.8711,,0,105,105,105,1,8,repeated,,,,,,,,,,,,,,,,,,,,,,,,,,,,,,,,,,,,,,,,,,,,,,,,,
,,18,12,${e://Field/PROLIFIC_PID,F,18,2023-11-03_19h58.55.992,MouseEye_CC,2023.2.2,Win32,29.99940001,1.05251769,,,1536,864,47.017,3.57,"252.84, 255.5, 263.61, 259.55, 225.77, 217.78, 212.73",740.93,8.206847877,29.29844692,27.83653633,Passed,98.14979719,,,,,,,,,,,,,,,,,,,,training,7,11,0,left,a,,,,,673.8727,674.0703,29.47049532,0.799987793,0.799987793,1,0,0,0.1972,fixationPoint,674.0704,674.1701,674.1701,675.8703,29.47049532,8420.141521,507.3135267,a,1,1.6743,,675.8705,676.0698,,,,,,,,33,-116,66,164,29,172,166,172,76,-123,-161,-163,-69,-21,-172,120,-120,162,-65,210,-74,-166,163,-75,222,360,270,90,180,360,180,180,270,180,180,180,,,,,,,,,,,676.0698,676.0705,,0,106,106,106,1,3,repeated,,,,,,,,,,,,,,,,,,,,,,,,,,,,,,,,,,,,,,,,,,,,,,,,,
,,18,12,${e://Field/PROLIFIC_PID,F,18,2023-11-03_19h58.55.992,MouseEye_CC,2023.2.2,Win32,29.99940001,1.05251769,,,1536,864,47.017,3.57,"252.84, 255.5, 263.61, 259.55, 225.77, 217.78, 212.73",740.93,8.206847877,29.29844692,27.83653633,Passed,98.14979719,,,,,,,,,,,,,,,,,,,,training,7,12,0,left,a,,,,,676.0719,676.3368,29.47049532,0.799987793,0.799987793,1,0,0,0.2645,fixationPoint,676.3368,676.4368,676.437,677.3366,29.47049532,8420.141521,507.3135267,s,0,0.8626,,677.3367,681.3357,,,,,,,,68,114,-68,216,16,76,31,172,166,-73,160,-116,66,-209,25,-123,-161,-114,-214,-64,-164,24,-166,21,-72,360,180,270,90,270,270,360,270,360,90,360,,,,,,,,,,,681.3358,681.369,,0,107,107,107,1,11,novel,,,,,,,,,,,,,,,,,,,,,,,,,,,,,,,,,,,,,,,,,,,,,,,,,
,,18,12,${e://Field/PROLIFIC_PID,F,18,2023-11-03_19h58.55.992,MouseEye_CC,2023.2.2,Win32,29.99940001,1.05251769,,,1536,864,47.017,3.57,"252.84, 255.5, 263.61, 259.55, 225.77, 217.78, 212.73",740.93,8.206847877,29.29844692,27.83653633,Passed,98.14979719,,,,,,,,,,,,,,,,,,,,training,7,13,0,left,a,,,,,681.37,681.8023,29.47049532,0.799987793,0.799987793,1,0,0,0.432,fixationPoint,681.8025,681.9023,681.9024,683.5359,29.47049532,8420.141521,507.3135267,a,1,1.6098,,683.5361,683.7353,,,,,,,,42,-169,16,72,114,113,168,27,67,-215,-64,-216,-220,-215,-162,214,-28,114,-68,116,-167,-116,66,-124,118,270,360,90,90,180,270,90,360,180,90,360,,,,,,,,,,,683.7354,683.7359,,0,108,108,108,1,4,repeated,,,,,,,,,,,,,,,,,,,,,,,,,,,,,,,,,,,,,,,,,,,,,,,,,
,,18,12,${e://Field/PROLIFIC_PID,F,18,2023-11-03_19h58.55.992,MouseEye_CC,2023.2.2,Win32,29.99940001,1.05251769,,,1536,864,47.017,3.57,"252.84, 255.5, 263.61, 259.55, 225.77, 217.78, 212.73",740.93,8.206847877,29.29844692,27.83653633,Passed,98.14979719,,,,,,,,,,,,,,,,,,,,training,7,14,0,left,a,,,,,683.7372,683.9693,29.47049532,0.799987793,0.799987793,1,0,0,0.2317,fixationPoint,683.9695,684.0689,684.0691,686.6352,29.47049532,8420.141521,507.3135267,a,1,2.5455,,686.6353,686.8349,,,,,,,,23,-124,118,65,80,118,16,76,31,-215,-64,-216,-220,-32,-121,67,-164,114,-68,219,-168,-68,21,-116,66,270,360,270,360,360,270,180,180,360,270,180,,,,,,,,,,,686.8351,686.8358,,0,109,109,109,1,15,novel,,,,,,,,,,,,,,,,,,,,,,,,,,,,,,,,,,,,,,,,,,,,,,,,,
