InstrStartPage.started,InstrStartPage.stopped,participant,designid,prolificid,Gender,Age,date,expName,psychopyVersion,OS,frameRate,ratio_monitor2CRT,VirtualChinrest.started,VirtualChinrest.stopped,xRes,yRes,viewingdistance_cm,pixeldensity_px2mm,BallPos,squarePos,mm2degree,px2degree,CRT_px2degree,PassVirtualChinrest,foveaRadius_inPixel,InstrRedo.started,InstrRedo.stopped,VirtualChinrest_Redo.started,VirtualChinrest_Redo.stopped,Redo_virtualChinrest,Instruction1.started,Instruction1.stopped,keyPractice.started,keyPractice.stopped,key_keyprac.keys,key_keyprac.corr,key_keyprac.rt,key_keyprac.duration,keyPracFeedback.started,keyPracFeedback.stopped,keyPracLoop.thisRepN,keyPracLoop.thisTrialN,keyPracLoop.thisN,keyPracLoop.thisIndex,keyPracLoop.ran,phase,block,trial,targOrientdeg,targOrient,corrAnswer,Instruction2.started,Instruction2.stopped,Instruction3.started,Instruction3.stopped,fixation.started,fixation.stopped,fixationSize,mouseintial.x,mouseintial.y,mouseintial.leftButton,mouseintial.midButton,mouseintial.rightButton,mouseintial.time,mouseintial.clicked_name,greenFixation.started,greenFixation.stopped,trial.started,trial.stopped,letterSize,apertureSize,searchsize,key_respMain.keys,key_respMain.corr,key_respMain.rt,key_respMain.duration,trialFeedback.started,trialFeedback.stopped,trialsPractice.thisRepN,trialsPractice.thisTrialN,trialsPractice.thisN,trialsPractice.thisIndex,trialsPractice.ran,targetQuad,Tcondition,targcell,tlocx,tlocy,d1x,d1y,d2x,d2y,d3x,d3y,d4x,d4y,d5x,d5y,d6x,d6y,d7x,d7y,d8x,d8y,d9x,d9y,d10x,d10y,d11x,d11y,d1Orient,d2Orient,d3Orient,d4Orient,d5Orient,d6Orient,d7Orient,d8Orient,d9Orient,d10Orient,d11Orient,CheckInstr.started,CheckInstr.stopped,key_checkInstr.keys,key_checkInstr.corr,key_checkInstr.rt,key_checkInstr.duration,CheckInstr_FB.started,CheckInstr_FB.stopped,Instruction_MainExp.started,Instruction_MainExp.stopped,TakeABreak.started,TakeABreak.stopped,key_respBreak.keys,trials.thisRepN,trials.thisTrialN,trials.thisN,trials.thisIndex,trials.ran,configurationNumber,CCCondition,key_respBreak.rt,key_respBreak.duration,displayTestingPhase.started,displayTestingPhase.stopped,key_respTesting.keys,key_respTesting.corr,key_respTesting.rt,key_respTesting.duration,TakeABreak2.started,TakeABreak2.stopped,key_RespBreak.keys,Testingtrials.thisRepN,Testingtrials.thisTrialN,Testingtrials.thisN,Testingtrials.thisIndex,Testingtrials.ran,key_RespBreak.rt,key_RespBreak.duration,RecogQuestion.started,RecogQuestion.stopped,key_AnswerQues.keys,key_AnswerQues.rt,key_AnswerQues.duration,Disclose.started,Disclose.stopped,InstrRT.started,InstrRT.stopped,fixation_RT.started,fixation_RT.stopped,mouseInitial.x,mouseInitial.y,mouseInitial.leftButton,mouseInitial.midButton,mouseInitial.rightButton,mouseInitial.time,mouseInitial.clicked_name,displayRT.started,displayRT.stopped,key_respRT.keys,key_respRT.corr,key_respRT.rt,key_respRT.duration,RTtrials.thisRepN,RTtrials.thisTrialN,RTtrials.thisN,RTtrials.thisIndex,RTtrials.ran,EndOfExperiment.started,EndOfExperiment.stopped
0.0019,2.8626,20,2,${e://Field/PROLIFIC_PID,F,18,2023-11-03_15h01.43.607,MouseEye_CC,2023.2.2,MacIntel,59.84082341,1,,,,,,,,,,,,,,,,,,,,,,,,,,,,,,,,,,,,,,,,,,,,,,,,,,,,,,,,,,,,,,,,,,,,,,,,,,,,,,,,,,,,,,,,,,,,,,,,,,,,,,,,,,,,,,,,,,,,,,,,,,,,,,,,,,,,,,,,,,,,,,,,,,,,,,,,,,,,,,,,,,,,,,,,,,,,,,,,,,
,,20,2,${e://Field/PROLIFIC_PID,F,18,2023-11-03_15h01.43.607,MouseEye_CC,2023.2.2,MacIntel,59.84082341,1.243992664,2.8629,127.3617,1440,900,42.848,4.63,"61.96, 18.93, 511.2, 490.64, 40.27, 503.06, 512.34",797.71,7.47914622,34.628447,27.83653633,Passed,116.0052975,,,,,,,,,,,,,,,,,,,,,,,,,,,,,,,,,,,,,,,,,,,,,,,,,,,,,,,,,,,,,,,,,,,,,,,,,,,,,,,,,,,,,,,,,,,,,,,,,,,,,,,,,,,,,,,,,,,,,,,,,,,,,,,,,,,,,,,,,,,,,,,,,,,,,,,,,,,,,,,,,,,,,
,,20,2,${e://Field/PROLIFIC_PID,F,18,2023-11-03_15h01.43.607,MouseEye_CC,2023.2.2,MacIntel,59.84082341,1.243992664,,,1440,900,42.848,4.63,"61.96, 18.93, 511.2, 490.64, 40.27, 503.06, 512.34",797.71,7.47914622,34.628447,27.83653633,Passed,116.0052975,127.3622,127.3649,,,,,,,,,,,,,,,,,,,,,,,,,,,,,,,,,,,,,,,,,,,,,,,,,,,,,,,,,,,,,,,,,,,,,,,,,,,,,,,,,,,,,,,,,,,,,,,,,,,,,,,,,,,,,,,,,,,,,,,,,,,,,,,,,,,,,,,,,,,,,,,,,,,,,,,,,,,,,,,,,,,
,,20,2,${e://Field/PROLIFIC_PID,F,18,2023-11-03_15h01.43.607,MouseEye_CC,2023.2.2,MacIntel,59.84082341,1.28,,,1440,900,60.955999999999996,4.63,"61.96, 18.93, 511.2, 490.64, 40.27, 503.06, 512.34",797.71,10.63990938,49.26278042,27.83653633,Passed,165.0303144,,,127.365,200.1435,failed,,,,,,,,,,,,,,,,,,,,,,,,,,,,,,,,,,,,,,,,,,,,,,,,,,,,,,,,,,,,,,,,,,,,,,,,,,,,,,,,,,,,,,,,,,,,,,,,,,,,,,,,,,,,,,,,,,,,,,,,,,,,,,,,,,,,,,,,,,,,,,,,,,,,,,,,,,,,,,,,
,,20,2,${e://Field/PROLIFIC_PID,F,18,2023-11-03_15h01.43.607,MouseEye_CC,2023.2.2,MacIntel,59.84082341,1.28,,,1440,900,60.955999999999996,4.63,"61.96, 18.93, 511.2, 490.64, 40.27, 503.06, 512.34",797.71,10.63990938,49.26278042,27.83653633,Passed,165.0303144,,,,,,200.144,211.1705,,,,,,,,,,,,,,,,,,,,,,,,,,,,,,,,,,,,,,,,,,,,,,,,,,,,,,,,,,,,,,,,,,,,,,,,,,,,,,,,,,,,,,,,,,,,,,,,,,,,,,,,,,,,,,,,,,,,,,,,,,,,,,,,,,,,,,,,,,,,,,,,,,,,,,,,,,,,,,
,,20,2,${e://Field/PROLIFIC_PID,F,18,2023-11-03_15h01.43.607,MouseEye_CC,2023.2.2,MacIntel,59.84082341,1.28,,,1440,900,60.955999999999996,4.63,"61.96, 18.93, 511.2, 490.64, 40.27, 503.06, 512.34",797.71,10.63990938,49.26278042,27.83653633,Passed,165.0303144,,,,,,,,211.1884,212.1896,a,1,0.4698,,212.1899,212.6908,0,0,0,0,1,practice,1,1,0,left,a,,,,,,,,,,,,,,,,,,,,,,,,,,,,,,,,,,,,,,,,,,,,,,,,,,,,,,,,,,,,,,,,,,,,,,,,,,,,,,,,,,,,,,,,,,,,,,,,,,,,,,,,,,,,,,,,,,,,,,,,,,,,,,,,,,,,,,,,,,,
,,20,2,${e://Field/PROLIFIC_PID,F,18,2023-11-03_15h01.43.607,MouseEye_CC,2023.2.2,MacIntel,59.84082341,1.28,,,1440,900,60.955999999999996,4.63,"61.96, 18.93, 511.2, 490.64, 40.27, 503.06, 512.34",797.71,10.63990938,49.26278042,27.83653633,Passed,165.0303144,,,,,,,,212.6916,213.6588,a,1,0.4587,,213.6589,214.1623,0,1,1,1,1,practice,1,2,0,left,a,,,,,,,,,,,,,,,,,,,,,,,,,,,,,,,,,,,,,,,,,,,,,,,,,,,,,,,,,,,,,,,,,,,,,,,,,,,,,,,,,,,,,,,,,,,,,,,,,,,,,,,,,,,,,,,,,,,,,,,,,,,,,,,,,,,,,,,,,,,
,,20,2,${e://Field/PROLIFIC_PID,F,18,2023-11-03_15h01.43.607,MouseEye_CC,2023.2.2,MacIntel,59.84082341,1.28,,,1440,900,60.955999999999996,4.63,"61.96, 18.93, 511.2, 490.64, 40.27, 503.06, 512.34",797.71,10.63990938,49.26278042,27.83653633,Passed,165.0303144,,,,,,,,214.1629,215.2303,a,1,0.5412,,215.2304,215.7317,0,2,2,2,1,practice,1,3,0,left,a,,,,,,,,,,,,,,,,,,,,,,,,,,,,,,,,,,,,,,,,,,,,,,,,,,,,,,,,,,,,,,,,,,,,,,,,,,,,,,,,,,,,,,,,,,,,,,,,,,,,,,,,,,,,,,,,,,,,,,,,,,,,,,,,,,,,,,,,,,,
,,20,2,${e://Field/PROLIFIC_PID,F,18,2023-11-03_15h01.43.607,MouseEye_CC,2023.2.2,MacIntel,59.84082341,1.28,,,1440,900,60.955999999999996,4.63,"61.96, 18.93, 511.2, 490.64, 40.27, 503.06, 512.34",797.71,10.63990938,49.26278042,27.83653633,Passed,165.0303144,,,,,,,,215.7322,216.6683,s,1,0.4039,,216.6683,217.168,0,3,3,3,1,practice,1,4,180,right,s,,,,,,,,,,,,,,,,,,,,,,,,,,,,,,,,,,,,,,,,,,,,,,,,,,,,,,,,,,,,,,,,,,,,,,,,,,,,,,,,,,,,,,,,,,,,,,,,,,,,,,,,,,,,,,,,,,,,,,,,,,,,,,,,,,,,,,,,,,,
,,20,2,${e://Field/PROLIFIC_PID,F,18,2023-11-03_15h01.43.607,MouseEye_CC,2023.2.2,MacIntel,59.84082341,1.28,,,1440,900,60.955999999999996,4.63,"61.96, 18.93, 511.2, 490.64, 40.27, 503.06, 512.34",797.71,10.63990938,49.26278042,27.83653633,Passed,165.0303144,,,,,,,,217.1684,218.1881,s,1,0.5072,,218.1882,218.6912,0,4,4,4,1,practice,1,5,180,right,s,,,,,,,,,,,,,,,,,,,,,,,,,,,,,,,,,,,,,,,,,,,,,,,,,,,,,,,,,,,,,,,,,,,,,,,,,,,,,,,,,,,,,,,,,,,,,,,,,,,,,,,,,,,,,,,,,,,,,,,,,,,,,,,,,,,,,,,,,,,
,,20,2,${e://Field/PROLIFIC_PID,F,18,2023-11-03_15h01.43.607,MouseEye_CC,2023.2.2,MacIntel,59.84082341,1.28,,,1440,900,60.955999999999996,4.63,"61.96, 18.93, 511.2, 490.64, 40.27, 503.06, 512.34",797.71,10.63990938,49.26278042,27.83653633,Passed,165.0303144,,,,,,,,218.6915,219.6082,a,1,0.4012,,219.6082,220.1096,0,5,5,5,1,practice,1,6,0,left,a,,,,,,,,,,,,,,,,,,,,,,,,,,,,,,,,,,,,,,,,,,,,,,,,,,,,,,,,,,,,,,,,,,,,,,,,,,,,,,,,,,,,,,,,,,,,,,,,,,,,,,,,,,,,,,,,,,,,,,,,,,,,,,,,,,,,,,,,,,,
,,20,2,${e://Field/PROLIFIC_PID,F,18,2023-11-03_15h01.43.607,MouseEye_CC,2023.2.2,MacIntel,59.84082341,1.28,,,1440,900,60.955999999999996,4.63,"61.96, 18.93, 511.2, 490.64, 40.27, 503.06, 512.34",797.71,10.63990938,49.26278042,27.83653633,Passed,165.0303144,,,,,,,,,,,,,,,,,,,,,,,,,,,220.1108,233.9643,,,,,,,,,,,,,,,,,,,,,,,,,,,,,,,,,,,,,,,,,,,,,,,,,,,,,,,,,,,,,,,,,,,,,,,,,,,,,,,,,,,,,,,,,,,,,,,,,,,,,,,,,,,,,,,,,,,,,,,,,,,,,,,,,,,,,,,,,
,,20,2,${e://Field/PROLIFIC_PID,F,18,2023-11-03_15h01.43.607,MouseEye_CC,2023.2.2,MacIntel,59.84082341,1.28,,,1440,900,60.955999999999996,4.63,"61.96, 18.93, 511.2, 490.64, 40.27, 503.06, 512.34",797.71,10.63990938,49.26278042,27.83653633,Passed,165.0303144,,,,,,,,,,,,,,,,,,,,,,,,,,,,,233.9644,241.1346,,,,,,,,,,,,,,,,,,,,,,,,,,,,,,,,,,,,,,,,,,,,,,,,,,,,,,,,,,,,,,,,,,,,,,,,,,,,,,,,,,,,,,,,,,,,,,,,,,,,,,,,,,,,,,,,,,,,,,,,,,,,,,,,,,,,,,,
,,20,2,${e://Field/PROLIFIC_PID,F,18,2023-11-03_15h01.43.607,MouseEye_CC,2023.2.2,MacIntel,59.84082341,1.28,,,1440,900,60.955999999999996,4.63,"61.96, 18.93, 511.2, 490.64, 40.27, 503.06, 512.34",797.71,10.63990938,49.26278042,27.83653633,Passed,165.0303144,,,,,,,,,,,,,,,,,,,,,practice,0,1,0,left,a,,,,,241.159,242.3518,35.84,4.426086426,-4.007873535,1,0,0,1.1925,fixationPoint,242.3522,242.454,242.4546,244.9768,35.84,10240,616.96,a,1,2.4985,,244.9771,245.1781,0,0,0,0,1,4,sparse,90,217,-164,68,123,222,26,214,216,-218,159,-120,223,-110,82,-115,-130,-224,-120,-68,-219,79,-175,19,-128,90,270,360,90,270,270,180,90,90,90,270,,,,,,,,,,,,,,,,,,,,,,,,,,,,,,,,,,,,,,,,,,,,,,,,,,,,,,,,,,,,,,,,,,,,,
,,20,2,${e://Field/PROLIFIC_PID,F,18,2023-11-03_15h01.43.607,MouseEye_CC,2023.2.2,MacIntel,59.84082341,1.28,,,1440,900,60.955999999999996,4.63,"61.96, 18.93, 511.2, 490.64, 40.27, 503.06, 512.34",797.71,10.63990938,49.26278042,27.83653633,Passed,165.0303144,,,,,,,,,,,,,,,,,,,,,practice,0,2,0,left,a,,,,,245.1789,248.8703,35.84,0.720153809,1.872497559,1,0,0,3.6912,fixationPoint,248.8704,248.9716,248.9716,251.0265,35.84,10240,616.96,a,1,2.0467,,251.0267,251.2267,0,1,1,1,1,1,rich,39,169,66,-126,125,-169,169,-130,19,-169,-116,-125,-167,-224,-216,218,-129,171,-218,18,-208,166,26,17,170,180,90,360,270,90,90,90,270,180,180,270,,,,,,,,,,,,,,,,,,,,,,,,,,,,,,,,,,,,,,,,,,,,,,,,,,,,,,,,,,,,,,,,,,,,,
,,20,2,${e://Field/PROLIFIC_PID,F,18,2023-11-03_15h01.43.607,MouseEye_CC,2023.2.2,MacIntel,59.84082341,1.28,,,1440,900,60.955999999999996,4.63,"61.96, 18.93, 511.2, 490.64, 40.27, 503.06, 512.34",797.71,10.63990938,49.26278042,27.83653633,Passed,165.0303144,,,,,,,,,,,,,,,,,,,,,practice,0,3,0,left,a,,,,,251.2272,251.9613,35.84,5.708435059,6.120605469,1,0,0,0.7338,fixationPoint,251.9614,252.0644,252.0645,256.5927,35.84,10240,616.96,a,1,4.5141,,256.5928,256.791,0,2,2,2,1,2,sparse,22,-162,126,222,26,17,170,126,172,-25,-117,-175,-206,-224,-216,116,-19,130,-174,217,-164,-218,159,-21,162,90,90,180,360,360,270,360,360,360,360,180,,,,,,,,,,,,,,,,,,,,,,,,,,,,,,,,,,,,,,,,,,,,,,,,,,,,,,,,,,,,,,,,,,,,,
,,20,2,${e://Field/PROLIFIC_PID,F,18,2023-11-03_15h01.43.607,MouseEye_CC,2023.2.2,MacIntel,59.84082341,1.28,,,1440,900,60.955999999999996,4.63,"61.96, 18.93, 511.2, 490.64, 40.27, 503.06, 512.34",797.71,10.63990938,49.26278042,27.83653633,Passed,165.0303144,,,,,,,,,,,,,,,,,,,,,practice,0,4,180,right,s,,,,,256.7916,257.2246,35.84,3.901733398,2.765289307,1,0,0,0.4328,fixationPoint,257.2247,257.3276,257.3276,259.1132,35.84,10240,616.96,s,1,1.7696,,259.1133,259.3154,0,3,3,3,1,4,sparse,76,19,-128,159,121,214,216,219,165,-218,159,-162,126,-219,119,-169,-116,-111,-31,-175,-206,18,-208,81,-114,90,270,180,180,270,180,360,360,360,270,360,,,,,,,,,,,,,,,,,,,,,,,,,,,,,,,,,,,,,,,,,,,,,,,,,,,,,,,,,,,,,,,,,,,,,
,,20,2,${e://Field/PROLIFIC_PID,F,18,2023-11-03_15h01.43.607,MouseEye_CC,2023.2.2,MacIntel,59.84082341,1.28,,,1440,900,60.955999999999996,4.63,"61.96, 18.93, 511.2, 490.64, 40.27, 503.06, 512.34",797.71,10.63990938,49.26278042,27.83653633,Passed,165.0303144,,,,,,,,,,,,,,,,,,,,,practice,0,5,180,right,s,,,,,259.316,259.6994,35.84,3.901733398,2.765289307,1,0,0,0.3832,fixationPoint,259.6995,259.8,259.8,260.7518,35.84,10240,616.96,s,1,0.9379,,260.7519,260.9544,0,4,4,4,1,3,sparse,85,-19,-173,219,165,68,123,214,216,-160,68,-64,120,-226,34,162,-21,224,-216,167,-163,-167,-74,-224,-216,360,360,360,90,180,270,90,360,270,270,360,,,,,,,,,,,,,,,,,,,,,,,,,,,,,,,,,,,,,,,,,,,,,,,,,,,,,,,,,,,,,,,,,,,,,
,,20,2,${e://Field/PROLIFIC_PID,F,18,2023-11-03_15h01.43.607,MouseEye_CC,2023.2.2,MacIntel,59.84082341,1.28,,,1440,900,60.955999999999996,4.63,"61.96, 18.93, 511.2, 490.64, 40.27, 503.06, 512.34",797.71,10.63990938,49.26278042,27.83653633,Passed,165.0303144,,,,,,,,,,,,,,,,,,,,,practice,0,6,180,right,s,,,,,260.9551,261.2713,35.84,3.901733398,2.765289307,1,0,0,0.316,fixationPoint,261.2713,261.3713,261.3713,262.4307,35.84,10240,616.96,s,1,1.0518,,262.4309,262.6205,0,5,5,5,1,3,sparse,95,-21,-224,126,172,219,165,166,26,-166,207,-223,206,-219,119,169,-75,18,-208,224,-216,-72,-121,-115,-130,180,180,360,180,360,180,270,180,90,180,360,,,,,,,,,,,,,,,,,,,,,,,,,,,,,,,,,,,,,,,,,,,,,,,,,,,,,,,,,,,,,,,,,,,,,
,,20,2,${e://Field/PROLIFIC_PID,F,18,2023-11-03_15h01.43.607,MouseEye_CC,2023.2.2,MacIntel,59.84082341,1.28,,,1440,900,60.955999999999996,4.63,"61.96, 18.93, 511.2, 490.64, 40.27, 503.06, 512.34",797.71,10.63990938,49.26278042,27.83653633,Passed,165.0303144,,,,,,,,,,,,,,,,,,,,,practice,0,7,0,left,a,,,,,262.6215,262.9416,35.84,3.901733398,2.765289307,1,0,0,0.3199,fixationPoint,262.9421,263.0411,263.0412,267.1185,35.84,10240,616.96,a,1,4.0544,,267.1186,267.3197,0,6,6,6,1,1,rich,7,62,223,-166,207,-226,34,-162,126,-169,-116,-168,-160,-161,-27,15,-162,162,-21,79,-175,219,165,219,129,180,180,360,180,270,360,180,360,270,180,360,,,,,,,,,,,,,,,,,,,,,,,,,,,,,,,,,,,,,,,,,,,,,,,,,,,,,,,,,,,,,,,,,,,,,
,,20,2,${e://Field/PROLIFIC_PID,F,18,2023-11-03_15h01.43.607,MouseEye_CC,2023.2.2,MacIntel,59.84082341,1.28,,,1440,900,60.955999999999996,4.63,"61.96, 18.93, 511.2, 490.64, 40.27, 503.06, 512.34",797.71,10.63990938,49.26278042,27.83653633,Passed,165.0303144,,,,,,,,,,,,,,,,,,,,,practice,0,8,180,right,s,,,,,267.3203,267.6385,35.84,3.901733398,2.765289307,1,0,0,0.3181,fixationPoint,267.6387,267.7377,267.7377,268.6394,35.84,10240,616.96,s,1,0.8866,,268.6395,268.8407,0,7,7,7,1,2,sparse,24,-64,120,18,215,126,172,33,121,-206,-170,-64,-162,-218,-78,130,-174,211,-74,168,-130,-164,32,-21,162,90,180,270,360,180,90,180,180,180,360,270,,,,,,,,,,,,,,,,,,,,,,,,,,,,,,,,,,,,,,,,,,,,,,,,,,,,,,,,,,,,,,,,,,,,,
,,20,2,${e://Field/PROLIFIC_PID,F,18,2023-11-03_15h01.43.607,MouseEye_CC,2023.2.2,MacIntel,59.84082341,1.28,,,1440,900,60.955999999999996,4.63,"61.96, 18.93, 511.2, 490.64, 40.27, 503.06, 512.34",797.71,10.63990938,49.26278042,27.83653633,Passed,165.0303144,,,,,,,,,,,,,,,,,,,,,practice,0,9,180,right,s,,,,,268.841,269.1576,35.84,3.901733398,2.765289307,1,0,0,0.3166,fixationPoint,269.1577,269.2589,269.259,271.2968,35.84,10240,616.96,s,1,2.0219,,271.297,271.498,0,8,8,8,1,3,sparse,85,-19,-173,127,30,62,223,217,67,-110,82,-21,162,-80,218,167,-163,126,-79,130,-174,-125,-167,-68,-219,360,360,360,180,360,360,180,270,90,360,180,,,,,,,,,,,,,,,,,,,,,,,,,,,,,,,,,,,,,,,,,,,,,,,,,,,,,,,,,,,,,,,,,,,,,
,,20,2,${e://Field/PROLIFIC_PID,F,18,2023-11-03_15h01.43.607,MouseEye_CC,2023.2.2,MacIntel,59.84082341,1.28,,,1440,900,60.955999999999996,4.63,"61.96, 18.93, 511.2, 490.64, 40.27, 503.06, 512.34",797.71,10.63990938,49.26278042,27.83653633,Passed,165.0303144,,,,,,,,,,,,,,,,,,,,,practice,0,10,180,right,s,,,,,271.4987,271.6806,35.84,3.901733398,2.765289307,1,0,0,0.1815,fixationPoint,271.6807,271.7833,271.7833,274.3707,35.84,10240,616.96,s,1,2.5705,,274.3709,274.5717,0,9,9,9,1,1,rich,9,160,209,-166,207,-226,34,-120,223,-224,-120,-118,-217,-218,-78,112,-209,126,-113,169,-75,178,160,110,129,180,90,90,270,360,270,360,180,360,180,360,,,,,,,,,,,,,,,,,,,,,,,,,,,,,,,,,,,,,,,,,,,,,,,,,,,,,,,,,,,,,,,,,,,,,
,,20,2,${e://Field/PROLIFIC_PID,F,18,2023-11-03_15h01.43.607,MouseEye_CC,2023.2.2,MacIntel,59.84082341,1.28,,,1440,900,60.955999999999996,4.63,"61.96, 18.93, 511.2, 490.64, 40.27, 503.06, 512.34",797.71,10.63990938,49.26278042,27.83653633,Passed,165.0303144,,,,,,,,,,,,,,,,,,,,,practice,0,11,180,right,s,,,,,274.5722,274.9238,35.84,3.901733398,2.765289307,1,0,0,0.3512,fixationPoint,274.9239,275.0242,275.0242,276.9978,35.84,10240,616.96,s,1,1.9611,,276.9978,277.1955,0,10,10,10,1,4,sparse,80,218,-129,62,223,159,121,110,129,-218,159,-223,206,-75,173,-169,-116,-118,-217,-125,-167,217,-164,169,-75,360,270,360,180,360,180,180,270,360,180,90,,,,,,,,,,,,,,,,,,,,,,,,,,,,,,,,,,,,,,,,,,,,,,,,,,,,,,,,,,,,,,,,,,,,,
,,20,2,${e://Field/PROLIFIC_PID,F,18,2023-11-03_15h01.43.607,MouseEye_CC,2023.2.2,MacIntel,59.84082341,1.28,,,1440,900,60.955999999999996,4.63,"61.96, 18.93, 511.2, 490.64, 40.27, 503.06, 512.34",797.71,10.63990938,49.26278042,27.83653633,Passed,165.0303144,,,,,,,,,,,,,,,,,,,,,practice,0,12,0,left,a,,,,,277.1961,277.5303,35.84,3.901733398,2.765289307,1,0,0,0.334,fixationPoint,277.5304,277.6311,277.6311,279.1345,35.84,10240,616.96,a,1,1.4937,,279.1345,279.3351,0,11,11,11,1,3,sparse,75,-25,-117,110,129,125,63,214,216,-164,32,-27,117,-126,125,171,-218,126,-113,167,-163,-21,-224,-212,-21,270,180,180,360,180,270,360,270,360,180,270,,,,,,,,,,,,,,,,,,,,,,,,,,,,,,,,,,,,,,,,,,,,,,,,,,,,,,,,,,,,,,,,,,,,,
,,20,2,${e://Field/PROLIFIC_PID,F,18,2023-11-03_15h01.43.607,MouseEye_CC,2023.2.2,MacIntel,59.84082341,1.28,,,1440,900,60.955999999999996,4.63,"61.96, 18.93, 511.2, 490.64, 40.27, 503.06, 512.34",797.71,10.63990938,49.26278042,27.83653633,Passed,165.0303144,,,,,,,,,,,,,,,,,,,,,,,,,,,,,,,,,,,,,,,,,,,,,,,,,,,,,,,,,,,,,,,,,,,,,,,,,,,,,,,,,,,,,,,,,,,,,,,,,279.3368,285.2514,a,1,5.8999,,,,,,,,,,,,,,,,,,,,,,,,,,,,,,,,,,,,,,,,,,,,,,,,,,,,,,,,,,,,,,,,
,,20,2,${e://Field/PROLIFIC_PID,F,18,2023-11-03_15h01.43.607,MouseEye_CC,2023.2.2,MacIntel,59.84082341,1.28,,,1440,900,60.955999999999996,4.63,"61.96, 18.93, 511.2, 490.64, 40.27, 503.06, 512.34",797.71,10.63990938,49.26278042,27.83653633,Passed,165.0303144,,,,,,,,,,,,,,,,,,,,,,,,,,,,,,,,,,,,,,,,,,,,,,,,,,,,,,,,,,,,,,,,,,,,,,,,,,,,,,,,,,,,,,,,,,,,,,,,,,,,,,,285.2516,287.4885,,,,,,,,,,,,,,,,,,,,,,,,,,,,,,,,,,,,,,,,,,,,,,,,,,,,,,,,,,,,,
,,20,2,${e://Field/PROLIFIC_PID,F,18,2023-11-03_15h01.43.607,MouseEye_CC,2023.2.2,MacIntel,59.84082341,1.28,,,1440,900,60.955999999999996,4.63,"61.96, 18.93, 511.2, 490.64, 40.27, 503.06, 512.34",797.71,10.63990938,49.26278042,27.83653633,Passed,165.0303144,,,,,,,,,,,,,,,,,,,,,,,,,,,,,,,,,,,,,,,,,,,,,,,,,,,,,,,,,,,,,,,,,,,,,,,,,,,,,,,,,,,,,,,,,,,,,,,,,,,,,,,,,287.4887,296.616,,,,,,,,,,,,,,,,,,,,,,,,,,,,,,,,,,,,,,,,,,,,,,,,,,,,,,,,,,,
,,20,2,${e://Field/PROLIFIC_PID,F,18,2023-11-03_15h01.43.607,MouseEye_CC,2023.2.2,MacIntel,59.84082341,1.28,,,1440,900,60.955999999999996,4.63,"61.96, 18.93, 511.2, 490.64, 40.27, 503.06, 512.34",797.71,10.63990938,49.26278042,27.83653633,Passed,165.0303144,,,,,,,,,,,,,,,,,,,,,training,1,1,0,left,a,,,,,296.7444,297.7015,35.84,4.06451416,-9.061523438,1,0,0,0.9568,fixationPoint,297.7016,297.8007,297.8008,301.9792,35.84,10240,616.96,a,1,4.1659,,301.9793,302.1799,,,,,,,,52,-172,-25,176,169,28,125,218,208,-16,168,-128,119,-27,209,174,-28,73,-168,67,-216,-28,-23,-70,-128,270,180,270,270,270,90,270,90,360,90,270,,,,,,,,,,,302.1833,302.1899,,0,0,0,0,1,9,novel,,,,,,,,,,,,,,,,,,,,,,,,,,,,,,,,,,,,,,,,,,,,,,,,,
,,20,2,${e://Field/PROLIFIC_PID,F,18,2023-11-03_15h01.43.607,MouseEye_CC,2023.2.2,MacIntel,59.84082341,1.28,,,1440,900,60.955999999999996,4.63,"61.96, 18.93, 511.2, 490.64, 40.27, 503.06, 512.34",797.71,10.63990938,49.26278042,27.83653633,Passed,165.0303144,,,,,,,,,,,,,,,,,,,,,training,1,2,180,right,s,,,,,302.1906,303.0497,35.84,-2.323425293,-4.420288086,1,0,0,0.859,fixationPoint,303.0498,303.1488,303.1488,305.6877,35.84,10240,616.96,s,1,2.531,,305.6877,305.8897,,,,,,,,23,-128,119,218,208,126,215,160,17,-172,-25,-69,-174,-70,-128,27,-28,121,-163,24,-171,-113,169,-67,174,360,90,360,360,360,180,180,90,360,270,180,,,,,,,,,,,305.8897,305.89,,0,1,1,1,1,15,novel,,,,,,,,,,,,,,,,,,,,,,,,,,,,,,,,,,,,,,,,,,,,,,,,,
,,20,2,${e://Field/PROLIFIC_PID,F,18,2023-11-03_15h01.43.607,MouseEye_CC,2023.2.2,MacIntel,59.84082341,1.28,,,1440,900,60.955999999999996,4.63,"61.96, 18.93, 511.2, 490.64, 40.27, 503.06, 512.34",797.71,10.63990938,49.26278042,27.83653633,Passed,165.0303144,,,,,,,,,,,,,,,,,,,,,training,1,3,180,right,s,,,,,305.8906,306.1077,35.84,-2.323425293,-4.420288086,1,0,0,0.2168,fixationPoint,306.1077,306.2055,306.2055,308.0293,35.84,10240,616.96,s,1,1.8129,,308.0293,308.2292,,,,,,,,16,23,172,-224,220,-128,215,-73,208,-72,-29,-112,-219,-120,-20,80,-30,68,-79,164,-128,77,220,176,169,270,180,360,180,90,90,90,360,270,90,360,,,,,,,,,,,308.2293,308.2295,,0,2,2,2,1,13,novel,,,,,,,,,,,,,,,,,,,,,,,,,,,,,,,,,,,,,,,,,,,,,,,,,
,,20,2,${e://Field/PROLIFIC_PID,F,18,2023-11-03_15h01.43.607,MouseEye_CC,2023.2.2,MacIntel,59.84082341,1.28,,,1440,900,60.955999999999996,4.63,"61.96, 18.93, 511.2, 490.64, 40.27, 503.06, 512.34",797.71,10.63990938,49.26278042,27.83653633,Passed,165.0303144,,,,,,,,,,,,,,,,,,,,,training,1,4,0,left,a,,,,,308.2301,308.3798,35.84,-2.323425293,-4.420288086,1,0,0,0.1495,fixationPoint,308.3798,308.478,308.4781,310.1155,35.84,10240,616.96,a,1,1.6276,,310.1156,310.3188,,,,,,,,49,160,17,-27,209,-216,168,-224,220,-30,-160,-172,-25,-169,-70,166,-160,116,-19,17,-72,212,166,176,169,180,270,360,270,180,90,360,180,270,270,270,,,,,,,,,,,310.3189,310.3191,,0,3,3,3,1,1,repeated,,,,,,,,,,,,,,,,,,,,,,,,,,,,,,,,,,,,,,,,,,,,,,,,,
,,20,2,${e://Field/PROLIFIC_PID,F,18,2023-11-03_15h01.43.607,MouseEye_CC,2023.2.2,MacIntel,59.84082341,1.28,,,1440,900,60.955999999999996,4.63,"61.96, 18.93, 511.2, 490.64, 40.27, 503.06, 512.34",797.71,10.63990938,49.26278042,27.83653633,Passed,165.0303144,,,,,,,,,,,,,,,,,,,,,training,1,5,180,right,s,,,,,310.3198,310.4178,35.84,-2.323425293,-4.420288086,1,0,0,0.098,fixationPoint,310.4179,310.5171,310.5172,312.1563,35.84,10240,616.96,s,1,1.627,,312.1564,312.3584,,,,,,,,32,-176,74,17,74,124,168,113,67,-70,-128,-72,-29,-209,-208,17,-72,167,-216,80,-30,-165,223,-78,20,180,90,360,270,180,360,270,90,90,270,270,,,,,,,,,,,312.3585,312.3587,,0,4,4,4,1,3,repeated,,,,,,,,,,,,,,,,,,,,,,,,,,,,,,,,,,,,,,,,,,,,,,,,,
,,20,2,${e://Field/PROLIFIC_PID,F,18,2023-11-03_15h01.43.607,MouseEye_CC,2023.2.2,MacIntel,59.84082341,1.28,,,1440,900,60.955999999999996,4.63,"61.96, 18.93, 511.2, 490.64, 40.27, 503.06, 512.34",797.71,10.63990938,49.26278042,27.83653633,Passed,165.0303144,,,,,,,,,,,,,,,,,,,,,training,1,6,180,right,s,,,,,312.3593,312.5072,35.84,-2.323425293,-4.420288086,1,0,0,0.1478,fixationPoint,312.5073,312.6062,312.6086,315.0464,35.84,10240,616.96,s,1,2.4276,,315.0465,315.2465,,,,,,,,75,-27,-120,218,208,172,223,217,70,-216,29,-21,24,-161,172,118,-114,68,-79,121,-163,-72,-29,-114,-171,270,270,270,180,270,360,180,180,180,270,270,,,,,,,,,,,315.2466,315.2469,,0,5,5,5,1,6,repeated,,,,,,,,,,,,,,,,,,,,,,,,,,,,,,,,,,,,,,,,,,,,,,,,,
,,20,2,${e://Field/PROLIFIC_PID,F,18,2023-11-03_15h01.43.607,MouseEye_CC,2023.2.2,MacIntel,59.84082341,1.28,,,1440,900,60.955999999999996,4.63,"61.96, 18.93, 511.2, 490.64, 40.27, 503.06, 512.34",797.71,10.63990938,49.26278042,27.83653633,Passed,165.0303144,,,,,,,,,,,,,,,,,,,,,training,1,7,0,left,a,,,,,315.2474,315.3981,35.84,-2.323425293,-4.420288086,1,0,0,0.1507,fixationPoint,315.3983,315.499,315.499,316.7029,35.84,10240,616.96,a,1,1.1861,,316.703,316.9017,,,,,,,,68,124,-80,220,116,160,17,172,223,-165,32,-32,67,-216,75,-120,-122,-169,-70,-167,-126,17,-72,174,-78,360,180,270,360,360,360,270,360,360,90,270,,,,,,,,,,,316.9018,316.902,,0,6,6,6,1,12,novel,,,,,,,,,,,,,,,,,,,,,,,,,,,,,,,,,,,,,,,,,,,,,,,,,
,,20,2,${e://Field/PROLIFIC_PID,F,18,2023-11-03_15h01.43.607,MouseEye_CC,2023.2.2,MacIntel,59.84082341,1.28,,,1440,900,60.955999999999996,4.63,"61.96, 18.93, 511.2, 490.64, 40.27, 503.06, 512.34",797.71,10.63990938,49.26278042,27.83653633,Passed,165.0303144,,,,,,,,,,,,,,,,,,,,,training,1,8,0,left,a,,,,,316.9027,317.1198,35.84,-2.323425293,-4.420288086,1,0,0,0.2168,fixationPoint,317.1199,317.2191,317.2191,320.778,35.84,10240,616.96,a,1,3.5483,,320.7781,320.9786,,,,,,,,3,-128,215,68,161,126,215,17,74,-120,-122,-209,-208,-112,-219,70,-118,20,-117,174,-28,-16,168,-216,29,360,180,180,270,180,270,90,360,90,360,90,,,,,,,,,,,320.9786,320.9792,,0,7,7,7,1,16,novel,,,,,,,,,,,,,,,,,,,,,,,,,,,,,,,,,,,,,,,,,,,,,,,,,
,,20,2,${e://Field/PROLIFIC_PID,F,18,2023-11-03_15h01.43.607,MouseEye_CC,2023.2.2,MacIntel,59.84082341,1.28,,,1440,900,60.955999999999996,4.63,"61.96, 18.93, 511.2, 490.64, 40.27, 503.06, 512.34",797.71,10.63990938,49.26278042,27.83653633,Passed,165.0303144,,,,,,,,,,,,,,,,,,,,,training,1,9,0,left,a,,,,,320.9802,321.1628,35.84,-2.323425293,-4.420288086,1,0,0,0.1822,fixationPoint,321.163,321.2657,321.2657,324.106,35.84,10240,616.96,a,1,2.8206,,324.1061,324.3087,,,,,,,,98,125,-212,65,112,28,125,28,208,-216,75,-32,67,-216,29,-216,-17,-68,-213,-70,-128,118,-114,212,-76,360,180,90,360,90,270,180,360,360,360,270,,,,,,,,,,,324.3088,324.309,,0,8,8,8,1,8,repeated,,,,,,,,,,,,,,,,,,,,,,,,,,,,,,,,,,,,,,,,,,,,,,,,,
,,20,2,${e://Field/PROLIFIC_PID,F,18,2023-11-03_15h01.43.607,MouseEye_CC,2023.2.2,MacIntel,59.84082341,1.28,,,1440,900,60.955999999999996,4.63,"61.96, 18.93, 511.2, 490.64, 40.27, 503.06, 512.34",797.71,10.63990938,49.26278042,27.83653633,Passed,165.0303144,,,,,,,,,,,,,,,,,,,,,training,1,10,180,right,s,,,,,324.3095,324.4714,35.84,-2.323425293,-4.420288086,1,0,0,0.1619,fixationPoint,324.4715,324.5713,324.5713,327.833,35.84,10240,616.96,s,1,3.2441,,327.8331,328.0338,,,,,,,,33,-125,65,212,166,176,169,65,112,-27,-120,-30,-160,-19,-219,17,-72,125,-212,167,-216,-16,168,-27,209,360,90,270,360,360,180,180,270,360,180,360,,,,,,,,,,,328.034,328.0342,,0,9,9,9,1,4,repeated,,,,,,,,,,,,,,,,,,,,,,,,,,,,,,,,,,,,,,,,,,,,,,,,,
,,20,2,${e://Field/PROLIFIC_PID,F,18,2023-11-03_15h01.43.607,MouseEye_CC,2023.2.2,MacIntel,59.84082341,1.28,,,1440,900,60.955999999999996,4.63,"61.96, 18.93, 511.2, 490.64, 40.27, 503.06, 512.34",797.71,10.63990938,49.26278042,27.83653633,Passed,165.0303144,,,,,,,,,,,,,,,,,,,,,training,1,11,180,right,s,,,,,328.035,328.1985,35.84,-2.323425293,-4.420288086,1,0,0,0.1633,fixationPoint,328.1986,328.3004,328.3005,329.3538,35.84,10240,616.96,s,1,1.0425,,329.3538,329.5542,,,,,,,,85,-30,-160,223,16,160,17,120,28,-68,73,-118,29,-125,65,164,-128,167,-216,70,-118,-72,-29,-216,-17,270,360,360,90,270,270,90,180,180,360,270,,,,,,,,,,,329.5542,329.5546,,0,10,10,10,1,5,repeated,,,,,,,,,,,,,,,,,,,,,,,,,,,,,,,,,,,,,,,,,,,,,,,,,
,,20,2,${e://Field/PROLIFIC_PID,F,18,2023-11-03_15h01.43.607,MouseEye_CC,2023.2.2,MacIntel,59.84082341,1.28,,,1440,900,60.955999999999996,4.63,"61.96, 18.93, 511.2, 490.64, 40.27, 503.06, 512.34",797.71,10.63990938,49.26278042,27.83653633,Passed,165.0303144,,,,,,,,,,,,,,,,,,,,,training,1,12,180,right,s,,,,,329.5553,329.7359,35.84,-2.323425293,-4.420288086,1,0,0,0.1804,fixationPoint,329.736,329.8356,329.8356,331.3436,35.84,10240,616.96,s,1,1.4957,,331.3438,331.5421,,,,,,,,39,165,68,-165,223,-27,209,-125,65,-112,-219,-128,-80,-224,-172,213,-25,67,-216,17,-72,17,74,212,166,360,90,270,90,90,90,360,180,360,360,90,,,,,,,,,,,331.5423,331.5427,,0,11,11,11,1,2,repeated,,,,,,,,,,,,,,,,,,,,,,,,,,,,,,,,,,,,,,,,,,,,,,,,,
,,20,2,${e://Field/PROLIFIC_PID,F,18,2023-11-03_15h01.43.607,MouseEye_CC,2023.2.2,MacIntel,59.84082341,1.28,,,1440,900,60.955999999999996,4.63,"61.96, 18.93, 511.2, 490.64, 40.27, 503.06, 512.34",797.71,10.63990938,49.26278042,27.83653633,Passed,165.0303144,,,,,,,,,,,,,,,,,,,,,training,1,13,0,left,a,,,,,331.5433,331.7246,35.84,-2.323425293,-4.420288086,1,0,0,0.1811,fixationPoint,331.7246,331.8267,331.8267,333.097,35.84,10240,616.96,a,1,1.2545,,333.0971,333.2955,,,,,,,,78,118,-114,220,116,17,74,165,118,-67,174,-216,29,-113,169,-19,-219,-224,-172,-209,-65,212,-76,80,-30,90,360,180,180,180,180,180,90,90,360,270,,,,,,,,,,,333.2956,333.2958,,0,12,12,12,1,7,repeated,,,,,,,,,,,,,,,,,,,,,,,,,,,,,,,,,,,,,,,,,,,,,,,,,
,,20,2,${e://Field/PROLIFIC_PID,F,18,2023-11-03_15h01.43.607,MouseEye_CC,2023.2.2,MacIntel,59.84082341,1.28,,,1440,900,60.955999999999996,4.63,"61.96, 18.93, 511.2, 490.64, 40.27, 503.06, 512.34",797.71,10.63990938,49.26278042,27.83653633,Passed,165.0303144,,,,,,,,,,,,,,,,,,,,,training,1,14,0,left,a,,,,,333.2966,333.463,35.84,-2.323425293,-4.420288086,1,0,0,0.1662,fixationPoint,333.463,333.5618,333.562,334.6655,35.84,10240,616.96,a,1,1.0876,,334.6657,334.8683,,,,,,,,69,174,-78,80,64,19,31,176,169,-32,67,-16,168,-216,168,-216,-17,-167,-126,-169,-70,121,-163,167,-216,90,360,180,360,360,360,180,360,360,360,270,,,,,,,,,,,334.8684,334.8687,,0,13,13,13,1,11,novel,,,,,,,,,,,,,,,,,,,,,,,,,,,,,,,,,,,,,,,,,,,,,,,,,
,,20,2,${e://Field/PROLIFIC_PID,F,18,2023-11-03_15h01.43.607,MouseEye_CC,2023.2.2,MacIntel,59.84082341,1.28,,,1440,900,60.955999999999996,4.63,"61.96, 18.93, 511.2, 490.64, 40.27, 503.06, 512.34",797.71,10.63990938,49.26278042,27.83653633,Passed,165.0303144,,,,,,,,,,,,,,,,,,,,,training,1,15,180,right,s,,,,,334.87,335.0658,35.84,-2.323425293,-4.420288086,1,0,0,0.1955,fixationPoint,335.0658,335.1686,335.1687,336.471,35.84,10240,616.96,s,1,1.2869,,336.4711,336.6732,,,,,,,,62,-169,-70,65,112,28,208,165,118,-16,168,-221,115,-166,126,166,-160,213,-25,174,-78,-30,-160,-209,-65,270,270,90,270,180,270,90,360,180,180,180,,,,,,,,,,,336.6733,336.6734,,0,14,14,14,1,10,novel,,,,,,,,,,,,,,,,,,,,,,,,,,,,,,,,,,,,,,,,,,,,,,,,,
,,20,2,${e://Field/PROLIFIC_PID,F,18,2023-11-03_15h01.43.607,MouseEye_CC,2023.2.2,MacIntel,59.84082341,1.28,,,1440,900,60.955999999999996,4.63,"61.96, 18.93, 511.2, 490.64, 40.27, 503.06, 512.34",797.71,10.63990938,49.26278042,27.83653633,Passed,165.0303144,,,,,,,,,,,,,,,,,,,,,training,1,16,0,left,a,,,,,336.6763,336.7884,35.84,-2.323425293,-4.420288086,1,0,0,0.1118,fixationPoint,336.7885,336.8888,336.8889,339.0603,35.84,10240,616.96,a,1,2.1629,,339.0605,339.2628,,,,,,,,26,28,125,-78,114,-68,73,-166,126,-30,-69,-209,-208,-30,-160,166,-160,73,-168,80,-30,217,70,17,74,90,360,270,90,270,90,90,270,180,360,360,,,,,,,,,,,339.2628,344.9947,space,0,15,15,15,1,14,novel,5.7068,,,,,,,,,,,,,,,,,,,,,,,,,,,,,,,,,,,,,,,,,,,,,,,,
,,20,2,${e://Field/PROLIFIC_PID,F,18,2023-11-03_15h01.43.607,MouseEye_CC,2023.2.2,MacIntel,59.84082341,1.28,,,1440,900,60.955999999999996,4.63,"61.96, 18.93, 511.2, 490.64, 40.27, 503.06, 512.34",797.71,10.63990938,49.26278042,27.83653633,Passed,165.0303144,,,,,,,,,,,,,,,,,,,,,training,2,1,0,left,a,,,,,345.0072,346.2626,35.84,-7.385498047,-7.746276855,1,0,0,1.2552,fixationPoint,346.2626,346.3647,346.3648,348.4869,35.84,10240,616.96,a,1,2.1056,,348.487,348.689,,,,,,,,32,-176,74,17,74,124,168,113,67,-70,-128,-72,-29,-209,-208,17,-72,167,-216,80,-30,-165,223,-78,20,270,90,270,90,90,180,180,90,360,360,270,,,,,,,,,,,348.689,348.6928,,0,16,16,16,1,3,repeated,,,,,,,,,,,,,,,,,,,,,,,,,,,,,,,,,,,,,,,,,,,,,,,,,
,,20,2,${e://Field/PROLIFIC_PID,F,18,2023-11-03_15h01.43.607,MouseEye_CC,2023.2.2,MacIntel,59.84082341,1.28,,,1440,900,60.955999999999996,4.63,"61.96, 18.93, 511.2, 490.64, 40.27, 503.06, 512.34",797.71,10.63990938,49.26278042,27.83653633,Passed,165.0303144,,,,,,,,,,,,,,,,,,,,,training,2,2,180,right,s,,,,,348.6936,348.8725,35.84,-7.385498047,-7.746276855,1,0,0,0.1787,fixationPoint,348.8727,348.9742,348.9742,350.893,35.84,10240,616.96,s,1,1.9063,,350.893,351.1036,,,,,,,,98,125,-212,65,112,28,125,28,208,-216,75,-32,67,-216,29,-216,-17,-68,-213,-70,-128,118,-114,212,-76,360,270,360,270,180,90,180,180,90,270,90,,,,,,,,,,,351.1036,351.1037,,0,17,17,17,1,8,repeated,,,,,,,,,,,,,,,,,,,,,,,,,,,,,,,,,,,,,,,,,,,,,,,,,
,,20,2,${e://Field/PROLIFIC_PID,F,18,2023-11-03_15h01.43.607,MouseEye_CC,2023.2.2,MacIntel,59.84082341,1.28,,,1440,900,60.955999999999996,4.63,"61.96, 18.93, 511.2, 490.64, 40.27, 503.06, 512.34",797.71,10.63990938,49.26278042,27.83653633,Passed,165.0303144,,,,,,,,,,,,,,,,,,,,,training,2,3,180,right,s,,,,,351.1042,351.5633,35.84,-6.543884277,3.598175049,1,0,0,0.459,fixationPoint,351.5633,351.6624,351.6624,354.269,35.84,10240,616.96,s,1,2.59,,354.2691,354.4708,,,,,,,,16,23,172,-32,67,-224,220,-161,172,-224,-172,-27,-120,-167,-126,68,-79,118,-114,174,-78,65,112,165,118,180,90,360,180,270,180,90,270,180,270,180,,,,,,,,,,,354.4709,354.4711,,0,18,18,18,1,13,novel,,,,,,,,,,,,,,,,,,,,,,,,,,,,,,,,,,,,,,,,,,,,,,,,,
,,20,2,${e://Field/PROLIFIC_PID,F,18,2023-11-03_15h01.43.607,MouseEye_CC,2023.2.2,MacIntel,59.84082341,1.28,,,1440,900,60.955999999999996,4.63,"61.96, 18.93, 511.2, 490.64, 40.27, 503.06, 512.34",797.71,10.63990938,49.26278042,27.83653633,Passed,165.0303144,,,,,,,,,,,,,,,,,,,,,training,2,4,180,right,s,,,,,354.4719,354.6356,35.84,-6.543884277,3.598175049,1,0,0,0.1632,fixationPoint,354.6358,354.7235,354.7235,356.0247,35.84,10240,616.96,s,1,1.2894,,356.0247,356.2252,,,,,,,,62,-169,-70,160,17,17,74,223,16,-161,172,-68,73,-165,32,212,-212,27,-28,167,-216,-68,-70,-216,-17,270,180,270,180,360,270,360,90,90,360,270,,,,,,,,,,,356.2253,356.2255,,0,19,19,19,1,10,novel,,,,,,,,,,,,,,,,,,,,,,,,,,,,,,,,,,,,,,,,,,,,,,,,,
,,20,2,${e://Field/PROLIFIC_PID,F,18,2023-11-03_15h01.43.607,MouseEye_CC,2023.2.2,MacIntel,59.84082341,1.28,,,1440,900,60.955999999999996,4.63,"61.96, 18.93, 511.2, 490.64, 40.27, 503.06, 512.34",797.71,10.63990938,49.26278042,27.83653633,Passed,165.0303144,,,,,,,,,,,,,,,,,,,,,training,2,5,0,left,a,,,,,356.2263,356.3905,35.84,-6.543884277,3.598175049,1,0,0,0.1641,fixationPoint,356.3906,356.4919,356.492,359.4503,35.84,10240,616.96,a,1,2.946,,359.4504,359.649,,,,,,,,3,-128,215,160,17,120,28,176,169,-209,-208,-167,-126,-72,-29,68,-79,24,-171,25,-220,-73,208,-16,168,90,180,90,360,90,180,360,270,360,360,360,,,,,,,,,,,359.649,359.6493,,0,20,20,20,1,16,novel,,,,,,,,,,,,,,,,,,,,,,,,,,,,,,,,,,,,,,,,,,,,,,,,,
,,20,2,${e://Field/PROLIFIC_PID,F,18,2023-11-03_15h01.43.607,MouseEye_CC,2023.2.2,MacIntel,59.84082341,1.28,,,1440,900,60.955999999999996,4.63,"61.96, 18.93, 511.2, 490.64, 40.27, 503.06, 512.34",797.71,10.63990938,49.26278042,27.83653633,Passed,165.0303144,,,,,,,,,,,,,,,,,,,,,training,2,6,180,right,s,,,,,359.6501,359.7016,35.84,-6.543884277,3.598175049,1,0,0,0.0514,fixationPoint,359.7017,359.8,359.8001,360.7356,35.84,10240,616.96,s,1,0.9225,,360.7357,360.9358,,,,,,,,52,-172,-25,165,118,77,220,220,116,-29,115,-32,67,-216,29,213,-25,118,-114,121,-163,-120,-20,-68,-70,270,90,270,90,180,90,270,90,180,90,360,,,,,,,,,,,360.9358,360.9363,,0,21,21,21,1,9,novel,,,,,,,,,,,,,,,,,,,,,,,,,,,,,,,,,,,,,,,,,,,,,,,,,
,,20,2,${e://Field/PROLIFIC_PID,F,18,2023-11-03_15h01.43.607,MouseEye_CC,2023.2.2,MacIntel,59.84082341,1.28,,,1440,900,60.955999999999996,4.63,"61.96, 18.93, 511.2, 490.64, 40.27, 503.06, 512.34",797.71,10.63990938,49.26278042,27.83653633,Passed,165.0303144,,,,,,,,,,,,,,,,,,,,,training,2,7,0,left,a,,,,,360.9378,361.1051,35.84,-6.543884277,3.598175049,1,0,0,0.1672,fixationPoint,361.1051,361.2055,361.2056,363.2604,35.84,10240,616.96,a,1,2.0421,,363.2606,363.4615,,,,,,,,26,28,125,-27,209,-166,126,-78,20,-224,-172,-30,-160,-30,-69,80,-30,174,-78,166,-160,165,118,76,22,270,180,90,360,90,180,360,360,180,90,270,,,,,,,,,,,363.4615,363.4618,,0,22,22,22,1,14,novel,,,,,,,,,,,,,,,,,,,,,,,,,,,,,,,,,,,,,,,,,,,,,,,,,
,,20,2,${e://Field/PROLIFIC_PID,F,18,2023-11-03_15h01.43.607,MouseEye_CC,2023.2.2,MacIntel,59.84082341,1.28,,,1440,900,60.955999999999996,4.63,"61.96, 18.93, 511.2, 490.64, 40.27, 503.06, 512.34",797.71,10.63990938,49.26278042,27.83653633,Passed,165.0303144,,,,,,,,,,,,,,,,,,,,,training,2,8,0,left,a,,,,,363.4625,363.578,35.84,-6.543884277,3.598175049,1,0,0,0.1153,fixationPoint,363.5781,363.6781,363.6782,365.7161,35.84,10240,616.96,a,1,2.021,,365.7162,365.9179,,,,,,,,49,160,17,-27,209,-216,168,-224,220,-30,-160,-172,-25,-169,-70,166,-160,116,-19,17,-72,212,166,176,169,90,90,270,180,180,270,90,270,360,270,90,,,,,,,,,,,365.9181,365.9184,,0,23,23,23,1,1,repeated,,,,,,,,,,,,,,,,,,,,,,,,,,,,,,,,,,,,,,,,,,,,,,,,,
,,20,2,${e://Field/PROLIFIC_PID,F,18,2023-11-03_15h01.43.607,MouseEye_CC,2023.2.2,MacIntel,59.84082341,1.28,,,1440,900,60.955999999999996,4.63,"61.96, 18.93, 511.2, 490.64, 40.27, 503.06, 512.34",797.71,10.63990938,49.26278042,27.83653633,Passed,165.0303144,,,,,,,,,,,,,,,,,,,,,training,2,9,0,left,a,,,,,365.9191,366.0991,35.84,-6.543884277,3.598175049,1,0,0,0.1796,fixationPoint,366.0992,366.203,366.203,368.4074,35.84,10240,616.96,a,1,2.1927,,368.4076,368.6089,,,,,,,,78,118,-114,220,116,17,74,165,118,-67,174,-216,29,-113,169,-19,-219,-224,-172,-209,-65,212,-76,80,-30,270,360,270,180,270,270,90,90,360,360,360,,,,,,,,,,,368.609,368.6092,,0,24,24,24,1,7,repeated,,,,,,,,,,,,,,,,,,,,,,,,,,,,,,,,,,,,,,,,,,,,,,,,,
,,20,2,${e://Field/PROLIFIC_PID,F,18,2023-11-03_15h01.43.607,MouseEye_CC,2023.2.2,MacIntel,59.84082341,1.28,,,1440,900,60.955999999999996,4.63,"61.96, 18.93, 511.2, 490.64, 40.27, 503.06, 512.34",797.71,10.63990938,49.26278042,27.83653633,Passed,165.0303144,,,,,,,,,,,,,,,,,,,,,training,2,10,0,left,a,,,,,368.6102,368.7232,35.84,-6.543884277,3.598175049,1,0,0,0.1127,fixationPoint,368.7232,368.8241,368.8242,371.3472,35.84,10240,616.96,a,1,2.5094,,371.3474,371.55,,,,,,,,33,-125,65,212,166,176,169,65,112,-27,-120,-30,-160,-19,-219,17,-72,125,-212,167,-216,-16,168,-27,209,90,90,270,360,180,360,180,270,360,180,90,,,,,,,,,,,371.55,371.5503,,0,25,25,25,1,4,repeated,,,,,,,,,,,,,,,,,,,,,,,,,,,,,,,,,,,,,,,,,,,,,,,,,
,,20,2,${e://Field/PROLIFIC_PID,F,18,2023-11-03_15h01.43.607,MouseEye_CC,2023.2.2,MacIntel,59.84082341,1.28,,,1440,900,60.955999999999996,4.63,"61.96, 18.93, 511.2, 490.64, 40.27, 503.06, 512.34",797.71,10.63990938,49.26278042,27.83653633,Passed,165.0303144,,,,,,,,,,,,,,,,,,,,,training,2,11,180,right,s,,,,,371.5538,371.6825,35.84,-6.543884277,3.598175049,1,0,0,0.1286,fixationPoint,371.6825,371.7818,371.7819,374.4397,35.84,10240,616.96,s,1,2.6472,,374.4398,374.6386,,,,,,,,23,-128,119,220,116,119,117,120,28,-224,-172,-120,-122,-209,-65,118,-114,24,-171,166,-160,-165,32,-125,65,180,180,90,270,360,180,360,180,90,270,270,,,,,,,,,,,374.6386,374.6389,,0,26,26,26,1,15,novel,,,,,,,,,,,,,,,,,,,,,,,,,,,,,,,,,,,,,,,,,,,,,,,,,
,,20,2,${e://Field/PROLIFIC_PID,F,18,2023-11-03_15h01.43.607,MouseEye_CC,2023.2.2,MacIntel,59.84082341,1.28,,,1440,900,60.955999999999996,4.63,"61.96, 18.93, 511.2, 490.64, 40.27, 503.06, 512.34",797.71,10.63990938,49.26278042,27.83653633,Passed,165.0303144,,,,,,,,,,,,,,,,,,,,,training,2,12,180,right,s,,,,,374.6397,374.8233,35.84,-6.543884277,3.598175049,1,0,0,0.1834,fixationPoint,374.8234,374.923,374.9231,376.5467,35.84,10240,616.96,s,1,1.6093,,376.5469,376.7458,,,,,,,,85,-30,-160,223,16,160,17,120,28,-68,73,-118,29,-125,65,164,-128,167,-216,70,-118,-72,-29,-216,-17,270,180,270,360,90,180,180,90,360,360,90,,,,,,,,,,,376.7458,376.746,,0,27,27,27,1,5,repeated,,,,,,,,,,,,,,,,,,,,,,,,,,,,,,,,,,,,,,,,,,,,,,,,,
,,20,2,${e://Field/PROLIFIC_PID,F,18,2023-11-03_15h01.43.607,MouseEye_CC,2023.2.2,MacIntel,59.84082341,1.28,,,1440,900,60.955999999999996,4.63,"61.96, 18.93, 511.2, 490.64, 40.27, 503.06, 512.34",797.71,10.63990938,49.26278042,27.83653633,Passed,165.0303144,,,,,,,,,,,,,,,,,,,,,training,2,13,180,right,s,,,,,376.7468,376.9796,35.84,-6.543884277,3.598175049,1,0,0,0.2327,fixationPoint,376.9798,377.0803,377.0803,379.0193,35.84,10240,616.96,s,1,1.9259,,379.0195,379.2182,,,,,,,,69,174,-78,212,166,160,17,113,67,-161,172,-21,24,-78,20,-209,-65,-120,-122,-30,-69,68,-79,213,-25,180,180,360,90,180,360,270,90,180,180,180,,,,,,,,,,,379.2183,379.2186,,0,28,28,28,1,11,novel,,,,,,,,,,,,,,,,,,,,,,,,,,,,,,,,,,,,,,,,,,,,,,,,,
,,20,2,${e://Field/PROLIFIC_PID,F,18,2023-11-03_15h01.43.607,MouseEye_CC,2023.2.2,MacIntel,59.84082341,1.28,,,1440,900,60.955999999999996,4.63,"61.96, 18.93, 511.2, 490.64, 40.27, 503.06, 512.34",797.71,10.63990938,49.26278042,27.83653633,Passed,165.0303144,,,,,,,,,,,,,,,,,,,,,training,2,14,0,left,a,,,,,379.2194,379.5369,35.84,-6.543884277,3.598175049,1,0,0,0.3174,fixationPoint,379.537,379.6365,379.6366,380.8557,35.84,10240,616.96,a,1,1.2054,,380.856,381.0585,,,,,,,,75,-27,-120,218,208,172,223,217,70,-216,29,-21,24,-161,172,118,-114,68,-79,121,-163,-72,-29,-114,-171,180,90,90,270,180,270,180,180,360,180,360,,,,,,,,,,,381.0585,381.0587,,0,29,29,29,1,6,repeated,,,,,,,,,,,,,,,,,,,,,,,,,,,,,,,,,,,,,,,,,,,,,,,,,
,,20,2,${e://Field/PROLIFIC_PID,F,18,2023-11-03_15h01.43.607,MouseEye_CC,2023.2.2,MacIntel,59.84082341,1.28,,,1440,900,60.955999999999996,4.63,"61.96, 18.93, 511.2, 490.64, 40.27, 503.06, 512.34",797.71,10.63990938,49.26278042,27.83653633,Passed,165.0303144,,,,,,,,,,,,,,,,,,,,,training,2,15,180,right,s,,,,,381.0594,381.3083,35.84,-6.543884277,3.598175049,1,0,0,0.2487,fixationPoint,381.3084,381.4079,381.4081,382.4111,35.84,10240,616.96,s,1,0.9882,,382.4112,382.6133,,,,,,,,39,165,68,-165,223,-27,209,-125,65,-112,-219,-128,-80,-224,-172,213,-25,67,-216,17,-72,17,74,212,166,270,90,90,180,270,270,90,270,90,90,270,,,,,,,,,,,382.6133,382.6135,,0,30,30,30,1,2,repeated,,,,,,,,,,,,,,,,,,,,,,,,,,,,,,,,,,,,,,,,,,,,,,,,,
,,20,2,${e://Field/PROLIFIC_PID,F,18,2023-11-03_15h01.43.607,MouseEye_CC,2023.2.2,MacIntel,59.84082341,1.28,,,1440,900,60.955999999999996,4.63,"61.96, 18.93, 511.2, 490.64, 40.27, 503.06, 512.34",797.71,10.63990938,49.26278042,27.83653633,Passed,165.0303144,,,,,,,,,,,,,,,,,,,,,training,2,16,0,left,a,,,,,382.6145,382.9303,35.84,-6.543884277,3.598175049,1,0,0,0.3156,fixationPoint,382.9305,383.03,383.03,386.121,35.84,10240,616.96,a,1,3.0783,,386.1211,386.3226,,,,,,,,68,124,-80,28,125,212,166,77,220,-113,169,-128,215,-216,29,-120,-20,-68,-70,-209,-208,166,-160,167,-216,360,270,360,270,360,180,360,270,270,360,360,,,,,,,,,,,386.3228,387.3248,space,0,31,31,31,1,12,novel,0.9873,,,,,,,,,,,,,,,,,,,,,,,,,,,,,,,,,,,,,,,,,,,,,,,,
,,20,2,${e://Field/PROLIFIC_PID,F,18,2023-11-03_15h01.43.607,MouseEye_CC,2023.2.2,MacIntel,59.84082341,1.28,,,1440,900,60.955999999999996,4.63,"61.96, 18.93, 511.2, 490.64, 40.27, 503.06, 512.34",797.71,10.63990938,49.26278042,27.83653633,Passed,165.0303144,,,,,,,,,,,,,,,,,,,,,training,3,1,180,right,s,,,,,387.3259,387.9079,35.84,-5.741882324,2.252197266,1,0,0,0.5819,fixationPoint,387.9081,388.0102,388.0106,389.1446,35.84,10240,616.96,s,1,1.1212,,389.1447,389.3479,,,,,,,,75,-27,-120,218,208,172,223,217,70,-216,29,-21,24,-161,172,118,-114,68,-79,121,-163,-72,-29,-114,-171,90,90,180,270,360,270,270,360,180,90,360,,,,,,,,,,,389.348,389.3509,,0,32,32,32,1,6,repeated,,,,,,,,,,,,,,,,,,,,,,,,,,,,,,,,,,,,,,,,,,,,,,,,,
,,20,2,${e://Field/PROLIFIC_PID,F,18,2023-11-03_15h01.43.607,MouseEye_CC,2023.2.2,MacIntel,59.84082341,1.28,,,1440,900,60.955999999999996,4.63,"61.96, 18.93, 511.2, 490.64, 40.27, 503.06, 512.34",797.71,10.63990938,49.26278042,27.83653633,Passed,165.0303144,,,,,,,,,,,,,,,,,,,,,training,3,2,0,left,a,,,,,389.3515,389.9289,35.84,-4.083007813,-3.008514404,1,0,0,0.5774,fixationPoint,389.9291,390.033,390.033,391.5192,35.84,10240,616.96,s,0,1.4677,,391.5192,395.5134,,,,,,,,78,118,-114,220,116,17,74,165,118,-67,174,-216,29,-113,169,-19,-219,-224,-172,-209,-65,212,-76,80,-30,180,90,90,90,360,180,270,90,180,180,270,,,,,,,,,,,395.5135,395.5283,,0,33,33,33,1,7,repeated,,,,,,,,,,,,,,,,,,,,,,,,,,,,,,,,,,,,,,,,,,,,,,,,,
,,20,2,${e://Field/PROLIFIC_PID,F,18,2023-11-03_15h01.43.607,MouseEye_CC,2023.2.2,MacIntel,59.84082341,1.28,,,1440,900,60.955999999999996,4.63,"61.96, 18.93, 511.2, 490.64, 40.27, 503.06, 512.34",797.71,10.63990938,49.26278042,27.83653633,Passed,165.0303144,,,,,,,,,,,,,,,,,,,,,training,3,3,180,right,s,,,,,395.5295,396.0823,35.84,-7.488830566,-2.809265137,1,0,0,0.5526,fixationPoint,396.0825,396.1811,396.1815,397.3694,35.84,10240,616.96,s,1,1.168,,397.3694,397.5679,,,,,,,,26,28,125,-67,174,-113,169,-176,74,-68,-70,-216,-17,-224,-172,116,-19,73,-168,124,-80,119,117,120,28,270,180,90,360,180,270,90,180,180,180,270,,,,,,,,,,,397.568,397.5683,,0,34,34,34,1,14,novel,,,,,,,,,,,,,,,,,,,,,,,,,,,,,,,,,,,,,,,,,,,,,,,,,
,,20,2,${e://Field/PROLIFIC_PID,F,18,2023-11-03_15h01.43.607,MouseEye_CC,2023.2.2,MacIntel,59.84082341,1.28,,,1440,900,60.955999999999996,4.63,"61.96, 18.93, 511.2, 490.64, 40.27, 503.06, 512.34",797.71,10.63990938,49.26278042,27.83653633,Passed,165.0303144,,,,,,,,,,,,,,,,,,,,,training,3,4,180,right,s,,,,,397.569,397.7199,35.84,-7.488830566,-2.809265137,1,0,0,0.1506,fixationPoint,397.7199,397.8182,397.8182,399.19,35.84,10240,616.96,s,1,1.3637,,399.1901,399.3897,,,,,,,,33,-125,65,212,166,176,169,65,112,-27,-120,-30,-160,-19,-219,17,-72,125,-212,167,-216,-16,168,-27,209,180,90,90,270,90,360,360,360,90,360,90,,,,,,,,,,,399.3897,399.3899,,0,35,35,35,1,4,repeated,,,,,,,,,,,,,,,,,,,,,,,,,,,,,,,,,,,,,,,,,,,,,,,,,
,,20,2,${e://Field/PROLIFIC_PID,F,18,2023-11-03_15h01.43.607,MouseEye_CC,2023.2.2,MacIntel,59.84082341,1.28,,,1440,900,60.955999999999996,4.63,"61.96, 18.93, 511.2, 490.64, 40.27, 503.06, 512.34",797.71,10.63990938,49.26278042,27.83653633,Passed,165.0303144,,,,,,,,,,,,,,,,,,,,,training,3,5,0,left,a,,,,,399.3907,399.4574,35.84,1.788391113,12.8343811,1,0,0,0.0666,fixationPoint,399.4575,399.5576,399.5577,402.4676,35.84,10240,616.96,a,1,2.8886,,402.4677,402.6646,,,,,,,,49,160,17,-27,209,-216,168,-224,220,-30,-160,-172,-25,-169,-70,166,-160,116,-19,17,-72,212,166,176,169,270,180,360,270,90,180,180,180,90,360,360,,,,,,,,,,,402.6646,402.6652,,0,36,36,36,1,1,repeated,,,,,,,,,,,,,,,,,,,,,,,,,,,,,,,,,,,,,,,,,,,,,,,,,
,,20,2,${e://Field/PROLIFIC_PID,F,18,2023-11-03_15h01.43.607,MouseEye_CC,2023.2.2,MacIntel,59.84082341,1.28,,,1440,900,60.955999999999996,4.63,"61.96, 18.93, 511.2, 490.64, 40.27, 503.06, 512.34",797.71,10.63990938,49.26278042,27.83653633,Passed,165.0303144,,,,,,,,,,,,,,,,,,,,,training,3,6,0,left,a,,,,,402.6658,402.7802,35.84,5.61907959,-16.99377441,1,0,0,0.1142,fixationPoint,402.7802,402.8808,402.8809,404.0367,35.84,10240,616.96,a,1,1.1425,,404.0368,404.237,,,,,,,,23,-128,119,19,31,28,208,218,208,-209,-65,-120,-122,-30,-160,118,-114,17,-72,212,-212,-78,20,-161,172,90,270,270,90,90,270,180,180,270,360,360,,,,,,,,,,,404.2371,404.2374,,0,37,37,37,1,15,novel,,,,,,,,,,,,,,,,,,,,,,,,,,,,,,,,,,,,,,,,,,,,,,,,,
,,20,2,${e://Field/PROLIFIC_PID,F,18,2023-11-03_15h01.43.607,MouseEye_CC,2023.2.2,MacIntel,59.84082341,1.28,,,1440,900,60.955999999999996,4.63,"61.96, 18.93, 511.2, 490.64, 40.27, 503.06, 512.34",797.71,10.63990938,49.26278042,27.83653633,Passed,165.0303144,,,,,,,,,,,,,,,,,,,,,training,3,7,180,right,s,,,,,404.2381,404.5689,35.84,0.315856934,12.63522339,1,0,0,0.3301,fixationPoint,404.569,404.6694,404.6694,405.943,35.84,10240,616.96,s,1,1.2608,,405.9432,406.1428,,,,,,,,3,-128,215,165,118,212,166,120,28,-175,-212,-27,-120,-209,-208,164,-128,221,-160,17,-72,-216,75,-73,208,180,90,180,180,360,180,180,360,270,270,360,,,,,,,,,,,406.1431,406.1437,,0,38,38,38,1,16,novel,,,,,,,,,,,,,,,,,,,,,,,,,,,,,,,,,,,,,,,,,,,,,,,,,
,,20,2,${e://Field/PROLIFIC_PID,F,18,2023-11-03_15h01.43.607,MouseEye_CC,2023.2.2,MacIntel,59.84082341,1.28,,,1440,900,60.955999999999996,4.63,"61.96, 18.93, 511.2, 490.64, 40.27, 503.06, 512.34",797.71,10.63990938,49.26278042,27.83653633,Passed,165.0303144,,,,,,,,,,,,,,,,,,,,,training,3,8,0,left,a,,,,,406.1448,406.2588,35.84,0.315856934,12.63522339,1,0,0,0.1134,fixationPoint,406.259,406.3602,406.3603,408.0799,35.84,10240,616.96,a,1,1.7023,,408.08,408.2798,,,,,,,,69,174,-78,223,16,80,64,77,220,-78,20,-165,223,-16,168,-224,-172,-120,-20,-170,-172,213,-25,70,-118,270,270,90,270,360,360,270,180,180,180,360,,,,,,,,,,,408.2798,408.2801,,0,39,39,39,1,11,novel,,,,,,,,,,,,,,,,,,,,,,,,,,,,,,,,,,,,,,,,,,,,,,,,,
,,20,2,${e://Field/PROLIFIC_PID,F,18,2023-11-03_15h01.43.607,MouseEye_CC,2023.2.2,MacIntel,59.84082341,1.28,,,1440,900,60.955999999999996,4.63,"61.96, 18.93, 511.2, 490.64, 40.27, 503.06, 512.34",797.71,10.63990938,49.26278042,27.83653633,Passed,165.0303144,,,,,,,,,,,,,,,,,,,,,training,3,9,0,left,a,,,,,408.2808,408.9167,35.84,0.23260498,-22.35961914,1,0,0,0.114,fixationPoint,408.9168,409.0142,409.0143,412.0402,35.84,10240,616.96,a,1,3.0145,,412.0403,412.2418,,,,,,,,52,-172,-25,65,112,28,125,68,161,-216,29,-21,24,-73,208,116,-19,27,-28,212,-76,-30,-69,-120,-20,180,90,180,90,360,90,360,180,360,180,90,,,,,,,,,,,412.2418,412.2421,,0,40,40,40,1,9,novel,,,,,,,,,,,,,,,,,,,,,,,,,,,,,,,,,,,,,,,,,,,,,,,,,
,,20,2,${e://Field/PROLIFIC_PID,F,18,2023-11-03_15h01.43.607,MouseEye_CC,2023.2.2,MacIntel,59.84082341,1.28,,,1440,900,60.955999999999996,4.63,"61.96, 18.93, 511.2, 490.64, 40.27, 503.06, 512.34",797.71,10.63990938,49.26278042,27.83653633,Passed,165.0303144,,,,,,,,,,,,,,,,,,,,,training,3,10,180,right,s,,,,,412.2429,412.359,35.84,-3.336242676,-13.85662842,1,0,0,0.1157,fixationPoint,412.359,412.4569,412.4574,413.6795,35.84,10240,616.96,s,1,1.2066,,413.6796,413.8792,,,,,,,,85,-30,-160,223,16,160,17,120,28,-68,73,-118,29,-125,65,164,-128,167,-216,70,-118,-72,-29,-216,-17,180,270,270,360,360,90,180,360,270,180,360,,,,,,,,,,,413.8793,413.8795,,0,41,41,41,1,5,repeated,,,,,,,,,,,,,,,,,,,,,,,,,,,,,,,,,,,,,,,,,,,,,,,,,
,,20,2,${e://Field/PROLIFIC_PID,F,18,2023-11-03_15h01.43.607,MouseEye_CC,2023.2.2,MacIntel,59.84082341,1.28,,,1440,900,60.955999999999996,4.63,"61.96, 18.93, 511.2, 490.64, 40.27, 503.06, 512.34",797.71,10.63990938,49.26278042,27.83653633,Passed,165.0303144,,,,,,,,,,,,,,,,,,,,,training,3,11,180,right,s,,,,,413.8803,414.0129,35.84,13.24560547,-16.50982666,1,0,0,0.1325,fixationPoint,414.013,414.1121,414.1122,415.0007,35.84,10240,616.96,s,1,0.8746,,415.0009,415.1976,,,,,,,,62,-169,-70,28,125,28,208,126,215,-128,215,-68,73,-113,169,27,-28,121,-163,125,-212,-167,-126,-114,-171,180,360,180,90,90,90,270,90,180,270,90,,,,,,,,,,,415.1977,415.1979,,0,42,42,42,1,10,novel,,,,,,,,,,,,,,,,,,,,,,,,,,,,,,,,,,,,,,,,,,,,,,,,,
,,20,2,${e://Field/PROLIFIC_PID,F,18,2023-11-03_15h01.43.607,MouseEye_CC,2023.2.2,MacIntel,59.84082341,1.28,,,1440,900,60.955999999999996,4.63,"61.96, 18.93, 511.2, 490.64, 40.27, 503.06, 512.34",797.71,10.63990938,49.26278042,27.83653633,Passed,165.0303144,,,,,,,,,,,,,,,,,,,,,training,3,12,0,left,a,,,,,415.1986,415.4155,35.84,-10.49719238,-7.209106445,1,0,0,0.2166,fixationPoint,415.4156,415.517,415.517,417.7568,35.84,10240,616.96,a,1,2.2252,,417.7569,417.9541,,,,,,,,68,124,-80,80,64,28,208,126,215,-27,209,-165,223,-176,74,-27,-120,-210,-124,-209,-65,67,-216,70,-118,270,90,270,270,90,270,180,180,180,270,360,,,,,,,,,,,417.9542,417.9544,,0,43,43,43,1,12,novel,,,,,,,,,,,,,,,,,,,,,,,,,,,,,,,,,,,,,,,,,,,,,,,,,
,,20,2,${e://Field/PROLIFIC_PID,F,18,2023-11-03_15h01.43.607,MouseEye_CC,2023.2.2,MacIntel,59.84082341,1.28,,,1440,900,60.955999999999996,4.63,"61.96, 18.93, 511.2, 490.64, 40.27, 503.06, 512.34",797.71,10.63990938,49.26278042,27.83653633,Passed,165.0303144,,,,,,,,,,,,,,,,,,,,,training,3,13,0,left,a,,,,,417.9552,418.1237,35.84,-0.317871094,-13.61700439,1,0,0,0.1682,fixationPoint,418.1237,418.2223,418.2224,419.3442,35.84,10240,616.96,a,1,1.1141,,419.3443,419.5443,,,,,,,,39,165,68,-165,223,-27,209,-125,65,-112,-219,-128,-80,-224,-172,213,-25,67,-216,17,-72,17,74,212,166,270,180,180,270,90,360,360,360,90,90,360,,,,,,,,,,,419.5443,419.5446,,0,44,44,44,1,2,repeated,,,,,,,,,,,,,,,,,,,,,,,,,,,,,,,,,,,,,,,,,,,,,,,,,
,,20,2,${e://Field/PROLIFIC_PID,F,18,2023-11-03_15h01.43.607,MouseEye_CC,2023.2.2,MacIntel,59.84082341,1.28,,,1440,900,60.955999999999996,4.63,"61.96, 18.93, 511.2, 490.64, 40.27, 503.06, 512.34",797.71,10.63990938,49.26278042,27.83653633,Passed,165.0303144,,,,,,,,,,,,,,,,,,,,,training,3,14,180,right,s,,,,,419.5454,419.6606,35.84,-0.317871094,6.480957031,1,0,0,0.115,fixationPoint,419.6606,419.7606,419.7607,421.7656,35.84,10240,616.96,s,1,1.9959,,421.7657,421.9665,,,,,,,,32,-176,74,17,74,124,168,113,67,-70,-128,-72,-29,-209,-208,17,-72,167,-216,80,-30,-165,223,-78,20,360,360,360,180,180,180,360,360,90,360,360,,,,,,,,,,,421.9665,421.9667,,0,45,45,45,1,3,repeated,,,,,,,,,,,,,,,,,,,,,,,,,,,,,,,,,,,,,,,,,,,,,,,,,
,,20,2,${e://Field/PROLIFIC_PID,F,18,2023-11-03_15h01.43.607,MouseEye_CC,2023.2.2,MacIntel,59.84082341,1.28,,,1440,900,60.955999999999996,4.63,"61.96, 18.93, 511.2, 490.64, 40.27, 503.06, 512.34",797.71,10.63990938,49.26278042,27.83653633,Passed,165.0303144,,,,,,,,,,,,,,,,,,,,,training,3,15,180,right,s,,,,,421.9675,422.1002,35.84,-0.317871094,6.480957031,1,0,0,0.1325,fixationPoint,422.1002,422.2022,422.2023,423.3542,35.84,10240,616.96,s,1,1.1372,,423.3544,423.554,,,,,,,,16,23,172,-67,174,-128,119,-78,114,-128,-80,-224,-172,-120,-20,27,-28,20,-117,118,-114,28,125,68,161,180,360,180,270,360,270,90,180,180,360,90,,,,,,,,,,,423.5541,423.5544,,0,46,46,46,1,13,novel,,,,,,,,,,,,,,,,,,,,,,,,,,,,,,,,,,,,,,,,,,,,,,,,,
,,20,2,${e://Field/PROLIFIC_PID,F,18,2023-11-03_15h01.43.607,MouseEye_CC,2023.2.2,MacIntel,59.84082341,1.28,,,1440,900,60.955999999999996,4.63,"61.96, 18.93, 511.2, 490.64, 40.27, 503.06, 512.34",797.71,10.63990938,49.26278042,27.83653633,Passed,165.0303144,,,,,,,,,,,,,,,,,,,,,training,3,16,0,left,a,,,,,423.5568,423.6722,35.84,-0.317871094,6.480957031,1,0,0,0.1152,fixationPoint,423.6723,423.7702,423.7703,426.2962,35.84,10240,616.96,a,1,2.5075,,426.2963,426.4942,,,,,,,,98,125,-212,65,112,28,125,28,208,-216,75,-32,67,-216,29,-216,-17,-68,-213,-70,-128,118,-114,212,-76,270,270,360,90,90,360,270,90,270,360,270,,,,,,,,,,,426.4943,427.348,space,0,47,47,47,1,8,repeated,0.8274,,,,,,,,,,,,,,,,,,,,,,,,,,,,,,,,,,,,,,,,,,,,,,,,
,,20,2,${e://Field/PROLIFIC_PID,F,18,2023-11-03_15h01.43.607,MouseEye_CC,2023.2.2,MacIntel,59.84082341,1.28,,,1440,900,60.955999999999996,4.63,"61.96, 18.93, 511.2, 490.64, 40.27, 503.06, 512.34",797.71,10.63990938,49.26278042,27.83653633,Passed,165.0303144,,,,,,,,,,,,,,,,,,,,,training,4,1,0,left,a,,,,,427.3488,427.967,35.84,-0.317871094,6.480957031,1,0,0,0.6179,fixationPoint,427.967,428.0674,428.0674,431.7425,35.84,10240,616.96,a,1,3.654,,431.7425,431.9447,,,,,,,,78,118,-114,220,116,17,74,165,118,-67,174,-216,29,-113,169,-19,-219,-224,-172,-209,-65,212,-76,80,-30,180,360,270,360,90,180,270,90,360,270,360,,,,,,,,,,,431.9448,431.9487,,0,48,48,48,1,7,repeated,,,,,,,,,,,,,,,,,,,,,,,,,,,,,,,,,,,,,,,,,,,,,,,,,
,,20,2,${e://Field/PROLIFIC_PID,F,18,2023-11-03_15h01.43.607,MouseEye_CC,2023.2.2,MacIntel,59.84082341,1.28,,,1440,900,60.955999999999996,4.63,"61.96, 18.93, 511.2, 490.64, 40.27, 503.06, 512.34",797.71,10.63990938,49.26278042,27.83653633,Passed,165.0303144,,,,,,,,,,,,,,,,,,,,,training,4,2,180,right,s,,,,,431.95,432.0615,35.84,-0.317871094,6.480957031,1,0,0,0.1112,fixationPoint,432.0615,432.1603,432.1604,434.6989,35.84,10240,616.96,s,1,2.5301,,434.6992,434.8998,,,,,,,,16,23,172,-68,73,-78,114,-166,126,-128,-80,-210,-124,-112,-219,124,-80,212,-76,17,-72,76,22,28,125,180,90,270,90,360,270,180,270,90,90,90,,,,,,,,,,,434.8998,434.9001,,0,49,49,49,1,13,novel,,,,,,,,,,,,,,,,,,,,,,,,,,,,,,,,,,,,,,,,,,,,,,,,,
,,20,2,${e://Field/PROLIFIC_PID,F,18,2023-11-03_15h01.43.607,MouseEye_CC,2023.2.2,MacIntel,59.84082341,1.28,,,1440,900,60.955999999999996,4.63,"61.96, 18.93, 511.2, 490.64, 40.27, 503.06, 512.34",797.71,10.63990938,49.26278042,27.83653633,Passed,165.0303144,,,,,,,,,,,,,,,,,,,,,training,4,3,180,right,s,,,,,434.901,435.2543,35.84,-0.317871094,6.480957031,1,0,0,0.353,fixationPoint,435.2544,435.3518,435.3518,438.1915,35.84,10240,616.96,s,1,2.8258,,438.1916,438.3931,,,,,,,,52,-172,-25,160,17,172,223,65,112,-68,73,-73,208,-21,24,213,-25,68,-79,208,-120,-28,-23,-30,-160,360,90,270,360,180,90,90,360,360,90,270,,,,,,,,,,,438.3931,438.3934,,0,50,50,50,1,9,novel,,,,,,,,,,,,,,,,,,,,,,,,,,,,,,,,,,,,,,,,,,,,,,,,,
,,20,2,${e://Field/PROLIFIC_PID,F,18,2023-11-03_15h01.43.607,MouseEye_CC,2023.2.2,MacIntel,59.84082341,1.28,,,1440,900,60.955999999999996,4.63,"61.96, 18.93, 511.2, 490.64, 40.27, 503.06, 512.34",797.71,10.63990938,49.26278042,27.83653633,Passed,165.0303144,,,,,,,,,,,,,,,,,,,,,training,4,4,180,right,s,,,,,438.3939,438.5281,35.84,-0.317871094,6.480957031,1,0,0,0.134,fixationPoint,438.5282,438.6285,438.6285,440.4654,35.84,10240,616.96,s,1,1.8202,,440.4656,440.6669,,,,,,,,98,125,-212,65,112,28,125,28,208,-216,75,-32,67,-216,29,-216,-17,-68,-213,-70,-128,118,-114,212,-76,90,360,180,180,180,270,360,90,270,90,90,,,,,,,,,,,440.6671,440.6672,,0,51,51,51,1,8,repeated,,,,,,,,,,,,,,,,,,,,,,,,,,,,,,,,,,,,,,,,,,,,,,,,,
,,20,2,${e://Field/PROLIFIC_PID,F,18,2023-11-03_15h01.43.607,MouseEye_CC,2023.2.2,MacIntel,59.84082341,1.28,,,1440,900,60.955999999999996,4.63,"61.96, 18.93, 511.2, 490.64, 40.27, 503.06, 512.34",797.71,10.63990938,49.26278042,27.83653633,Passed,165.0303144,,,,,,,,,,,,,,,,,,,,,training,4,5,180,right,s,,,,,440.6677,440.7176,35.84,-0.317871094,6.480957031,1,0,0,0.0498,fixationPoint,440.7177,440.8188,440.8188,444.2429,35.84,10240,616.96,s,1,3.41,,444.243,444.443,,,,,,,,32,-176,74,17,74,124,168,113,67,-70,-128,-72,-29,-209,-208,17,-72,167,-216,80,-30,-165,223,-78,20,180,270,270,180,90,270,270,90,180,180,90,,,,,,,,,,,444.4432,444.4433,,0,52,52,52,1,3,repeated,,,,,,,,,,,,,,,,,,,,,,,,,,,,,,,,,,,,,,,,,,,,,,,,,
,,20,2,${e://Field/PROLIFIC_PID,F,18,2023-11-03_15h01.43.607,MouseEye_CC,2023.2.2,MacIntel,59.84082341,1.28,,,1440,900,60.955999999999996,4.63,"61.96, 18.93, 511.2, 490.64, 40.27, 503.06, 512.34",797.71,10.63990938,49.26278042,27.83653633,Passed,165.0303144,,,,,,,,,,,,,,,,,,,,,training,4,6,180,right,s,,,,,444.4438,444.4938,35.84,-0.317871094,6.480957031,1,0,0,0.0497,fixationPoint,444.4938,444.5949,444.595,446.1794,35.84,10240,616.96,s,1,1.5751,,446.1794,446.3812,,,,,,,,49,160,17,-27,209,-216,168,-224,220,-30,-160,-172,-25,-169,-70,166,-160,116,-19,17,-72,212,166,176,169,360,270,90,270,360,90,270,90,360,360,360,,,,,,,,,,,446.3813,446.3815,,0,53,53,53,1,1,repeated,,,,,,,,,,,,,,,,,,,,,,,,,,,,,,,,,,,,,,,,,,,,,,,,,
,,20,2,${e://Field/PROLIFIC_PID,F,18,2023-11-03_15h01.43.607,MouseEye_CC,2023.2.2,MacIntel,59.84082341,1.28,,,1440,900,60.955999999999996,4.63,"61.96, 18.93, 511.2, 490.64, 40.27, 503.06, 512.34",797.71,10.63990938,49.26278042,27.83653633,Passed,165.0303144,,,,,,,,,,,,,,,,,,,,,training,4,7,0,left,a,,,,,446.382,446.5309,35.84,-0.317871094,6.480957031,1,0,0,0.1487,fixationPoint,446.531,446.6314,446.6315,447.6701,35.84,10240,616.96,a,1,1.0192,,447.6702,447.8685,,,,,,,,23,-128,119,65,112,124,168,23,172,-210,-124,-19,-219,-70,-128,212,-212,17,-72,24,-171,-224,220,-128,215,90,360,360,90,180,90,180,180,360,270,90,,,,,,,,,,,447.8686,447.8687,,0,54,54,54,1,15,novel,,,,,,,,,,,,,,,,,,,,,,,,,,,,,,,,,,,,,,,,,,,,,,,,,
,,20,2,${e://Field/PROLIFIC_PID,F,18,2023-11-03_15h01.43.607,MouseEye_CC,2023.2.2,MacIntel,59.84082341,1.28,,,1440,900,60.955999999999996,4.63,"61.96, 18.93, 511.2, 490.64, 40.27, 503.06, 512.34",797.71,10.63990938,49.26278042,27.83653633,Passed,165.0303144,,,,,,,,,,,,,,,,,,,,,training,4,8,0,left,a,,,,,447.8693,447.9843,35.84,-0.317871094,6.480957031,1,0,0,0.1148,fixationPoint,447.9843,448.0866,448.0867,449.9578,35.84,10240,616.96,a,1,1.8578,,449.9579,450.1586,,,,,,,,69,174,-78,77,220,19,31,165,68,-161,172,-216,75,-125,65,-68,-70,-72,-29,-209,-65,125,-212,73,-168,360,90,270,180,90,180,360,180,360,180,180,,,,,,,,,,,450.1587,450.1589,,0,55,55,55,1,11,novel,,,,,,,,,,,,,,,,,,,,,,,,,,,,,,,,,,,,,,,,,,,,,,,,,
,,20,2,${e://Field/PROLIFIC_PID,F,18,2023-11-03_15h01.43.607,MouseEye_CC,2023.2.2,MacIntel,59.84082341,1.28,,,1440,900,60.955999999999996,4.63,"61.96, 18.93, 511.2, 490.64, 40.27, 503.06, 512.34",797.71,10.63990938,49.26278042,27.83653633,Passed,165.0303144,,,,,,,,,,,,,,,,,,,,,training,4,9,0,left,a,,,,,450.1594,450.2582,35.84,-0.317871094,6.480957031,1,0,0,0.0987,fixationPoint,450.2583,450.3587,450.3587,453.6658,35.84,10240,616.96,a,1,3.299,,453.6658,453.8683,,,,,,,,62,-169,-70,212,166,176,169,165,118,-125,65,-73,208,-118,29,164,-128,121,-163,25,-220,-170,-172,-19,-219,180,360,180,270,360,270,270,360,90,90,90,,,,,,,,,,,453.8683,453.8685,,0,56,56,56,1,10,novel,,,,,,,,,,,,,,,,,,,,,,,,,,,,,,,,,,,,,,,,,,,,,,,,,
,,20,2,${e://Field/PROLIFIC_PID,F,18,2023-11-03_15h01.43.607,MouseEye_CC,2023.2.2,MacIntel,59.84082341,1.28,,,1440,900,60.955999999999996,4.63,"61.96, 18.93, 511.2, 490.64, 40.27, 503.06, 512.34",797.71,10.63990938,49.26278042,27.83653633,Passed,165.0303144,,,,,,,,,,,,,,,,,,,,,training,4,10,180,right,s,,,,,453.869,453.9506,35.84,-0.317871094,6.480957031,1,0,0,0.0812,fixationPoint,453.9507,454.0503,454.0504,455.7062,35.84,10240,616.96,s,1,1.6391,,455.7063,455.9072,,,,,,,,26,28,125,-67,174,-128,215,-161,172,-216,-17,-70,-128,-209,-208,17,-72,213,-25,25,-220,77,220,212,166,90,90,360,360,180,360,270,90,270,90,360,,,,,,,,,,,455.9073,455.9075,,0,57,57,57,1,14,novel,,,,,,,,,,,,,,,,,,,,,,,,,,,,,,,,,,,,,,,,,,,,,,,,,
,,20,2,${e://Field/PROLIFIC_PID,F,18,2023-11-03_15h01.43.607,MouseEye_CC,2023.2.2,MacIntel,59.84082341,1.28,,,1440,900,60.955999999999996,4.63,"61.96, 18.93, 511.2, 490.64, 40.27, 503.06, 512.34",797.71,10.63990938,49.26278042,27.83653633,Passed,165.0303144,,,,,,,,,,,,,,,,,,,,,training,4,11,0,left,a,,,,,455.9082,456.1752,35.84,-0.317871094,6.480957031,1,0,0,0.2669,fixationPoint,456.1753,456.2742,456.2743,457.0266,35.84,10240,616.96,a,1,0.7389,,457.0267,457.2257,,,,,,,,33,-125,65,212,166,176,169,65,112,-27,-120,-30,-160,-19,-219,17,-72,125,-212,167,-216,-16,168,-27,209,360,270,180,180,180,90,270,180,270,360,180,,,,,,,,,,,457.2259,457.226,,0,58,58,58,1,4,repeated,,,,,,,,,,,,,,,,,,,,,,,,,,,,,,,,,,,,,,,,,,,,,,,,,
,,20,2,${e://Field/PROLIFIC_PID,F,18,2023-11-03_15h01.43.607,MouseEye_CC,2023.2.2,MacIntel,59.84082341,1.28,,,1440,900,60.955999999999996,4.63,"61.96, 18.93, 511.2, 490.64, 40.27, 503.06, 512.34",797.71,10.63990938,49.26278042,27.83653633,Passed,165.0303144,,,,,,,,,,,,,,,,,,,,,training,4,12,0,left,a,,,,,457.2266,457.3108,35.84,-0.317871094,6.480957031,1,0,0,0.084,fixationPoint,457.3109,457.4109,457.411,460.2375,35.84,10240,616.96,s,0,2.8075,,460.2375,464.2286,,,,,,,,68,124,-80,113,67,76,22,220,116,-128,215,-78,114,-128,119,-209,-208,-224,-172,-72,-29,164,-128,212,-212,270,270,270,90,90,180,90,90,360,90,180,,,,,,,,,,,464.2287,464.243,,0,59,59,59,1,12,novel,,,,,,,,,,,,,,,,,,,,,,,,,,,,,,,,,,,,,,,,,,,,,,,,,
,,20,2,${e://Field/PROLIFIC_PID,F,18,2023-11-03_15h01.43.607,MouseEye_CC,2023.2.2,MacIntel,59.84082341,1.28,,,1440,900,60.955999999999996,4.63,"61.96, 18.93, 511.2, 490.64, 40.27, 503.06, 512.34",797.71,10.63990938,49.26278042,27.83653633,Passed,165.0303144,,,,,,,,,,,,,,,,,,,,,training,4,13,0,left,a,,,,,464.2433,466.5669,35.84,1.951293945,-6.314086914,1,0,0,2.3235,fixationPoint,466.567,466.6701,466.6702,468.3073,35.84,10240,616.96,a,1,1.6196,,468.3074,468.5054,,,,,,,,39,165,68,-165,223,-27,209,-125,65,-112,-219,-128,-80,-224,-172,213,-25,67,-216,17,-72,17,74,212,166,180,270,90,180,180,360,180,360,270,90,360,,,,,,,,,,,468.5055,468.5056,,0,60,60,60,1,2,repeated,,,,,,,,,,,,,,,,,,,,,,,,,,,,,,,,,,,,,,,,,,,,,,,,,
,,20,2,${e://Field/PROLIFIC_PID,F,18,2023-11-03_15h01.43.607,MouseEye_CC,2023.2.2,MacIntel,59.84082341,1.28,,,1440,900,60.955999999999996,4.63,"61.96, 18.93, 511.2, 490.64, 40.27, 503.06, 512.34",797.71,10.63990938,49.26278042,27.83653633,Passed,165.0303144,,,,,,,,,,,,,,,,,,,,,training,4,14,180,right,s,,,,,468.5064,468.807,35.84,0.522094727,-2.256835938,1,0,0,0.3003,fixationPoint,468.807,468.9096,468.9096,470.5793,35.84,10240,616.96,s,1,1.6586,,470.5795,470.7798,,,,,,,,85,-30,-160,223,16,160,17,120,28,-68,73,-118,29,-125,65,164,-128,167,-216,70,-118,-72,-29,-216,-17,270,90,90,90,90,180,360,360,360,180,270,,,,,,,,,,,470.7798,470.7801,,0,61,61,61,1,5,repeated,,,,,,,,,,,,,,,,,,,,,,,,,,,,,,,,,,,,,,,,,,,,,,,,,
,,20,2,${e://Field/PROLIFIC_PID,F,18,2023-11-03_15h01.43.607,MouseEye_CC,2023.2.2,MacIntel,59.84082341,1.28,,,1440,900,60.955999999999996,4.63,"61.96, 18.93, 511.2, 490.64, 40.27, 503.06, 512.34",797.71,10.63990938,49.26278042,27.83653633,Passed,165.0303144,,,,,,,,,,,,,,,,,,,,,training,4,15,0,left,a,,,,,470.7809,470.8991,35.84,0.522094727,-2.256835938,1,0,0,0.118,fixationPoint,470.8992,470.9957,470.9957,473.1383,35.84,10240,616.96,a,1,2.1244,,473.1383,473.3366,,,,,,,,3,-128,215,165,68,212,166,19,31,-128,-80,-170,-172,-120,-122,118,-114,221,-160,20,-117,-125,65,-161,172,270,360,180,90,270,270,270,270,180,180,360,,,,,,,,,,,473.3367,473.3369,,0,62,62,62,1,16,novel,,,,,,,,,,,,,,,,,,,,,,,,,,,,,,,,,,,,,,,,,,,,,,,,,
,,20,2,${e://Field/PROLIFIC_PID,F,18,2023-11-03_15h01.43.607,MouseEye_CC,2023.2.2,MacIntel,59.84082341,1.28,,,1440,900,60.955999999999996,4.63,"61.96, 18.93, 511.2, 490.64, 40.27, 503.06, 512.34",797.71,10.63990938,49.26278042,27.83653633,Passed,165.0303144,,,,,,,,,,,,,,,,,,,,,training,4,16,180,right,s,,,,,473.3377,473.6718,35.84,0.23626709,3.054748535,1,0,0,0.3339,fixationPoint,473.6727,473.7701,473.7702,476.162,35.84,10240,616.96,s,1,2.3748,,476.1621,476.3624,,,,,,,,75,-27,-120,218,208,172,223,217,70,-216,29,-21,24,-161,172,118,-114,68,-79,121,-163,-72,-29,-114,-171,180,270,270,90,180,90,360,180,360,180,270,,,,,,,,,,,476.3625,477.1489,space,0,63,63,63,1,6,repeated,0.7676,,,,,,,,,,,,,,,,,,,,,,,,,,,,,,,,,,,,,,,,,,,,,,,,
,,20,2,${e://Field/PROLIFIC_PID,F,18,2023-11-03_15h01.43.607,MouseEye_CC,2023.2.2,MacIntel,59.84082341,1.28,,,1440,900,60.955999999999996,4.63,"61.96, 18.93, 511.2, 490.64, 40.27, 503.06, 512.34",797.71,10.63990938,49.26278042,27.83653633,Passed,165.0303144,,,,,,,,,,,,,,,,,,,,,training,5,1,180,right,s,,,,,477.1495,478.0516,35.84,-10.66925049,16.87075806,1,0,0,0.9018,fixationPoint,478.0516,478.1496,478.1498,479.4212,35.84,10240,616.96,s,1,1.2583,,479.4213,479.6215,,,,,,,,62,-169,-70,19,31,65,112,124,168,-165,223,-78,20,-128,119,124,-80,164,-128,208,-120,-30,-160,-216,-17,90,90,180,360,360,90,270,360,360,90,90,,,,,,,,,,,479.6216,479.6254,,0,64,64,64,1,10,novel,,,,,,,,,,,,,,,,,,,,,,,,,,,,,,,,,,,,,,,,,,,,,,,,,
,,20,2,${e://Field/PROLIFIC_PID,F,18,2023-11-03_15h01.43.607,MouseEye_CC,2023.2.2,MacIntel,59.84082341,1.28,,,1440,900,60.955999999999996,4.63,"61.96, 18.93, 511.2, 490.64, 40.27, 503.06, 512.34",797.71,10.63990938,49.26278042,27.83653633,Passed,165.0303144,,,,,,,,,,,,,,,,,,,,,training,5,2,0,left,a,,,,,479.6261,480.1377,35.84,7.940368652,-9.592468262,1,0,0,0.5115,fixationPoint,480.1383,480.2375,480.2375,481.5603,35.84,10240,616.96,a,1,1.3049,,481.5604,481.7604,,,,,,,,68,124,-80,120,28,218,208,124,168,-67,174,-68,73,-27,209,-120,-20,-216,-17,-209,-208,121,-163,68,-79,180,90,270,360,360,270,90,270,90,90,270,,,,,,,,,,,481.7605,481.7607,,0,65,65,65,1,12,novel,,,,,,,,,,,,,,,,,,,,,,,,,,,,,,,,,,,,,,,,,,,,,,,,,
,,20,2,${e://Field/PROLIFIC_PID,F,18,2023-11-03_15h01.43.607,MouseEye_CC,2023.2.2,MacIntel,59.84082341,1.28,,,1440,900,60.955999999999996,4.63,"61.96, 18.93, 511.2, 490.64, 40.27, 503.06, 512.34",797.71,10.63990938,49.26278042,27.83653633,Passed,165.0303144,,,,,,,,,,,,,,,,,,,,,training,5,3,0,left,a,,,,,481.7614,481.8784,35.84,7.940368652,-9.592468262,1,0,0,0.1168,fixationPoint,481.8785,481.9761,481.9762,485.5373,35.84,10240,616.96,a,1,3.5475,,485.5374,485.7364,,,,,,,,85,-30,-160,223,16,160,17,120,28,-68,73,-118,29,-125,65,164,-128,167,-216,70,-118,-72,-29,-216,-17,90,180,360,270,360,180,360,360,90,180,90,,,,,,,,,,,485.7364,485.7365,,0,66,66,66,1,5,repeated,,,,,,,,,,,,,,,,,,,,,,,,,,,,,,,,,,,,,,,,,,,,,,,,,
,,20,2,${e://Field/PROLIFIC_PID,F,18,2023-11-03_15h01.43.607,MouseEye_CC,2023.2.2,MacIntel,59.84082341,1.28,,,1440,900,60.955999999999996,4.63,"61.96, 18.93, 511.2, 490.64, 40.27, 503.06, 512.34",797.71,10.63990938,49.26278042,27.83653633,Passed,165.0303144,,,,,,,,,,,,,,,,,,,,,training,5,4,0,left,a,,,,,485.7369,485.8896,35.84,7.940368652,-9.592468262,1,0,0,0.1524,fixationPoint,485.8898,485.9892,485.9893,487.8416,35.84,10240,616.96,a,1,1.8375,,487.8417,488.0447,,,,,,,,26,28,125,-27,209,-165,32,-224,220,-172,-25,-68,-213,-30,-160,25,-220,208,-120,166,-160,160,17,80,64,90,180,180,270,180,180,90,180,90,270,180,,,,,,,,,,,488.0447,488.0449,,0,67,67,67,1,14,novel,,,,,,,,,,,,,,,,,,,,,,,,,,,,,,,,,,,,,,,,,,,,,,,,,
,,20,2,${e://Field/PROLIFIC_PID,F,18,2023-11-03_15h01.43.607,MouseEye_CC,2023.2.2,MacIntel,59.84082341,1.28,,,1440,900,60.955999999999996,4.63,"61.96, 18.93, 511.2, 490.64, 40.27, 503.06, 512.34",797.71,10.63990938,49.26278042,27.83653633,Passed,165.0303144,,,,,,,,,,,,,,,,,,,,,training,5,5,0,left,a,,,,,488.0461,488.1092,35.84,7.940368652,-9.592468262,1,0,0,0.0627,fixationPoint,488.1094,488.2083,488.2084,490.7148,35.84,10240,616.96,a,1,2.4988,,490.7149,490.9181,,,,,,,,32,-176,74,17,74,124,168,113,67,-70,-128,-72,-29,-209,-208,17,-72,167,-216,80,-30,-165,223,-78,20,270,180,180,180,270,90,90,180,270,90,90,,,,,,,,,,,490.9181,490.9183,,0,68,68,68,1,3,repeated,,,,,,,,,,,,,,,,,,,,,,,,,,,,,,,,,,,,,,,,,,,,,,,,,
,,20,2,${e://Field/PROLIFIC_PID,F,18,2023-11-03_15h01.43.607,MouseEye_CC,2023.2.2,MacIntel,59.84082341,1.28,,,1440,900,60.955999999999996,4.63,"61.96, 18.93, 511.2, 490.64, 40.27, 503.06, 512.34",797.71,10.63990938,49.26278042,27.83653633,Passed,165.0303144,,,,,,,,,,,,,,,,,,,,,training,5,6,180,right,s,,,,,490.9192,490.966,35.84,7.940368652,-9.592468262,1,0,0,0.0467,fixationPoint,490.9661,491.067,491.067,491.853,35.84,10240,616.96,a,0,0.7688,,491.8531,495.8492,,,,,,,,98,125,-212,65,112,28,125,28,208,-216,75,-32,67,-216,29,-216,-17,-68,-213,-70,-128,118,-114,212,-76,360,90,180,90,90,360,270,270,270,180,360,,,,,,,,,,,495.8492,495.8655,,0,69,69,69,1,8,repeated,,,,,,,,,,,,,,,,,,,,,,,,,,,,,,,,,,,,,,,,,,,,,,,,,
,,20,2,${e://Field/PROLIFIC_PID,F,18,2023-11-03_15h01.43.607,MouseEye_CC,2023.2.2,MacIntel,59.84082341,1.28,,,1440,900,60.955999999999996,4.63,"61.96, 18.93, 511.2, 490.64, 40.27, 503.06, 512.34",797.71,10.63990938,49.26278042,27.83653633,Passed,165.0303144,,,,,,,,,,,,,,,,,,,,,training,5,7,0,left,a,,,,,495.8658,496.3165,35.84,-6.247375488,-7.201385498,1,0,0,0.4507,fixationPoint,496.3166,496.4158,496.4159,497.4837,35.84,10240,616.96,a,1,1.058,,497.4839,497.6861,,,,,,,,52,-172,-25,223,16,218,208,19,31,-216,29,-113,169,-165,32,221,-160,25,-220,27,-28,-224,-172,-209,-65,270,90,270,270,270,90,180,180,180,360,90,,,,,,,,,,,497.6862,497.6866,,0,70,70,70,1,9,novel,,,,,,,,,,,,,,,,,,,,,,,,,,,,,,,,,,,,,,,,,,,,,,,,,
,,20,2,${e://Field/PROLIFIC_PID,F,18,2023-11-03_15h01.43.607,MouseEye_CC,2023.2.2,MacIntel,59.84082341,1.28,,,1440,900,60.955999999999996,4.63,"61.96, 18.93, 511.2, 490.64, 40.27, 503.06, 512.34",797.71,10.63990938,49.26278042,27.83653633,Passed,165.0303144,,,,,,,,,,,,,,,,,,,,,training,5,8,180,right,s,,,,,497.6874,498.0528,35.84,-5.989318848,2.428924561,1,0,0,0.3654,fixationPoint,498.0529,498.1517,498.1518,500.3091,35.84,10240,616.96,s,1,2.1497,,500.3091,500.5084,,,,,,,,78,118,-114,220,116,17,74,165,118,-67,174,-216,29,-113,169,-19,-219,-224,-172,-209,-65,212,-76,80,-30,270,180,180,360,360,90,90,90,180,90,360,,,,,,,,,,,500.5085,500.5088,,0,71,71,71,1,7,repeated,,,,,,,,,,,,,,,,,,,,,,,,,,,,,,,,,,,,,,,,,,,,,,,,,
,,20,2,${e://Field/PROLIFIC_PID,F,18,2023-11-03_15h01.43.607,MouseEye_CC,2023.2.2,MacIntel,59.84082341,1.28,,,1440,900,60.955999999999996,4.63,"61.96, 18.93, 511.2, 490.64, 40.27, 503.06, 512.34",797.71,10.63990938,49.26278042,27.83653633,Passed,165.0303144,,,,,,,,,,,,,,,,,,,,,training,5,9,180,right,s,,,,,500.5094,500.5594,35.84,-5.989318848,2.428924561,1,0,0,0.0498,fixationPoint,500.5595,500.6589,500.6589,501.5299,35.84,10240,616.96,s,1,0.8588,,501.53,501.7314,,,,,,,,39,165,68,-165,223,-27,209,-125,65,-112,-219,-128,-80,-224,-172,213,-25,67,-216,17,-72,17,74,212,166,180,90,270,90,270,360,360,90,180,270,90,,,,,,,,,,,501.7316,501.7321,,0,72,72,72,1,2,repeated,,,,,,,,,,,,,,,,,,,,,,,,,,,,,,,,,,,,,,,,,,,,,,,,,
,,20,2,${e://Field/PROLIFIC_PID,F,18,2023-11-03_15h01.43.607,MouseEye_CC,2023.2.2,MacIntel,59.84082341,1.28,,,1440,900,60.955999999999996,4.63,"61.96, 18.93, 511.2, 490.64, 40.27, 503.06, 512.34",797.71,10.63990938,49.26278042,27.83653633,Passed,165.0303144,,,,,,,,,,,,,,,,,,,,,training,5,10,180,right,s,,,,,501.7327,501.847,35.84,-5.989318848,2.428924561,1,0,0,0.114,fixationPoint,501.847,501.9476,501.9477,503.3691,35.84,10240,616.96,s,1,1.3999,,503.3692,503.5671,,,,,,,,69,174,-78,165,68,217,70,68,161,-165,223,-224,220,-27,209,-167,-126,-170,-172,-68,-70,221,-160,17,-72,180,90,360,180,360,180,180,180,360,270,180,,,,,,,,,,,503.5672,503.5673,,0,73,73,73,1,11,novel,,,,,,,,,,,,,,,,,,,,,,,,,,,,,,,,,,,,,,,,,,,,,,,,,
,,20,2,${e://Field/PROLIFIC_PID,F,18,2023-11-03_15h01.43.607,MouseEye_CC,2023.2.2,MacIntel,59.84082341,1.28,,,1440,900,60.955999999999996,4.63,"61.96, 18.93, 511.2, 490.64, 40.27, 503.06, 512.34",797.71,10.63990938,49.26278042,27.83653633,Passed,165.0303144,,,,,,,,,,,,,,,,,,,,,training,5,11,180,right,s,,,,,503.568,503.6828,35.84,-5.989318848,2.428924561,1,0,0,0.1147,fixationPoint,503.6829,503.7871,503.7873,505.8082,35.84,10240,616.96,s,1,2.002,,505.8083,506.0055,,,,,,,,75,-27,-120,218,208,172,223,217,70,-216,29,-21,24,-161,172,118,-114,68,-79,121,-163,-72,-29,-114,-171,360,90,360,180,180,180,180,180,180,270,270,,,,,,,,,,,506.0056,506.0058,,0,74,74,74,1,6,repeated,,,,,,,,,,,,,,,,,,,,,,,,,,,,,,,,,,,,,,,,,,,,,,,,,
,,20,2,${e://Field/PROLIFIC_PID,F,18,2023-11-03_15h01.43.607,MouseEye_CC,2023.2.2,MacIntel,59.84082341,1.28,,,1440,900,60.955999999999996,4.63,"61.96, 18.93, 511.2, 490.64, 40.27, 503.06, 512.34",797.71,10.63990938,49.26278042,27.83653633,Passed,165.0303144,,,,,,,,,,,,,,,,,,,,,training,5,12,180,right,s,,,,,506.0065,506.0571,35.84,-5.989318848,2.428924561,1,0,0,0.0505,fixationPoint,506.0572,506.1563,506.1564,507.7605,35.84,10240,616.96,s,1,1.5956,,507.7606,507.9629,,,,,,,,49,160,17,-27,209,-216,168,-224,220,-30,-160,-172,-25,-169,-70,166,-160,116,-19,17,-72,212,166,176,169,270,270,360,90,180,90,180,270,90,360,180,,,,,,,,,,,507.963,507.9632,,0,75,75,75,1,1,repeated,,,,,,,,,,,,,,,,,,,,,,,,,,,,,,,,,,,,,,,,,,,,,,,,,
,,20,2,${e://Field/PROLIFIC_PID,F,18,2023-11-03_15h01.43.607,MouseEye_CC,2023.2.2,MacIntel,59.84082341,1.28,,,1440,900,60.955999999999996,4.63,"61.96, 18.93, 511.2, 490.64, 40.27, 503.06, 512.34",797.71,10.63990938,49.26278042,27.83653633,Passed,165.0303144,,,,,,,,,,,,,,,,,,,,,training,5,13,0,left,a,,,,,507.9642,508.0793,35.84,-5.989318848,2.428924561,1,0,0,0.1149,fixationPoint,508.0793,508.1799,508.1801,509.7181,35.84,10240,616.96,a,1,1.5267,,509.7181,509.9166,,,,,,,,23,-128,119,113,67,119,117,212,166,-19,-219,-120,-20,-216,-17,118,-114,80,-30,125,-212,-78,20,-21,24,270,90,90,90,270,270,360,180,90,270,90,,,,,,,,,,,509.9166,509.9169,,0,76,76,76,1,15,novel,,,,,,,,,,,,,,,,,,,,,,,,,,,,,,,,,,,,,,,,,,,,,,,,,
,,20,2,${e://Field/PROLIFIC_PID,F,18,2023-11-03_15h01.43.607,MouseEye_CC,2023.2.2,MacIntel,59.84082341,1.28,,,1440,900,60.955999999999996,4.63,"61.96, 18.93, 511.2, 490.64, 40.27, 503.06, 512.34",797.71,10.63990938,49.26278042,27.83653633,Passed,165.0303144,,,,,,,,,,,,,,,,,,,,,training,5,14,0,left,a,,,,,509.9176,509.9695,35.84,-5.989318848,2.428924561,1,0,0,0.0517,fixationPoint,509.9696,510.0688,510.0694,512.0224,35.84,10240,616.96,a,1,1.9439,,512.0225,512.2232,,,,,,,,16,23,172,-32,67,-68,73,-16,168,-167,-126,-30,-160,-28,-23,118,-114,221,-160,166,-160,68,161,65,112,90,90,270,180,180,90,270,90,180,360,360,,,,,,,,,,,512.2232,512.2234,,0,77,77,77,1,13,novel,,,,,,,,,,,,,,,,,,,,,,,,,,,,,,,,,,,,,,,,,,,,,,,,,
,,20,2,${e://Field/PROLIFIC_PID,F,18,2023-11-03_15h01.43.607,MouseEye_CC,2023.2.2,MacIntel,59.84082341,1.28,,,1440,900,60.955999999999996,4.63,"61.96, 18.93, 511.2, 490.64, 40.27, 503.06, 512.34",797.71,10.63990938,49.26278042,27.83653633,Passed,165.0303144,,,,,,,,,,,,,,,,,,,,,training,5,15,180,right,s,,,,,512.224,512.2925,35.84,-5.989318848,2.428924561,1,0,0,0.0682,fixationPoint,512.2926,512.3909,512.391,513.7958,35.84,10240,616.96,s,1,1.3933,,513.7959,513.9957,,,,,,,,3,-128,215,80,64,65,112,217,70,-210,-124,-27,-120,-120,-20,125,-212,80,-30,67,-216,-67,174,-118,29,270,180,360,90,90,270,90,360,270,360,180,,,,,,,,,,,513.9958,513.996,,0,78,78,78,1,16,novel,,,,,,,,,,,,,,,,,,,,,,,,,,,,,,,,,,,,,,,,,,,,,,,,,
,,20,2,${e://Field/PROLIFIC_PID,F,18,2023-11-03_15h01.43.607,MouseEye_CC,2023.2.2,MacIntel,59.84082341,1.28,,,1440,900,60.955999999999996,4.63,"61.96, 18.93, 511.2, 490.64, 40.27, 503.06, 512.34",797.71,10.63990938,49.26278042,27.83653633,Passed,165.0303144,,,,,,,,,,,,,,,,,,,,,training,5,16,0,left,a,,,,,513.9969,514.0629,35.84,-5.989318848,2.428924561,1,0,0,0.0658,fixationPoint,514.063,514.1612,514.1612,517.5053,35.84,10240,616.96,s,0,3.3293,,517.5054,521.4989,,,,,,,,33,-125,65,212,166,176,169,65,112,-27,-120,-30,-160,-19,-219,17,-72,125,-212,167,-216,-16,168,-27,209,270,180,180,90,360,270,360,180,180,360,180,,,,,,,,,,,521.499,527.4308,space,0,79,79,79,1,4,repeated,5.896,,,,,,,,,,,,,,,,,,,,,,,,,,,,,,,,,,,,,,,,,,,,,,,,
,,20,2,${e://Field/PROLIFIC_PID,F,18,2023-11-03_15h01.43.607,MouseEye_CC,2023.2.2,MacIntel,59.84082341,1.28,,,1440,900,60.955999999999996,4.63,"61.96, 18.93, 511.2, 490.64, 40.27, 503.06, 512.34",797.71,10.63990938,49.26278042,27.83653633,Passed,165.0303144,,,,,,,,,,,,,,,,,,,,,training,6,1,180,right,s,,,,,527.4496,528.0361,35.84,-4.879089355,-1.26385498,1,0,0,0.5861,fixationPoint,528.0362,528.1352,528.1353,529.4868,35.84,10240,616.96,s,1,1.3374,,529.4868,529.6883,,,,,,,,75,-27,-120,218,208,172,223,217,70,-216,29,-21,24,-161,172,118,-114,68,-79,121,-163,-72,-29,-114,-171,180,180,90,180,90,270,180,270,180,270,360,,,,,,,,,,,529.6883,529.6911,,0,80,80,80,1,6,repeated,,,,,,,,,,,,,,,,,,,,,,,,,,,,,,,,,,,,,,,,,,,,,,,,,
,,20,2,${e://Field/PROLIFIC_PID,F,18,2023-11-03_15h01.43.607,MouseEye_CC,2023.2.2,MacIntel,59.84082341,1.28,,,1440,900,60.955999999999996,4.63,"61.96, 18.93, 511.2, 490.64, 40.27, 503.06, 512.34",797.71,10.63990938,49.26278042,27.83653633,Passed,165.0303144,,,,,,,,,,,,,,,,,,,,,training,6,2,0,left,a,,,,,529.6919,529.7398,35.84,-4.879089355,-1.26385498,1,0,0,0.0476,fixationPoint,529.7399,529.8406,529.8407,531.6923,35.84,10240,616.96,a,1,1.8347,,531.6924,531.895,,,,,,,,3,-128,215,113,67,212,166,119,117,-120,-122,-30,-69,-209,-208,118,-114,24,-171,125,-212,-78,114,-128,119,90,90,270,360,180,270,180,360,270,180,360,,,,,,,,,,,531.895,531.8953,,0,81,81,81,1,16,novel,,,,,,,,,,,,,,,,,,,,,,,,,,,,,,,,,,,,,,,,,,,,,,,,,
,,20,2,${e://Field/PROLIFIC_PID,F,18,2023-11-03_15h01.43.607,MouseEye_CC,2023.2.2,MacIntel,59.84082341,1.28,,,1440,900,60.955999999999996,4.63,"61.96, 18.93, 511.2, 490.64, 40.27, 503.06, 512.34",797.71,10.63990938,49.26278042,27.83653633,Passed,165.0303144,,,,,,,,,,,,,,,,,,,,,training,6,3,180,right,s,,,,,531.8962,531.9594,35.84,-4.879089355,-1.26385498,1,0,0,0.063,fixationPoint,531.9599,532.0617,532.0617,532.8468,35.84,10240,616.96,s,1,0.7653,,532.8469,533.0463,,,,,,,,32,-176,74,17,74,124,168,113,67,-70,-128,-72,-29,-209,-208,17,-72,167,-216,80,-30,-165,223,-78,20,270,270,90,180,90,90,180,180,360,180,360,,,,,,,,,,,533.0464,533.0466,,0,82,82,82,1,3,repeated,,,,,,,,,,,,,,,,,,,,,,,,,,,,,,,,,,,,,,,,,,,,,,,,,
,,20,2,${e://Field/PROLIFIC_PID,F,18,2023-11-03_15h01.43.607,MouseEye_CC,2023.2.2,MacIntel,59.84082341,1.28,,,1440,900,60.955999999999996,4.63,"61.96, 18.93, 511.2, 490.64, 40.27, 503.06, 512.34",797.71,10.63990938,49.26278042,27.83653633,Passed,165.0303144,,,,,,,,,,,,,,,,,,,,,training,6,4,0,left,a,,,,,533.0473,533.0969,35.84,-4.879089355,-1.26385498,1,0,0,0.0495,fixationPoint,533.097,533.1952,533.1953,534.1838,35.84,10240,616.96,a,1,0.9802,,534.1839,534.3831,,,,,,,,52,-172,-25,120,28,160,17,68,161,-16,168,-166,126,-29,115,174,-28,17,-72,73,-168,-68,-213,-120,-122,180,180,180,90,270,90,270,180,360,90,270,,,,,,,,,,,534.3831,534.3833,,0,83,83,83,1,9,novel,,,,,,,,,,,,,,,,,,,,,,,,,,,,,,,,,,,,,,,,,,,,,,,,,
,,20,2,${e://Field/PROLIFIC_PID,F,18,2023-11-03_15h01.43.607,MouseEye_CC,2023.2.2,MacIntel,59.84082341,1.28,,,1440,900,60.955999999999996,4.63,"61.96, 18.93, 511.2, 490.64, 40.27, 503.06, 512.34",797.71,10.63990938,49.26278042,27.83653633,Passed,165.0303144,,,,,,,,,,,,,,,,,,,,,training,6,5,180,right,s,,,,,534.3841,534.3993,35.84,-4.879089355,-1.26385498,1,0,0,0.015,fixationPoint,534.3994,534.5021,534.5022,535.1874,35.84,10240,616.96,s,1,0.6681,,535.1875,535.3851,,,,,,,,33,-125,65,212,166,176,169,65,112,-27,-120,-30,-160,-19,-219,17,-72,125,-212,167,-216,-16,168,-27,209,90,270,270,360,180,270,270,360,360,180,270,,,,,,,,,,,535.3852,535.3853,,0,84,84,84,1,4,repeated,,,,,,,,,,,,,,,,,,,,,,,,,,,,,,,,,,,,,,,,,,,,,,,,,
,,20,2,${e://Field/PROLIFIC_PID,F,18,2023-11-03_15h01.43.607,MouseEye_CC,2023.2.2,MacIntel,59.84082341,1.28,,,1440,900,60.955999999999996,4.63,"61.96, 18.93, 511.2, 490.64, 40.27, 503.06, 512.34",797.71,10.63990938,49.26278042,27.83653633,Passed,165.0303144,,,,,,,,,,,,,,,,,,,,,training,6,6,0,left,a,,,,,535.3866,535.4353,35.84,-4.879089355,-1.26385498,1,0,0,0.0486,fixationPoint,535.4354,535.5352,535.5353,538.8473,35.84,10240,616.96,a,1,3.2904,,538.8473,539.0474,,,,,,,,62,-169,-70,165,118,218,208,113,67,-216,29,-166,126,-176,74,17,-72,20,-117,73,-168,-70,-128,-172,-25,180,360,90,270,180,360,90,180,270,180,90,,,,,,,,,,,539.0474,539.0476,,0,85,85,85,1,10,novel,,,,,,,,,,,,,,,,,,,,,,,,,,,,,,,,,,,,,,,,,,,,,,,,,
,,20,2,${e://Field/PROLIFIC_PID,F,18,2023-11-03_15h01.43.607,MouseEye_CC,2023.2.2,MacIntel,59.84082341,1.28,,,1440,900,60.955999999999996,4.63,"61.96, 18.93, 511.2, 490.64, 40.27, 503.06, 512.34",797.71,10.63990938,49.26278042,27.83653633,Passed,165.0303144,,,,,,,,,,,,,,,,,,,,,training,6,7,0,left,a,,,,,539.0486,539.1796,35.84,-4.879089355,-1.26385498,1,0,0,0.1308,fixationPoint,539.1797,539.28,539.28,542.1879,35.84,10240,616.96,a,1,2.8896,,542.188,542.3893,,,,,,,,68,124,-80,113,67,77,220,124,168,-32,67,-113,169,-161,172,-216,-17,-210,-124,-167,-126,213,-25,68,-79,270,90,180,270,360,90,180,180,180,90,270,,,,,,,,,,,542.3893,542.3896,,0,86,86,86,1,12,novel,,,,,,,,,,,,,,,,,,,,,,,,,,,,,,,,,,,,,,,,,,,,,,,,,
,,20,2,${e://Field/PROLIFIC_PID,F,18,2023-11-03_15h01.43.607,MouseEye_CC,2023.2.2,MacIntel,59.84082341,1.28,,,1440,900,60.955999999999996,4.63,"61.96, 18.93, 511.2, 490.64, 40.27, 503.06, 512.34",797.71,10.63990938,49.26278042,27.83653633,Passed,165.0303144,,,,,,,,,,,,,,,,,,,,,training,6,8,0,left,a,,,,,542.3903,542.4372,35.84,-4.879089355,-1.26385498,1,0,0,0.0466,fixationPoint,542.4373,542.5401,542.5402,543.9111,35.84,10240,616.96,a,1,1.3514,,543.9111,544.1094,,,,,,,,49,160,17,-27,209,-216,168,-224,220,-30,-160,-172,-25,-169,-70,166,-160,116,-19,17,-72,212,166,176,169,360,90,90,360,90,180,180,180,270,360,90,,,,,,,,,,,544.1097,544.1099,,0,87,87,87,1,1,repeated,,,,,,,,,,,,,,,,,,,,,,,,,,,,,,,,,,,,,,,,,,,,,,,,,
,,20,2,${e://Field/PROLIFIC_PID,F,18,2023-11-03_15h01.43.607,MouseEye_CC,2023.2.2,MacIntel,59.84082341,1.28,,,1440,900,60.955999999999996,4.63,"61.96, 18.93, 511.2, 490.64, 40.27, 503.06, 512.34",797.71,10.63990938,49.26278042,27.83653633,Passed,165.0303144,,,,,,,,,,,,,,,,,,,,,training,6,9,180,right,s,,,,,544.1105,544.1444,35.84,-4.879089355,-1.26385498,1,0,0,0.0338,fixationPoint,544.1444,544.2421,544.2421,546.6506,35.84,10240,616.96,s,1,2.3942,,546.6507,546.8492,,,,,,,,23,-128,119,217,70,80,64,124,168,-170,-172,-120,-122,-128,-80,121,-163,212,-76,27,-28,-67,174,-113,169,360,180,270,360,270,90,180,360,180,270,360,,,,,,,,,,,546.8493,546.8499,,0,88,88,88,1,15,novel,,,,,,,,,,,,,,,,,,,,,,,,,,,,,,,,,,,,,,,,,,,,,,,,,
,,20,2,${e://Field/PROLIFIC_PID,F,18,2023-11-03_15h01.43.607,MouseEye_CC,2023.2.2,MacIntel,59.84082341,1.28,,,1440,900,60.955999999999996,4.63,"61.96, 18.93, 511.2, 490.64, 40.27, 503.06, 512.34",797.71,10.63990938,49.26278042,27.83653633,Passed,165.0303144,,,,,,,,,,,,,,,,,,,,,training,6,10,180,right,s,,,,,546.8506,546.9827,35.84,-4.879089355,-1.26385498,1,0,0,0.132,fixationPoint,546.9828,547.0836,547.0836,548.5897,35.84,10240,616.96,s,1,1.4882,,548.5897,548.7881,,,,,,,,69,174,-78,28,208,28,125,218,208,-27,209,-16,168,-21,24,-216,-17,-114,-171,-167,-126,118,-114,121,-163,360,180,360,180,360,180,270,180,90,180,180,,,,,,,,,,,548.7881,548.7884,,0,89,89,89,1,11,novel,,,,,,,,,,,,,,,,,,,,,,,,,,,,,,,,,,,,,,,,,,,,,,,,,
,,20,2,${e://Field/PROLIFIC_PID,F,18,2023-11-03_15h01.43.607,MouseEye_CC,2023.2.2,MacIntel,59.84082341,1.28,,,1440,900,60.955999999999996,4.63,"61.96, 18.93, 511.2, 490.64, 40.27, 503.06, 512.34",797.71,10.63990938,49.26278042,27.83653633,Passed,165.0303144,,,,,,,,,,,,,,,,,,,,,training,6,11,0,left,a,,,,,548.7892,548.8541,35.84,-4.879089355,-1.26385498,1,0,0,0.0648,fixationPoint,548.8542,548.9564,548.9565,550.4283,35.84,10240,616.96,a,1,1.4543,,550.4284,550.628,,,,,,,,16,23,172,-67,174,-27,209,-224,220,-69,-174,-172,-25,-68,-70,17,-72,27,-28,67,-216,77,220,120,28,180,180,270,90,90,90,90,180,360,90,180,,,,,,,,,,,550.628,550.6282,,0,90,90,90,1,13,novel,,,,,,,,,,,,,,,,,,,,,,,,,,,,,,,,,,,,,,,,,,,,,,,,,
,,20,2,${e://Field/PROLIFIC_PID,F,18,2023-11-03_15h01.43.607,MouseEye_CC,2023.2.2,MacIntel,59.84082341,1.28,,,1440,900,60.955999999999996,4.63,"61.96, 18.93, 511.2, 490.64, 40.27, 503.06, 512.34",797.71,10.63990938,49.26278042,27.83653633,Passed,165.0303144,,,,,,,,,,,,,,,,,,,,,training,6,12,180,right,s,,,,,550.629,550.7097,35.84,-4.879089355,-1.26385498,1,0,0,0.08,fixationPoint,550.7097,550.814,550.814,552.2489,35.84,10240,616.96,s,1,1.4264,,552.249,552.4472,,,,,,,,85,-30,-160,223,16,160,17,120,28,-68,73,-118,29,-125,65,164,-128,167,-216,70,-118,-72,-29,-216,-17,360,180,90,360,90,180,360,90,360,360,270,,,,,,,,,,,552.4473,552.4482,,0,91,91,91,1,5,repeated,,,,,,,,,,,,,,,,,,,,,,,,,,,,,,,,,,,,,,,,,,,,,,,,,
,,20,2,${e://Field/PROLIFIC_PID,F,18,2023-11-03_15h01.43.607,MouseEye_CC,2023.2.2,MacIntel,59.84082341,1.28,,,1440,900,60.955999999999996,4.63,"61.96, 18.93, 511.2, 490.64, 40.27, 503.06, 512.34",797.71,10.63990938,49.26278042,27.83653633,Passed,165.0303144,,,,,,,,,,,,,,,,,,,,,training,6,13,0,left,a,,,,,552.4489,552.4995,35.84,-4.879089355,-1.26385498,1,0,0,0.0503,fixationPoint,552.4995,552.5994,552.5996,553.7864,35.84,10240,616.96,a,1,1.169,,553.7865,553.9873,,,,,,,,98,125,-212,65,112,28,125,28,208,-216,75,-32,67,-216,29,-216,-17,-68,-213,-70,-128,118,-114,212,-76,180,360,180,360,180,270,270,90,90,360,270,,,,,,,,,,,553.9874,553.9876,,0,92,92,92,1,8,repeated,,,,,,,,,,,,,,,,,,,,,,,,,,,,,,,,,,,,,,,,,,,,,,,,,
,,20,2,${e://Field/PROLIFIC_PID,F,18,2023-11-03_15h01.43.607,MouseEye_CC,2023.2.2,MacIntel,59.84082341,1.28,,,1440,900,60.955999999999996,4.63,"61.96, 18.93, 511.2, 490.64, 40.27, 503.06, 512.34",797.71,10.63990938,49.26278042,27.83653633,Passed,165.0303144,,,,,,,,,,,,,,,,,,,,,training,6,14,180,right,s,,,,,553.9888,554.0706,35.84,-4.879089355,-1.26385498,1,0,0,0.0816,fixationPoint,554.0707,554.169,554.1691,555.2549,35.84,10240,616.96,s,1,1.075,,555.255,555.4572,,,,,,,,39,165,68,-165,223,-27,209,-125,65,-112,-219,-128,-80,-224,-172,213,-25,67,-216,17,-72,17,74,212,166,270,90,270,180,180,360,180,270,180,360,270,,,,,,,,,,,555.4572,555.4578,,0,93,93,93,1,2,repeated,,,,,,,,,,,,,,,,,,,,,,,,,,,,,,,,,,,,,,,,,,,,,,,,,
,,20,2,${e://Field/PROLIFIC_PID,F,18,2023-11-03_15h01.43.607,MouseEye_CC,2023.2.2,MacIntel,59.84082341,1.28,,,1440,900,60.955999999999996,4.63,"61.96, 18.93, 511.2, 490.64, 40.27, 503.06, 512.34",797.71,10.63990938,49.26278042,27.83653633,Passed,165.0303144,,,,,,,,,,,,,,,,,,,,,training,6,15,180,right,s,,,,,555.4584,555.4892,35.84,-4.879089355,-1.26385498,1,0,0,0.0306,fixationPoint,555.4892,555.59,555.5901,557.3793,35.84,10240,616.96,s,1,1.7756,,557.3794,557.579,,,,,,,,26,28,125,-166,126,-165,32,-78,114,-114,-171,-209,-208,-27,-120,221,-160,121,-163,174,-28,77,220,165,68,360,270,90,360,270,270,90,360,180,360,90,,,,,,,,,,,557.5792,557.5794,,0,94,94,94,1,14,novel,,,,,,,,,,,,,,,,,,,,,,,,,,,,,,,,,,,,,,,,,,,,,,,,,
,,20,2,${e://Field/PROLIFIC_PID,F,18,2023-11-03_15h01.43.607,MouseEye_CC,2023.2.2,MacIntel,59.84082341,1.28,,,1440,900,60.955999999999996,4.63,"61.96, 18.93, 511.2, 490.64, 40.27, 503.06, 512.34",797.71,10.63990938,49.26278042,27.83653633,Passed,165.0303144,,,,,,,,,,,,,,,,,,,,,training,6,16,0,left,a,,,,,557.5801,557.6467,35.84,-4.879089355,-1.26385498,1,0,0,0.0664,fixationPoint,557.6468,557.7453,557.7454,559.4515,35.84,10240,616.96,a,1,1.6944,,559.4515,559.6518,,,,,,,,78,118,-114,220,116,17,74,165,118,-67,174,-216,29,-113,169,-19,-219,-224,-172,-209,-65,212,-76,80,-30,270,360,180,180,90,270,360,90,180,360,180,,,,,,,,,,,559.6518,560.5202,space,0,95,95,95,1,7,repeated,0.8401,,,,,,,,,,,,,,,,,,,,,,,,,,,,,,,,,,,,,,,,,,,,,,,,
,,20,2,${e://Field/PROLIFIC_PID,F,18,2023-11-03_15h01.43.607,MouseEye_CC,2023.2.2,MacIntel,59.84082341,1.28,,,1440,900,60.955999999999996,4.63,"61.96, 18.93, 511.2, 490.64, 40.27, 503.06, 512.34",797.71,10.63990938,49.26278042,27.83653633,Passed,165.0303144,,,,,,,,,,,,,,,,,,,,,training,7,1,0,left,a,,,,,560.521,561.0719,35.84,-4.879089355,-1.26385498,1,0,0,0.5506,fixationPoint,561.0719,561.1719,561.172,562.0908,35.84,10240,616.96,a,1,0.9086,,562.0909,562.2907,,,,,,,,16,23,172,-73,208,-118,29,-78,114,-19,-219,-170,-172,-120,-122,124,-80,73,-168,25,-220,124,168,120,28,180,270,270,180,90,270,270,90,270,270,180,,,,,,,,,,,562.2907,562.2929,,0,96,96,96,1,13,novel,,,,,,,,,,,,,,,,,,,,,,,,,,,,,,,,,,,,,,,,,,,,,,,,,
,,20,2,${e://Field/PROLIFIC_PID,F,18,2023-11-03_15h01.43.607,MouseEye_CC,2023.2.2,MacIntel,59.84082341,1.28,,,1440,900,60.955999999999996,4.63,"61.96, 18.93, 511.2, 490.64, 40.27, 503.06, 512.34",797.71,10.63990938,49.26278042,27.83653633,Passed,165.0303144,,,,,,,,,,,,,,,,,,,,,training,7,2,180,right,s,,,,,562.2934,562.609,35.84,-4.879089355,-1.26385498,1,0,0,0.3154,fixationPoint,562.609,562.7081,562.7081,564.3797,35.84,10240,616.96,s,1,1.6593,,564.3799,564.5799,,,,,,,,69,174,-78,68,161,77,220,65,112,-73,208,-67,174,-166,126,-120,-122,-70,-128,-68,-213,27,-28,17,-72,360,360,180,270,180,90,360,180,90,270,90,,,,,,,,,,,564.5799,564.5802,,0,97,97,97,1,11,novel,,,,,,,,,,,,,,,,,,,,,,,,,,,,,,,,,,,,,,,,,,,,,,,,,
,,20,2,${e://Field/PROLIFIC_PID,F,18,2023-11-03_15h01.43.607,MouseEye_CC,2023.2.2,MacIntel,59.84082341,1.28,,,1440,900,60.955999999999996,4.63,"61.96, 18.93, 511.2, 490.64, 40.27, 503.06, 512.34",797.71,10.63990938,49.26278042,27.83653633,Passed,165.0303144,,,,,,,,,,,,,,,,,,,,,training,7,3,180,right,s,,,,,564.5808,564.7294,35.84,-4.879089355,-1.26385498,1,0,0,0.1483,fixationPoint,564.7294,564.8333,564.8334,566.9862,35.84,10240,616.96,s,1,2.1426,,566.9863,567.186,,,,,,,,75,-27,-120,218,208,172,223,217,70,-216,29,-21,24,-161,172,118,-114,68,-79,121,-163,-72,-29,-114,-171,90,270,270,180,180,270,180,180,90,270,360,,,,,,,,,,,567.1861,567.1862,,0,98,98,98,1,6,repeated,,,,,,,,,,,,,,,,,,,,,,,,,,,,,,,,,,,,,,,,,,,,,,,,,
,,20,2,${e://Field/PROLIFIC_PID,F,18,2023-11-03_15h01.43.607,MouseEye_CC,2023.2.2,MacIntel,59.84082341,1.28,,,1440,900,60.955999999999996,4.63,"61.96, 18.93, 511.2, 490.64, 40.27, 503.06, 512.34",797.71,10.63990938,49.26278042,27.83653633,Passed,165.0303144,,,,,,,,,,,,,,,,,,,,,training,7,4,0,left,a,,,,,567.1869,567.2713,35.84,-4.879089355,-1.26385498,1,0,0,0.0843,fixationPoint,567.2713,567.3701,567.3701,568.3742,35.84,10240,616.96,a,1,0.9908,,568.3743,568.576,,,,,,,,26,28,125,-161,172,-166,126,-78,114,-120,-20,-68,-213,-70,-128,212,-76,166,-160,164,-128,17,74,126,215,180,270,270,90,90,180,90,90,360,270,270,,,,,,,,,,,568.576,568.5761,,0,99,99,99,1,14,novel,,,,,,,,,,,,,,,,,,,,,,,,,,,,,,,,,,,,,,,,,,,,,,,,,
,,20,2,${e://Field/PROLIFIC_PID,F,18,2023-11-03_15h01.43.607,MouseEye_CC,2023.2.2,MacIntel,59.84082341,1.28,,,1440,900,60.955999999999996,4.63,"61.96, 18.93, 511.2, 490.64, 40.27, 503.06, 512.34",797.71,10.63990938,49.26278042,27.83653633,Passed,165.0303144,,,,,,,,,,,,,,,,,,,,,training,7,5,180,right,s,,,,,568.5769,568.6587,35.84,-4.879089355,-1.26385498,1,0,0,0.0815,fixationPoint,568.6588,568.7595,568.7595,570.3633,35.84,10240,616.96,s,1,1.5941,,570.3633,570.5661,,,,,,,,78,118,-114,220,116,17,74,165,118,-67,174,-216,29,-113,169,-19,-219,-224,-172,-209,-65,212,-76,80,-30,360,270,270,180,90,90,270,180,360,180,360,,,,,,,,,,,570.5661,570.5669,,0,100,100,100,1,7,repeated,,,,,,,,,,,,,,,,,,,,,,,,,,,,,,,,,,,,,,,,,,,,,,,,,
,,20,2,${e://Field/PROLIFIC_PID,F,18,2023-11-03_15h01.43.607,MouseEye_CC,2023.2.2,MacIntel,59.84082341,1.28,,,1440,900,60.955999999999996,4.63,"61.96, 18.93, 511.2, 490.64, 40.27, 503.06, 512.34",797.71,10.63990938,49.26278042,27.83653633,Passed,165.0303144,,,,,,,,,,,,,,,,,,,,,training,7,6,180,right,s,,,,,570.5674,570.6293,35.84,-4.879089355,-1.26385498,1,0,0,0.0615,fixationPoint,570.6293,570.7311,570.7312,571.8835,35.84,10240,616.96,s,1,1.1345,,571.8836,572.0834,,,,,,,,52,-172,-25,126,215,124,168,80,64,-216,29,-113,169,-27,209,125,-212,27,-28,164,-128,-175,-212,-30,-160,180,270,360,360,180,360,90,360,90,180,360,,,,,,,,,,,572.0834,572.0837,,0,101,101,101,1,9,novel,,,,,,,,,,,,,,,,,,,,,,,,,,,,,,,,,,,,,,,,,,,,,,,,,
,,20,2,${e://Field/PROLIFIC_PID,F,18,2023-11-03_15h01.43.607,MouseEye_CC,2023.2.2,MacIntel,59.84082341,1.28,,,1440,900,60.955999999999996,4.63,"61.96, 18.93, 511.2, 490.64, 40.27, 503.06, 512.34",797.71,10.63990938,49.26278042,27.83653633,Passed,165.0303144,,,,,,,,,,,,,,,,,,,,,training,7,7,180,right,s,,,,,572.0846,572.1666,35.84,-4.879089355,-1.26385498,1,0,0,0.0819,fixationPoint,572.1666,572.2691,572.2692,574.2385,35.84,10240,616.96,s,1,1.9549,,574.2385,574.4419,,,,,,,,3,-128,215,23,172,80,64,65,112,-68,-70,-19,-219,-28,-23,174,-78,125,-212,80,-30,-27,209,-224,220,270,90,270,90,180,360,270,180,180,270,180,,,,,,,,,,,574.4421,574.4423,,0,102,102,102,1,16,novel,,,,,,,,,,,,,,,,,,,,,,,,,,,,,,,,,,,,,,,,,,,,,,,,,
,,20,2,${e://Field/PROLIFIC_PID,F,18,2023-11-03_15h01.43.607,MouseEye_CC,2023.2.2,MacIntel,59.84082341,1.28,,,1440,900,60.955999999999996,4.63,"61.96, 18.93, 511.2, 490.64, 40.27, 503.06, 512.34",797.71,10.63990938,49.26278042,27.83653633,Passed,165.0303144,,,,,,,,,,,,,,,,,,,,,training,7,8,0,left,a,,,,,574.4431,574.5568,35.84,-4.879089355,-1.26385498,1,0,0,0.113,fixationPoint,574.5571,574.6602,574.6603,576.229,35.84,10240,616.96,a,1,1.5607,,576.2292,576.4295,,,,,,,,68,124,-80,160,17,217,70,172,223,-176,74,-113,169,-216,168,-70,-128,-120,-20,-112,-219,70,-118,67,-216,180,360,360,180,90,270,270,90,270,90,90,,,,,,,,,,,576.4295,576.4299,,0,103,103,103,1,12,novel,,,,,,,,,,,,,,,,,,,,,,,,,,,,,,,,,,,,,,,,,,,,,,,,,
,,20,2,${e://Field/PROLIFIC_PID,F,18,2023-11-03_15h01.43.607,MouseEye_CC,2023.2.2,MacIntel,59.84082341,1.28,,,1440,900,60.955999999999996,4.63,"61.96, 18.93, 511.2, 490.64, 40.27, 503.06, 512.34",797.71,10.63990938,49.26278042,27.83653633,Passed,165.0303144,,,,,,,,,,,,,,,,,,,,,training,7,9,180,right,s,,,,,576.4306,576.5473,35.84,-4.879089355,-1.26385498,1,0,0,0.1165,fixationPoint,576.5474,576.6455,576.6455,577.5486,35.84,10240,616.96,s,1,0.8937,,577.5487,577.7491,,,,,,,,62,-169,-70,160,17,28,208,28,125,-165,223,-128,215,-224,220,212,-212,25,-220,121,-163,-170,-172,-216,-17,90,360,360,90,360,90,270,90,90,90,180,,,,,,,,,,,577.7492,577.7494,,0,104,104,104,1,10,novel,,,,,,,,,,,,,,,,,,,,,,,,,,,,,,,,,,,,,,,,,,,,,,,,,
,,20,2,${e://Field/PROLIFIC_PID,F,18,2023-11-03_15h01.43.607,MouseEye_CC,2023.2.2,MacIntel,59.84082341,1.28,,,1440,900,60.955999999999996,4.63,"61.96, 18.93, 511.2, 490.64, 40.27, 503.06, 512.34",797.71,10.63990938,49.26278042,27.83653633,Passed,165.0303144,,,,,,,,,,,,,,,,,,,,,training,7,10,180,right,s,,,,,577.7503,577.8144,35.84,-4.879089355,-1.26385498,1,0,0,0.064,fixationPoint,577.8144,577.9182,577.9187,579.7055,35.84,10240,616.96,s,1,1.7668,,579.7055,579.9038,,,,,,,,98,125,-212,65,112,28,125,28,208,-216,75,-32,67,-216,29,-216,-17,-68,-213,-70,-128,118,-114,212,-76,90,360,90,360,360,180,180,180,360,360,90,,,,,,,,,,,579.9038,579.9041,,0,105,105,105,1,8,repeated,,,,,,,,,,,,,,,,,,,,,,,,,,,,,,,,,,,,,,,,,,,,,,,,,
,,20,2,${e://Field/PROLIFIC_PID,F,18,2023-11-03_15h01.43.607,MouseEye_CC,2023.2.2,MacIntel,59.84082341,1.28,,,1440,900,60.955999999999996,4.63,"61.96, 18.93, 511.2, 490.64, 40.27, 503.06, 512.34",797.71,10.63990938,49.26278042,27.83653633,Passed,165.0303144,,,,,,,,,,,,,,,,,,,,,training,7,11,0,left,a,,,,,579.9048,579.9727,35.84,-4.879089355,-1.26385498,1,0,0,0.0676,fixationPoint,579.9727,580.0717,580.0717,581.4763,35.84,10240,616.96,a,1,1.394,,581.4763,581.6754,,,,,,,,85,-30,-160,223,16,160,17,120,28,-68,73,-118,29,-125,65,164,-128,167,-216,70,-118,-72,-29,-216,-17,270,90,90,90,270,360,360,360,90,180,270,,,,,,,,,,,581.6755,581.6756,,0,106,106,106,1,5,repeated,,,,,,,,,,,,,,,,,,,,,,,,,,,,,,,,,,,,,,,,,,,,,,,,,
,,20,2,${e://Field/PROLIFIC_PID,F,18,2023-11-03_15h01.43.607,MouseEye_CC,2023.2.2,MacIntel,59.84082341,1.28,,,1440,900,60.955999999999996,4.63,"61.96, 18.93, 511.2, 490.64, 40.27, 503.06, 512.34",797.71,10.63990938,49.26278042,27.83653633,Passed,165.0303144,,,,,,,,,,,,,,,,,,,,,training,7,12,0,left,a,,,,,581.6765,581.7083,35.84,-4.879089355,-1.26385498,1,0,0,0.0316,fixationPoint,581.7083,581.8088,581.8091,583.6473,35.84,10240,616.96,a,1,1.8314,,583.6474,583.847,,,,,,,,32,-176,74,17,74,124,168,113,67,-70,-128,-72,-29,-209,-208,17,-72,167,-216,80,-30,-165,223,-78,20,180,180,90,360,360,180,90,270,90,180,360,,,,,,,,,,,583.847,583.8473,,0,107,107,107,1,3,repeated,,,,,,,,,,,,,,,,,,,,,,,,,,,,,,,,,,,,,,,,,,,,,,,,,
,,20,2,${e://Field/PROLIFIC_PID,F,18,2023-11-03_15h01.43.607,MouseEye_CC,2023.2.2,MacIntel,59.84082341,1.28,,,1440,900,60.955999999999996,4.63,"61.96, 18.93, 511.2, 490.64, 40.27, 503.06, 512.34",797.71,10.63990938,49.26278042,27.83653633,Passed,165.0303144,,,,,,,,,,,,,,,,,,,,,training,7,13,0,left,a,,,,,583.8481,583.9314,35.84,-4.879089355,-1.26385498,1,0,0,0.0832,fixationPoint,583.9314,584.032,584.032,584.9359,35.84,10240,616.96,a,1,0.8904,,584.936,585.1337,,,,,,,,23,-128,119,77,220,28,125,217,70,-210,-124,-114,-171,-27,-120,68,-79,27,-28,118,-114,-165,223,-68,73,180,90,360,90,360,90,180,90,180,270,270,,,,,,,,,,,585.1337,585.134,,0,108,108,108,1,15,novel,,,,,,,,,,,,,,,,,,,,,,,,,,,,,,,,,,,,,,,,,,,,,,,,,
,,20,2,${e://Field/PROLIFIC_PID,F,18,2023-11-03_15h01.43.607,MouseEye_CC,2023.2.2,MacIntel,59.84082341,1.28,,,1440,900,60.955999999999996,4.63,"61.96, 18.93, 511.2, 490.64, 40.27, 503.06, 512.34",797.71,10.63990938,49.26278042,27.83653633,Passed,165.0303144,,,,,,,,,,,,,,,,,,,,,training,7,14,0,left,a,,,,,585.1348,585.2549,35.84,-4.879089355,-1.26385498,1,0,0,0.1197,fixationPoint,585.2553,585.3523,585.3524,587.3907,35.84,10240,616.96,a,1,2.0257,,587.3908,587.594,,,,,,,,49,160,17,-27,209,-216,168,-224,220,-30,-160,-172,-25,-169,-70,166,-160,116,-19,17,-72,212,166,176,169,180,270,270,180,90,90,360,180,90,360,90,,,,,,,,,,,587.5941,587.5943,,0,109,109,109,1,1,repeated,,,,,,,,,,,,,,,,,,,,,,,,,,,,,,,,,,,,,,,,,,,,,,,,,
,,20,2,${e://Field/PROLIFIC_PID,F,18,2023-11-03_15h01.43.607,MouseEye_CC,2023.2.2,MacIntel,59.84082341,1.28,,,1440,900,60.955999999999996,4.63,"61.96, 18.93, 511.2, 490.64, 40.27, 503.06, 512.34",797.71,10.63990938,49.26278042,27.83653633,Passed,165.0303144,,,,,,,,,,,,,,,,,,,,,training,7,15,0,left,a,,,,,587.5951,587.6751,35.84,-4.879089355,-1.26385498,1,0,0,0.0797,fixationPoint,587.6752,587.7742,587.7743,590.935,35.84,10240,616.96,a,1,3.1534,,590.935,591.1335,,,,,,,,33,-125,65,212,166,176,169,65,112,-27,-120,-30,-160,-19,-219,17,-72,125,-212,167,-216,-16,168,-27,209,180,360,360,360,180,270,90,180,180,270,360,,,,,,,,,,,591.1336,591.1341,,0,110,110,110,1,4,repeated,,,,,,,,,,,,,,,,,,,,,,,,,,,,,,,,,,,,,,,,,,,,,,,,,
,,20,2,${e://Field/PROLIFIC_PID,F,18,2023-11-03_15h01.43.607,MouseEye_CC,2023.2.2,MacIntel,59.84082341,1.28,,,1440,900,60.955999999999996,4.63,"61.96, 18.93, 511.2, 490.64, 40.27, 503.06, 512.34",797.71,10.63990938,49.26278042,27.83653633,Passed,165.0303144,,,,,,,,,,,,,,,,,,,,,training,7,16,180,right,s,,,,,591.1347,591.2025,35.84,-4.879089355,-1.26385498,1,0,0,0.0677,fixationPoint,591.2025,591.3001,591.3001,592.5042,35.84,10240,616.96,s,1,1.1909,,592.5043,592.7069,,,,,,,,39,165,68,-165,223,-27,209,-125,65,-112,-219,-128,-80,-224,-172,213,-25,67,-216,17,-72,17,74,212,166,360,180,180,360,90,90,90,90,270,180,180,,,,,,,,,,,592.707,593.4093,space,0,111,111,111,1,2,repeated,0.6769,,,,,,,,,,,,,,,,,,,,,,,,,,,,,,,,,,,,,,,,,,,,,,,,
,,20,2,${e://Field/PROLIFIC_PID,F,18,2023-11-03_15h01.43.607,MouseEye_CC,2023.2.2,MacIntel,59.84082341,1.28,,,1440,900,60.955999999999996,4.63,"61.96, 18.93, 511.2, 490.64, 40.27, 503.06, 512.34",797.71,10.63990938,49.26278042,27.83653633,Passed,165.0303144,,,,,,,,,,,,,,,,,,,,,training,8,1,180,right,s,,,,,593.4101,593.8928,35.84,-4.879089355,-1.26385498,1,0,0,0.4825,fixationPoint,593.8929,593.9921,593.9922,595.0611,35.84,10240,616.96,s,1,1.0552,,595.0612,595.2625,,,,,,,,32,-176,74,17,74,124,168,113,67,-70,-128,-72,-29,-209,-208,17,-72,167,-216,80,-30,-165,223,-78,20,360,90,270,180,270,270,180,180,180,90,90,,,,,,,,,,,595.2626,595.2644,,0,112,112,112,1,3,repeated,,,,,,,,,,,,,,,,,,,,,,,,,,,,,,,,,,,,,,,,,,,,,,,,,
