InstrStartPage.started,InstrStartPage.stopped,participant,designid,prolificid,Gender,Age,date,expName,psychopyVersion,OS,frameRate,ratio_monitor2CRT,VirtualChinrest.started,VirtualChinrest.stopped,xRes,yRes,viewingdistance_cm,pixeldensity_px2mm,BallPos,squarePos,mm2degree,px2degree,CRT_px2degree,PassVirtualChinrest,foveaRadius_inPixel,InstrRedo.started,InstrRedo.stopped,VirtualChinrest_Redo.started,VirtualChinrest_Redo.stopped,Redo_virtualChinrest,Instruction1.started,Instruction1.stopped,keyPractice.started,keyPractice.stopped,key_keyprac.keys,key_keyprac.corr,key_keyprac.rt,key_keyprac.duration,keyPracFeedback.started,keyPracFeedback.stopped,keyPracLoop.thisRepN,keyPracLoop.thisTrialN,keyPracLoop.thisN,keyPracLoop.thisIndex,keyPracLoop.ran,phase,block,trial,targOrientdeg,targOrient,corrAnswer,Instruction2.started,Instruction2.stopped,Instruction3.started,Instruction3.stopped,fixation.started,fixation.stopped,fixationSize,mouseintial.x,mouseintial.y,mouseintial.leftButton,mouseintial.midButton,mouseintial.rightButton,mouseintial.time,mouseintial.clicked_name,greenFixation.started,greenFixation.stopped,trial.started,trial.stopped,letterSize,apertureSize,searchsize,key_respMain.keys,key_respMain.corr,key_respMain.rt,key_respMain.duration,trialFeedback.started,trialFeedback.stopped,trialsPractice.thisRepN,trialsPractice.thisTrialN,trialsPractice.thisN,trialsPractice.thisIndex,trialsPractice.ran,targetQuad,Tcondition,targcell,tlocx,tlocy,d1x,d1y,d2x,d2y,d3x,d3y,d4x,d4y,d5x,d5y,d6x,d6y,d7x,d7y,d8x,d8y,d9x,d9y,d10x,d10y,d11x,d11y,d1Orient,d2Orient,d3Orient,d4Orient,d5Orient,d6Orient,d7Orient,d8Orient,d9Orient,d10Orient,d11Orient,CheckInstr.started,CheckInstr.stopped,key_checkInstr.keys,key_checkInstr.corr,key_checkInstr.rt,key_checkInstr.duration,CheckInstr_FB.started,CheckInstr_FB.stopped,Instruction_MainExp.started,Instruction_MainExp.stopped,TakeABreak.started,TakeABreak.stopped,key_respBreak.keys,trials.thisRepN,trials.thisTrialN,trials.thisN,trials.thisIndex,trials.ran,configurationNumber,CCCondition,key_respBreak.rt,key_respBreak.duration,displayTestingPhase.started,displayTestingPhase.stopped,key_respTesting.keys,key_respTesting.corr,key_respTesting.rt,key_respTesting.duration,TakeABreak2.started,TakeABreak2.stopped,key_RespBreak.keys,Testingtrials.thisRepN,Testingtrials.thisTrialN,Testingtrials.thisN,Testingtrials.thisIndex,Testingtrials.ran,key_RespBreak.rt,key_RespBreak.duration,RecogQuestion.started,RecogQuestion.stopped,key_AnswerQues.keys,key_AnswerQues.rt,key_AnswerQues.duration,Disclose.started,Disclose.stopped,InstrRT.started,InstrRT.stopped,fixation_RT.started,fixation_RT.stopped,mouseInitial.x,mouseInitial.y,mouseInitial.leftButton,mouseInitial.midButton,mouseInitial.rightButton,mouseInitial.time,mouseInitial.clicked_name,displayRT.started,displayRT.stopped,key_respRT.keys,key_respRT.corr,key_respRT.rt,key_respRT.duration,RTtrials.thisRepN,RTtrials.thisTrialN,RTtrials.thisN,RTtrials.thisIndex,RTtrials.ran,EndOfExperiment.started,EndOfExperiment.stopped
0.0008,8.5423,20,3,${e://Field/PROLIFIC_PID,M,20,2023-11-03_20h28.15.497,MouseEye_CC,2023.2.2,Win32,60.26637739,1,,,,,,,,,,,,,,,,,,,,,,,,,,,,,,,,,,,,,,,,,,,,,,,,,,,,,,,,,,,,,,,,,,,,,,,,,,,,,,,,,,,,,,,,,,,,,,,,,,,,,,,,,,,,,,,,,,,,,,,,,,,,,,,,,,,,,,,,,,,,,,,,,,,,,,,,,,,,,,,,,,,,,,,,,,,,,,,,,,
,,20,3,${e://Field/PROLIFIC_PID,M,20,2023-11-03_20h28.15.497,MouseEye_CC,2023.2.2,Win32,60.26637739,1.932544587,8.543,97.4701,1536,864,69.727,4.42,"19.16, 25.42, 18.82, 15.68, 17.59, 18.75, 28.15",759.86,12.17089312,53.7953476,27.83653633,Failed,180.2144145,,,,,,,,,,,,,,,,,,,,,,,,,,,,,,,,,,,,,,,,,,,,,,,,,,,,,,,,,,,,,,,,,,,,,,,,,,,,,,,,,,,,,,,,,,,,,,,,,,,,,,,,,,,,,,,,,,,,,,,,,,,,,,,,,,,,,,,,,,,,,,,,,,,,,,,,,,,,,,,,,,,,,
,,20,3,${e://Field/PROLIFIC_PID,M,20,2023-11-03_20h28.15.497,MouseEye_CC,2023.2.2,Win32,60.26637739,1.932544587,,,1536,864,69.727,4.42,"19.16, 25.42, 18.82, 15.68, 17.59, 18.75, 28.15",759.86,12.17089312,53.7953476,27.83653633,Failed,180.2144145,97.4705,105.6952,,,,,,,,,,,,,,,,,,,,,,,,,,,,,,,,,,,,,,,,,,,,,,,,,,,,,,,,,,,,,,,,,,,,,,,,,,,,,,,,,,,,,,,,,,,,,,,,,,,,,,,,,,,,,,,,,,,,,,,,,,,,,,,,,,,,,,,,,,,,,,,,,,,,,,,,,,,,,,,,,,,
,,20,3,${e://Field/PROLIFIC_PID,M,20,2023-11-03_20h28.15.497,MouseEye_CC,2023.2.2,Win32,60.26637739,1.28,,,1536,864,61.891,4.42,"19.16, 25.42, 18.82, 15.68, 17.59, 18.75, 28.15",759.86,10.80311423,47.74976492,27.83653633,Failed,159.9617125,,,105.6954,160.6424,failed,,,,,,,,,,,,,,,,,,,,,,,,,,,,,,,,,,,,,,,,,,,,,,,,,,,,,,,,,,,,,,,,,,,,,,,,,,,,,,,,,,,,,,,,,,,,,,,,,,,,,,,,,,,,,,,,,,,,,,,,,,,,,,,,,,,,,,,,,,,,,,,,,,,,,,,,,,,,,,,,
,,20,3,${e://Field/PROLIFIC_PID,M,20,2023-11-03_20h28.15.497,MouseEye_CC,2023.2.2,Win32,60.26637739,1.28,,,1536,864,61.891,4.42,"19.16, 25.42, 18.82, 15.68, 17.59, 18.75, 28.15",759.86,10.80311423,47.74976492,27.83653633,Failed,159.9617125,,,,,,160.6426,165.0496,,,,,,,,,,,,,,,,,,,,,,,,,,,,,,,,,,,,,,,,,,,,,,,,,,,,,,,,,,,,,,,,,,,,,,,,,,,,,,,,,,,,,,,,,,,,,,,,,,,,,,,,,,,,,,,,,,,,,,,,,,,,,,,,,,,,,,,,,,,,,,,,,,,,,,,,,,,,,,
,,20,3,${e://Field/PROLIFIC_PID,M,20,2023-11-03_20h28.15.497,MouseEye_CC,2023.2.2,Win32,60.26637739,1.28,,,1536,864,61.891,4.42,"19.16, 25.42, 18.82, 15.68, 17.59, 18.75, 28.15",759.86,10.80311423,47.74976492,27.83653633,Failed,159.9617125,,,,,,,,165.096,166.2898,a,1,0.6445,,166.2901,166.7893,0,0,0,0,1,practice,1,1,0,left,a,,,,,,,,,,,,,,,,,,,,,,,,,,,,,,,,,,,,,,,,,,,,,,,,,,,,,,,,,,,,,,,,,,,,,,,,,,,,,,,,,,,,,,,,,,,,,,,,,,,,,,,,,,,,,,,,,,,,,,,,,,,,,,,,,,,,,,,,,,,
,,20,3,${e://Field/PROLIFIC_PID,M,20,2023-11-03_20h28.15.497,MouseEye_CC,2023.2.2,Win32,60.26637739,1.28,,,1536,864,61.891,4.42,"19.16, 25.42, 18.82, 15.68, 17.59, 18.75, 28.15",759.86,10.80311423,47.74976492,27.83653633,Failed,159.9617125,,,,,,,,166.7905,167.7207,a,1,0.3889,,167.7208,168.2233,0,1,1,1,1,practice,1,2,0,left,a,,,,,,,,,,,,,,,,,,,,,,,,,,,,,,,,,,,,,,,,,,,,,,,,,,,,,,,,,,,,,,,,,,,,,,,,,,,,,,,,,,,,,,,,,,,,,,,,,,,,,,,,,,,,,,,,,,,,,,,,,,,,,,,,,,,,,,,,,,,
,,20,3,${e://Field/PROLIFIC_PID,M,20,2023-11-03_20h28.15.497,MouseEye_CC,2023.2.2,Win32,60.26637739,1.28,,,1536,864,61.891,4.42,"19.16, 25.42, 18.82, 15.68, 17.59, 18.75, 28.15",759.86,10.80311423,47.74976492,27.83653633,Failed,159.9617125,,,,,,,,168.2251,169.1067,a,1,0.3655,,169.1069,169.6033,0,2,2,2,1,practice,1,3,0,left,a,,,,,,,,,,,,,,,,,,,,,,,,,,,,,,,,,,,,,,,,,,,,,,,,,,,,,,,,,,,,,,,,,,,,,,,,,,,,,,,,,,,,,,,,,,,,,,,,,,,,,,,,,,,,,,,,,,,,,,,,,,,,,,,,,,,,,,,,,,,
,,20,3,${e://Field/PROLIFIC_PID,M,20,2023-11-03_20h28.15.497,MouseEye_CC,2023.2.2,Win32,60.26637739,1.28,,,1536,864,61.891,4.42,"19.16, 25.42, 18.82, 15.68, 17.59, 18.75, 28.15",759.86,10.80311423,47.74976492,27.83653633,Failed,159.9617125,,,,,,,,169.6045,170.5413,s,1,0.4193,,170.5414,171.0359,0,3,3,3,1,practice,1,4,180,right,s,,,,,,,,,,,,,,,,,,,,,,,,,,,,,,,,,,,,,,,,,,,,,,,,,,,,,,,,,,,,,,,,,,,,,,,,,,,,,,,,,,,,,,,,,,,,,,,,,,,,,,,,,,,,,,,,,,,,,,,,,,,,,,,,,,,,,,,,,,,
,,20,3,${e://Field/PROLIFIC_PID,M,20,2023-11-03_20h28.15.497,MouseEye_CC,2023.2.2,Win32,60.26637739,1.28,,,1536,864,61.891,4.42,"19.16, 25.42, 18.82, 15.68, 17.59, 18.75, 28.15",759.86,10.80311423,47.74976492,27.83653633,Failed,159.9617125,,,,,,,,171.0372,171.9589,s,1,0.4007,,171.9589,172.4516,0,4,4,4,1,practice,1,5,180,right,s,,,,,,,,,,,,,,,,,,,,,,,,,,,,,,,,,,,,,,,,,,,,,,,,,,,,,,,,,,,,,,,,,,,,,,,,,,,,,,,,,,,,,,,,,,,,,,,,,,,,,,,,,,,,,,,,,,,,,,,,,,,,,,,,,,,,,,,,,,,
,,20,3,${e://Field/PROLIFIC_PID,M,20,2023-11-03_20h28.15.497,MouseEye_CC,2023.2.2,Win32,60.26637739,1.28,,,1536,864,61.891,4.42,"19.16, 25.42, 18.82, 15.68, 17.59, 18.75, 28.15",759.86,10.80311423,47.74976492,27.83653633,Failed,159.9617125,,,,,,,,172.4523,173.3682,a,1,0.3775,,173.3682,173.8681,0,5,5,5,1,practice,1,6,0,left,a,,,,,,,,,,,,,,,,,,,,,,,,,,,,,,,,,,,,,,,,,,,,,,,,,,,,,,,,,,,,,,,,,,,,,,,,,,,,,,,,,,,,,,,,,,,,,,,,,,,,,,,,,,,,,,,,,,,,,,,,,,,,,,,,,,,,,,,,,,,
,,20,3,${e://Field/PROLIFIC_PID,M,20,2023-11-03_20h28.15.497,MouseEye_CC,2023.2.2,Win32,60.26637739,1.28,,,1536,864,61.891,4.42,"19.16, 25.42, 18.82, 15.68, 17.59, 18.75, 28.15",759.86,10.80311423,47.74976492,27.83653633,Failed,159.9617125,,,,,,,,,,,,,,,,,,,,,,,,,,,173.8698,175.1906,,,,,,,,,,,,,,,,,,,,,,,,,,,,,,,,,,,,,,,,,,,,,,,,,,,,,,,,,,,,,,,,,,,,,,,,,,,,,,,,,,,,,,,,,,,,,,,,,,,,,,,,,,,,,,,,,,,,,,,,,,,,,,,,,,,,,,,,,
,,20,3,${e://Field/PROLIFIC_PID,M,20,2023-11-03_20h28.15.497,MouseEye_CC,2023.2.2,Win32,60.26637739,1.28,,,1536,864,61.891,4.42,"19.16, 25.42, 18.82, 15.68, 17.59, 18.75, 28.15",759.86,10.80311423,47.74976492,27.83653633,Failed,159.9617125,,,,,,,,,,,,,,,,,,,,,,,,,,,,,175.1908,178.4671,,,,,,,,,,,,,,,,,,,,,,,,,,,,,,,,,,,,,,,,,,,,,,,,,,,,,,,,,,,,,,,,,,,,,,,,,,,,,,,,,,,,,,,,,,,,,,,,,,,,,,,,,,,,,,,,,,,,,,,,,,,,,,,,,,,,,,,
,,20,3,${e://Field/PROLIFIC_PID,M,20,2023-11-03_20h28.15.497,MouseEye_CC,2023.2.2,Win32,60.26637739,1.28,,,1536,864,61.891,4.42,"19.16, 25.42, 18.82, 15.68, 17.59, 18.75, 28.15",759.86,10.80311423,47.74976492,27.83653633,Failed,159.9617125,,,,,,,,,,,,,,,,,,,,,practice,0,1,0,left,a,,,,,178.5233,179.3405,35.84,2.400024414,-1.200012207,1,0,0,0.8167,fixationPoint,179.3408,179.432,179.4332,182.2486,35.84,10240,616.96,a,1,2.7889,,182.249,182.4375,0,0,0,0,1,4,sparse,90,217,-164,68,123,222,26,214,216,-218,159,-120,223,-110,82,-115,-130,-224,-120,-68,-219,79,-175,19,-128,90,270,360,90,270,270,180,90,90,90,270,,,,,,,,,,,,,,,,,,,,,,,,,,,,,,,,,,,,,,,,,,,,,,,,,,,,,,,,,,,,,,,,,,,,,
,,20,3,${e://Field/PROLIFIC_PID,M,20,2023-11-03_20h28.15.497,MouseEye_CC,2023.2.2,Win32,60.26637739,1.28,,,1536,864,61.891,4.42,"19.16, 25.42, 18.82, 15.68, 17.59, 18.75, 28.15",759.86,10.80311423,47.74976492,27.83653633,Failed,159.9617125,,,,,,,,,,,,,,,,,,,,,practice,0,2,0,left,a,,,,,182.4383,182.8862,35.84,6.400024414,-3.600006104,1,0,0,0.4477,fixationPoint,182.8863,182.9795,182.9795,186.8008,35.84,10240,616.96,a,1,3.7978,,186.8009,186.9995,0,1,1,1,1,1,rich,39,169,66,-126,125,-169,169,-130,19,-169,-116,-125,-167,-224,-216,218,-129,171,-218,18,-208,166,26,17,170,180,90,360,270,90,90,90,270,180,180,270,,,,,,,,,,,,,,,,,,,,,,,,,,,,,,,,,,,,,,,,,,,,,,,,,,,,,,,,,,,,,,,,,,,,,
,,20,3,${e://Field/PROLIFIC_PID,M,20,2023-11-03_20h28.15.497,MouseEye_CC,2023.2.2,Win32,60.26637739,1.28,,,1536,864,61.891,4.42,"19.16, 25.42, 18.82, 15.68, 17.59, 18.75, 28.15",759.86,10.80311423,47.74976492,27.83653633,Failed,159.9617125,,,,,,,,,,,,,,,,,,,,,practice,0,3,0,left,a,,,,,187.0003,189.2098,35.84,6.400024414,-3.600006104,1,0,0,2.2091,fixationPoint,189.2099,189.3096,189.3097,191.7584,35.84,10240,616.96,a,1,2.4218,,191.7584,191.9584,0,2,2,2,1,2,sparse,22,-162,126,222,26,17,170,126,172,-25,-117,-175,-206,-224,-216,116,-19,130,-174,217,-164,-218,159,-21,162,90,90,180,360,360,270,360,360,360,360,180,,,,,,,,,,,,,,,,,,,,,,,,,,,,,,,,,,,,,,,,,,,,,,,,,,,,,,,,,,,,,,,,,,,,,
,,20,3,${e://Field/PROLIFIC_PID,M,20,2023-11-03_20h28.15.497,MouseEye_CC,2023.2.2,Win32,60.26637739,1.28,,,1536,864,61.891,4.42,"19.16, 25.42, 18.82, 15.68, 17.59, 18.75, 28.15",759.86,10.80311423,47.74976492,27.83653633,Failed,159.9617125,,,,,,,,,,,,,,,,,,,,,practice,0,4,180,right,s,,,,,191.9591,192.1416,35.84,6.400024414,-3.600006104,1,0,0,0.1822,fixationPoint,192.1419,192.2418,192.2418,194.1794,35.84,10240,616.96,s,1,1.9159,,194.1795,194.374,0,3,3,3,1,4,sparse,76,19,-128,159,121,214,216,219,165,-218,159,-162,126,-219,119,-169,-116,-111,-31,-175,-206,18,-208,81,-114,90,270,180,180,270,180,360,360,360,270,360,,,,,,,,,,,,,,,,,,,,,,,,,,,,,,,,,,,,,,,,,,,,,,,,,,,,,,,,,,,,,,,,,,,,,
,,20,3,${e://Field/PROLIFIC_PID,M,20,2023-11-03_20h28.15.497,MouseEye_CC,2023.2.2,Win32,60.26637739,1.28,,,1536,864,61.891,4.42,"19.16, 25.42, 18.82, 15.68, 17.59, 18.75, 28.15",759.86,10.80311423,47.74976492,27.83653633,Failed,159.9617125,,,,,,,,,,,,,,,,,,,,,practice,0,5,180,right,s,,,,,194.3758,194.43,35.84,0,-3.600006104,1,0,0,0.0539,fixationPoint,194.43,194.5242,194.5245,195.574,35.84,10240,616.96,s,1,1.0212,,195.5742,195.773,0,4,4,4,1,3,sparse,85,-19,-173,219,165,68,123,214,216,-160,68,-64,120,-226,34,162,-21,224,-216,167,-163,-167,-74,-224,-216,360,360,360,90,180,270,90,360,270,270,360,,,,,,,,,,,,,,,,,,,,,,,,,,,,,,,,,,,,,,,,,,,,,,,,,,,,,,,,,,,,,,,,,,,,,
,,20,3,${e://Field/PROLIFIC_PID,M,20,2023-11-03_20h28.15.497,MouseEye_CC,2023.2.2,Win32,60.26637739,1.28,,,1536,864,61.891,4.42,"19.16, 25.42, 18.82, 15.68, 17.59, 18.75, 28.15",759.86,10.80311423,47.74976492,27.83653633,Failed,159.9617125,,,,,,,,,,,,,,,,,,,,,practice,0,6,180,right,s,,,,,195.7743,195.7972,35.84,0,-3.600006104,1,0,0,0.0227,fixationPoint,195.7973,195.8908,195.891,196.7065,35.84,10240,616.96,s,1,0.7918,,196.7065,196.9124,0,5,5,5,1,3,sparse,95,-21,-224,126,172,219,165,166,26,-166,207,-223,206,-219,119,169,-75,18,-208,224,-216,-72,-121,-115,-130,180,180,360,180,360,180,270,180,90,180,360,,,,,,,,,,,,,,,,,,,,,,,,,,,,,,,,,,,,,,,,,,,,,,,,,,,,,,,,,,,,,,,,,,,,,
,,20,3,${e://Field/PROLIFIC_PID,M,20,2023-11-03_20h28.15.497,MouseEye_CC,2023.2.2,Win32,60.26637739,1.28,,,1536,864,61.891,4.42,"19.16, 25.42, 18.82, 15.68, 17.59, 18.75, 28.15",759.86,10.80311423,47.74976492,27.83653633,Failed,159.9617125,,,,,,,,,,,,,,,,,,,,,practice,0,7,0,left,a,,,,,196.9131,196.9731,35.84,0,-3.600006104,1,0,0,0.0598,fixationPoint,196.9735,197.0729,197.073,199.1282,35.84,10240,616.96,a,1,2.0341,,199.1283,199.3217,0,6,6,6,1,1,rich,7,62,223,-166,207,-226,34,-162,126,-169,-116,-168,-160,-161,-27,15,-162,162,-21,79,-175,219,165,219,129,180,180,360,180,270,360,180,360,270,180,360,,,,,,,,,,,,,,,,,,,,,,,,,,,,,,,,,,,,,,,,,,,,,,,,,,,,,,,,,,,,,,,,,,,,,
,,20,3,${e://Field/PROLIFIC_PID,M,20,2023-11-03_20h28.15.497,MouseEye_CC,2023.2.2,Win32,60.26637739,1.28,,,1536,864,61.891,4.42,"19.16, 25.42, 18.82, 15.68, 17.59, 18.75, 28.15",759.86,10.80311423,47.74976492,27.83653633,Failed,159.9617125,,,,,,,,,,,,,,,,,,,,,practice,0,8,180,right,s,,,,,199.3233,199.855,35.84,0,-3.600006104,1,0,0,0.5313,fixationPoint,199.8551,199.9548,199.955,201.7872,35.84,10240,616.96,s,1,1.8071,,201.7876,201.9914,0,7,7,7,1,2,sparse,24,-64,120,18,215,126,172,33,121,-206,-170,-64,-162,-218,-78,130,-174,211,-74,168,-130,-164,32,-21,162,90,180,270,360,180,90,180,180,180,360,270,,,,,,,,,,,,,,,,,,,,,,,,,,,,,,,,,,,,,,,,,,,,,,,,,,,,,,,,,,,,,,,,,,,,,
,,20,3,${e://Field/PROLIFIC_PID,M,20,2023-11-03_20h28.15.497,MouseEye_CC,2023.2.2,Win32,60.26637739,1.28,,,1536,864,61.891,4.42,"19.16, 25.42, 18.82, 15.68, 17.59, 18.75, 28.15",759.86,10.80311423,47.74976492,27.83653633,Failed,159.9617125,,,,,,,,,,,,,,,,,,,,,practice,0,9,180,right,s,,,,,201.9918,202.0363,35.84,0,-3.600006104,1,0,0,0.0444,fixationPoint,202.0365,202.138,202.1383,204.2595,35.84,10240,616.96,s,1,2.0999,,204.2597,204.457,0,8,8,8,1,3,sparse,85,-19,-173,127,30,62,223,217,67,-110,82,-21,162,-80,218,167,-163,126,-79,130,-174,-125,-167,-68,-219,360,360,360,180,360,360,180,270,90,360,180,,,,,,,,,,,,,,,,,,,,,,,,,,,,,,,,,,,,,,,,,,,,,,,,,,,,,,,,,,,,,,,,,,,,,
,,20,3,${e://Field/PROLIFIC_PID,M,20,2023-11-03_20h28.15.497,MouseEye_CC,2023.2.2,Win32,60.26637739,1.28,,,1536,864,61.891,4.42,"19.16, 25.42, 18.82, 15.68, 17.59, 18.75, 28.15",759.86,10.80311423,47.74976492,27.83653633,Failed,159.9617125,,,,,,,,,,,,,,,,,,,,,practice,0,10,180,right,s,,,,,204.4578,204.5025,35.84,0,-3.600006104,1,0,0,0.0445,fixationPoint,204.5027,204.6024,204.6026,207.3554,35.84,10240,616.96,s,1,2.7311,,207.3555,207.5505,0,9,9,9,1,1,rich,9,160,209,-166,207,-226,34,-120,223,-224,-120,-118,-217,-218,-78,112,-209,126,-113,169,-75,178,160,110,129,180,90,90,270,360,270,360,180,360,180,360,,,,,,,,,,,,,,,,,,,,,,,,,,,,,,,,,,,,,,,,,,,,,,,,,,,,,,,,,,,,,,,,,,,,,
,,20,3,${e://Field/PROLIFIC_PID,M,20,2023-11-03_20h28.15.497,MouseEye_CC,2023.2.2,Win32,60.26637739,1.28,,,1536,864,61.891,4.42,"19.16, 25.42, 18.82, 15.68, 17.59, 18.75, 28.15",759.86,10.80311423,47.74976492,27.83653633,Failed,159.9617125,,,,,,,,,,,,,,,,,,,,,practice,0,11,180,right,s,,,,,207.5524,207.5729,35.84,0,-3.600006104,1,0,0,0.0202,fixationPoint,207.5729,207.6674,207.6676,210.6666,35.84,10240,616.96,s,1,2.9617,,210.667,210.8661,0,10,10,10,1,4,sparse,80,218,-129,62,223,159,121,110,129,-218,159,-223,206,-75,173,-169,-116,-118,-217,-125,-167,217,-164,169,-75,360,270,360,180,360,180,180,270,360,180,90,,,,,,,,,,,,,,,,,,,,,,,,,,,,,,,,,,,,,,,,,,,,,,,,,,,,,,,,,,,,,,,,,,,,,
,,20,3,${e://Field/PROLIFIC_PID,M,20,2023-11-03_20h28.15.497,MouseEye_CC,2023.2.2,Win32,60.26637739,1.28,,,1536,864,61.891,4.42,"19.16, 25.42, 18.82, 15.68, 17.59, 18.75, 28.15",759.86,10.80311423,47.74976492,27.83653633,Failed,159.9617125,,,,,,,,,,,,,,,,,,,,,practice,0,12,0,left,a,,,,,210.868,210.8884,35.84,0,-3.600006104,1,0,0,0.0201,fixationPoint,210.8885,210.9877,210.9877,211.856,35.84,10240,616.96,a,1,0.8499,,211.856,212.053,0,11,11,11,1,3,sparse,75,-25,-117,110,129,125,63,214,216,-164,32,-27,117,-126,125,171,-218,126,-113,167,-163,-21,-224,-212,-21,270,180,180,360,180,270,360,270,360,180,270,,,,,,,,,,,,,,,,,,,,,,,,,,,,,,,,,,,,,,,,,,,,,,,,,,,,,,,,,,,,,,,,,,,,,
,,20,3,${e://Field/PROLIFIC_PID,M,20,2023-11-03_20h28.15.497,MouseEye_CC,2023.2.2,Win32,60.26637739,1.28,,,1536,864,61.891,4.42,"19.16, 25.42, 18.82, 15.68, 17.59, 18.75, 28.15",759.86,10.80311423,47.74976492,27.83653633,Failed,159.9617125,,,,,,,,,,,,,,,,,,,,,,,,,,,,,,,,,,,,,,,,,,,,,,,,,,,,,,,,,,,,,,,,,,,,,,,,,,,,,,,,,,,,,,,,,,,,,,,,,212.0538,213.3647,a,1,1.2893,,,,,,,,,,,,,,,,,,,,,,,,,,,,,,,,,,,,,,,,,,,,,,,,,,,,,,,,,,,,,,,,
,,20,3,${e://Field/PROLIFIC_PID,M,20,2023-11-03_20h28.15.497,MouseEye_CC,2023.2.2,Win32,60.26637739,1.28,,,1536,864,61.891,4.42,"19.16, 25.42, 18.82, 15.68, 17.59, 18.75, 28.15",759.86,10.80311423,47.74976492,27.83653633,Failed,159.9617125,,,,,,,,,,,,,,,,,,,,,,,,,,,,,,,,,,,,,,,,,,,,,,,,,,,,,,,,,,,,,,,,,,,,,,,,,,,,,,,,,,,,,,,,,,,,,,,,,,,,,,,213.3651,221.9452,,,,,,,,,,,,,,,,,,,,,,,,,,,,,,,,,,,,,,,,,,,,,,,,,,,,,,,,,,,,,
,,20,3,${e://Field/PROLIFIC_PID,M,20,2023-11-03_20h28.15.497,MouseEye_CC,2023.2.2,Win32,60.26637739,1.28,,,1536,864,61.891,4.42,"19.16, 25.42, 18.82, 15.68, 17.59, 18.75, 28.15",759.86,10.80311423,47.74976492,27.83653633,Failed,159.9617125,,,,,,,,,,,,,,,,,,,,,,,,,,,,,,,,,,,,,,,,,,,,,,,,,,,,,,,,,,,,,,,,,,,,,,,,,,,,,,,,,,,,,,,,,,,,,,,,,,,,,,,,,221.9455,225.4266,,,,,,,,,,,,,,,,,,,,,,,,,,,,,,,,,,,,,,,,,,,,,,,,,,,,,,,,,,,
,,20,3,${e://Field/PROLIFIC_PID,M,20,2023-11-03_20h28.15.497,MouseEye_CC,2023.2.2,Win32,60.26637739,1.28,,,1536,864,61.891,4.42,"19.16, 25.42, 18.82, 15.68, 17.59, 18.75, 28.15",759.86,10.80311423,47.74976492,27.83653633,Failed,159.9617125,,,,,,,,,,,,,,,,,,,,,training,1,1,0,left,a,,,,,225.5769,225.9919,35.84,0,-3.600006104,1,0,0,0.4148,fixationPoint,225.992,226.0913,226.0915,227.2411,35.84,10240,616.96,a,1,1.1252,,227.2413,227.4409,,,,,,,,52,-176,-24,174,64,216,122,166,212,-120,76,-126,120,-128,26,116,-19,19,-116,208,-75,-167,-128,-66,-77,90,90,270,180,270,270,180,360,360,270,180,,,,,,,,,,,227.4422,227.447,,0,0,0,0,1,6,repeated,,,,,,,,,,,,,,,,,,,,,,,,,,,,,,,,,,,,,,,,,,,,,,,,,
,,20,3,${e://Field/PROLIFIC_PID,M,20,2023-11-03_20h28.15.497,MouseEye_CC,2023.2.2,Win32,60.26637739,1.28,,,1536,864,61.891,4.42,"19.16, 25.42, 18.82, 15.68, 17.59, 18.75, 28.15",759.86,10.80311423,47.74976492,27.83653633,Failed,159.9617125,,,,,,,,,,,,,,,,,,,,,training,1,2,180,right,s,,,,,227.4477,227.6412,35.84,0,-3.600006104,1,0,0,0.193,fixationPoint,227.6415,227.7442,227.7443,229.8898,35.84,10240,616.96,s,1,2.1184,,229.8901,230.0894,,,,,,,,13,-124,175,166,212,31,22,169,164,-72,-165,-19,-29,-214,-124,124,-116,176,-216,24,-22,-171,126,-21,220,360,360,180,360,180,270,180,270,270,360,90,,,,,,,,,,,230.0896,230.0902,,0,1,1,1,1,3,repeated,,,,,,,,,,,,,,,,,,,,,,,,,,,,,,,,,,,,,,,,,,,,,,,,,
,,20,3,${e://Field/PROLIFIC_PID,M,20,2023-11-03_20h28.15.497,MouseEye_CC,2023.2.2,Win32,60.26637739,1.28,,,1536,864,61.891,4.42,"19.16, 25.42, 18.82, 15.68, 17.59, 18.75, 28.15",759.86,10.80311423,47.74976492,27.83653633,Failed,159.9617125,,,,,,,,,,,,,,,,,,,,,training,1,3,0,left,a,,,,,230.0912,230.2057,35.84,0,-3.600006104,1,0,0,0.1144,fixationPoint,230.2058,230.306,230.3061,232.0957,35.84,10240,616.96,a,1,1.7665,,232.0958,232.2881,,,,,,,,49,170,28,-163,209,-216,70,-78,29,-223,-220,-66,-77,-116,-123,124,-116,176,-176,77,-220,166,212,122,31,270,270,270,270,90,90,270,180,90,360,360,,,,,,,,,,,232.2882,232.2885,,0,2,2,2,1,14,novel,,,,,,,,,,,,,,,,,,,,,,,,,,,,,,,,,,,,,,,,,,,,,,,,,
,,20,3,${e://Field/PROLIFIC_PID,M,20,2023-11-03_20h28.15.497,MouseEye_CC,2023.2.2,Win32,60.26637739,1.28,,,1536,864,61.891,4.42,"19.16, 25.42, 18.82, 15.68, 17.59, 18.75, 28.15",759.86,10.80311423,47.74976492,27.83653633,Failed,159.9617125,,,,,,,,,,,,,,,,,,,,,training,1,4,180,right,s,,,,,232.2896,232.379,35.84,0,-3.600006104,1,0,0,0.089,fixationPoint,232.379,232.478,232.4781,235.0997,35.84,10240,616.96,s,1,2.5805,,235.0997,235.3033,,,,,,,,93,-128,-222,172,127,112,119,66,22,-25,160,-160,18,-174,73,176,-176,77,-220,28,-75,-212,-80,-214,-124,360,360,90,180,270,180,360,180,360,270,90,,,,,,,,,,,235.3034,235.3038,,0,3,3,3,1,5,repeated,,,,,,,,,,,,,,,,,,,,,,,,,,,,,,,,,,,,,,,,,,,,,,,,,
,,20,3,${e://Field/PROLIFIC_PID,M,20,2023-11-03_20h28.15.497,MouseEye_CC,2023.2.2,Win32,60.26637739,1.28,,,1536,864,61.891,4.42,"19.16, 25.42, 18.82, 15.68, 17.59, 18.75, 28.15",759.86,10.80311423,47.74976492,27.83653633,Failed,159.9617125,,,,,,,,,,,,,,,,,,,,,training,1,5,0,left,a,,,,,235.3047,235.3535,35.84,0,-3.600006104,1,0,0,0.0485,fixationPoint,235.3536,235.4531,235.4532,237.3525,35.84,10240,616.96,a,1,1.8849,,237.3526,237.5521,,,,,,,,12,-161,170,116,172,223,212,209,68,-167,-128,-174,-163,-220,-16,120,-165,24,-22,176,-216,-128,208,-216,70,180,90,270,270,90,90,360,270,180,270,360,,,,,,,,,,,237.5521,237.5523,,0,4,4,4,1,4,repeated,,,,,,,,,,,,,,,,,,,,,,,,,,,,,,,,,,,,,,,,,,,,,,,,,
,,20,3,${e://Field/PROLIFIC_PID,M,20,2023-11-03_20h28.15.497,MouseEye_CC,2023.2.2,Win32,60.26637739,1.28,,,1536,864,61.891,4.42,"19.16, 25.42, 18.82, 15.68, 17.59, 18.75, 28.15",759.86,10.80311423,47.74976492,27.83653633,Failed,159.9617125,,,,,,,,,,,,,,,,,,,,,training,1,6,180,right,s,,,,,237.5528,237.6685,35.84,0,-3.600006104,1,0,0,0.1157,fixationPoint,237.6686,237.7683,237.7684,240.7571,35.84,10240,616.96,s,1,2.9815,,240.7571,240.9503,,,,,,,,8,123,215,-220,23,-75,123,-78,29,-176,-24,-26,-65,-171,-65,19,-116,23,-168,80,-73,20,75,169,164,180,270,270,270,270,180,180,270,90,270,90,,,,,,,,,,,240.9505,240.9513,,0,5,5,5,1,13,novel,,,,,,,,,,,,,,,,,,,,,,,,,,,,,,,,,,,,,,,,,,,,,,,,,
,,20,3,${e://Field/PROLIFIC_PID,M,20,2023-11-03_20h28.15.497,MouseEye_CC,2023.2.2,Win32,60.26637739,1.28,,,1536,864,61.891,4.42,"19.16, 25.42, 18.82, 15.68, 17.59, 18.75, 28.15",759.86,10.80311423,47.74976492,27.83653633,Failed,159.9617125,,,,,,,,,,,,,,,,,,,,,training,1,7,0,left,a,,,,,240.9525,241.0171,35.84,0,-3.600006104,1,0,0,0.0644,fixationPoint,241.0173,241.1171,241.1172,243.9699,35.84,10240,616.96,a,1,2.83,,243.9699,244.1656,,,,,,,,89,176,-176,74,216,31,166,77,78,-65,80,-28,78,-161,170,-112,-172,-176,-24,-29,-126,168,-77,123,-64,90,90,90,270,270,360,180,360,90,270,270,,,,,,,,,,,244.1656,244.1658,,0,6,6,6,1,12,novel,,,,,,,,,,,,,,,,,,,,,,,,,,,,,,,,,,,,,,,,,,,,,,,,,
,,20,3,${e://Field/PROLIFIC_PID,M,20,2023-11-03_20h28.15.497,MouseEye_CC,2023.2.2,Win32,60.26637739,1.28,,,1536,864,61.891,4.42,"19.16, 25.42, 18.82, 15.68, 17.59, 18.75, 28.15",759.86,10.80311423,47.74976492,27.83653633,Failed,159.9617125,,,,,,,,,,,,,,,,,,,,,training,1,8,0,left,a,,,,,244.1664,244.2156,35.84,0,-3.600006104,1,0,0,0.0489,fixationPoint,244.2158,244.3156,244.3158,245.2486,35.84,10240,616.96,a,1,0.9017,,245.249,245.4511,,,,,,,,6,23,208,-160,18,-124,175,-171,126,-24,-174,-66,-77,-72,-165,123,-64,120,-165,219,-32,223,212,213,169,180,270,360,360,90,90,270,180,360,90,360,,,,,,,,,,,245.4513,245.4517,,0,7,7,7,1,1,repeated,,,,,,,,,,,,,,,,,,,,,,,,,,,,,,,,,,,,,,,,,,,,,,,,,
,,20,3,${e://Field/PROLIFIC_PID,M,20,2023-11-03_20h28.15.497,MouseEye_CC,2023.2.2,Win32,60.26637739,1.28,,,1536,864,61.891,4.42,"19.16, 25.42, 18.82, 15.68, 17.59, 18.75, 28.15",759.86,10.80311423,47.74976492,27.83653633,Failed,159.9617125,,,,,,,,,,,,,,,,,,,,,training,1,9,180,right,s,,,,,245.4521,245.5718,35.84,0,-3.600006104,1,0,0,0.1195,fixationPoint,245.5718,245.6649,245.6651,247.1142,35.84,10240,616.96,s,1,1.4217,,247.1143,247.3137,,,,,,,,95,-31,-216,172,127,116,172,77,125,-66,172,-28,78,-174,73,217,-171,172,-24,176,-216,-29,-126,-223,-220,180,360,180,360,360,270,90,180,360,180,270,,,,,,,,,,,247.3138,247.3142,,0,8,8,8,1,9,novel,,,,,,,,,,,,,,,,,,,,,,,,,,,,,,,,,,,,,,,,,,,,,,,,,
,,20,3,${e://Field/PROLIFIC_PID,M,20,2023-11-03_20h28.15.497,MouseEye_CC,2023.2.2,Win32,60.26637739,1.28,,,1536,864,61.891,4.42,"19.16, 25.42, 18.82, 15.68, 17.59, 18.75, 28.15",759.86,10.80311423,47.74976492,27.83653633,Failed,159.9617125,,,,,,,,,,,,,,,,,,,,,training,1,10,0,left,a,,,,,247.3152,247.42,35.84,0,-3.600006104,1,0,0,0.1046,fixationPoint,247.42,247.514,247.5142,248.3973,35.84,10240,616.96,a,1,0.8608,,248.3973,248.5972,,,,,,,,5,-21,220,31,22,172,127,169,164,-112,-172,-69,-32,-31,-216,168,-117,176,-216,208,-75,-128,26,-22,25,180,360,360,180,90,90,180,180,360,180,90,,,,,,,,,,,248.5974,248.6,,0,9,9,9,1,15,novel,,,,,,,,,,,,,,,,,,,,,,,,,,,,,,,,,,,,,,,,,,,,,,,,,
,,20,3,${e://Field/PROLIFIC_PID,M,20,2023-11-03_20h28.15.497,MouseEye_CC,2023.2.2,Win32,60.26637739,1.28,,,1536,864,61.891,4.42,"19.16, 25.42, 18.82, 15.68, 17.59, 18.75, 28.15",759.86,10.80311423,47.74976492,27.83653633,Failed,159.9617125,,,,,,,,,,,,,,,,,,,,,training,1,11,0,left,a,,,,,248.6006,248.7148,35.84,0,-3.600006104,1,0,0,0.1137,fixationPoint,248.7149,248.8141,248.8143,250.8515,35.84,10240,616.96,a,1,2.0164,,250.8516,251.0458,,,,,,,,72,-167,-128,123,215,172,127,121,73,-21,220,-28,78,-124,175,120,-165,28,-220,176,-176,-171,-65,-174,-163,90,270,270,180,360,360,180,360,180,90,180,,,,,,,,,,,251.046,251.0469,,0,10,10,10,1,10,novel,,,,,,,,,,,,,,,,,,,,,,,,,,,,,,,,,,,,,,,,,,,,,,,,,
,,20,3,${e://Field/PROLIFIC_PID,M,20,2023-11-03_20h28.15.497,MouseEye_CC,2023.2.2,Win32,60.26637739,1.28,,,1536,864,61.891,4.42,"19.16, 25.42, 18.82, 15.68, 17.59, 18.75, 28.15",759.86,10.80311423,47.74976492,27.83653633,Failed,159.9617125,,,,,,,,,,,,,,,,,,,,,training,1,12,0,left,a,,,,,251.0477,251.146,35.84,0,-3.600006104,1,0,0,0.098,fixationPoint,251.1463,251.2451,251.2452,252.7283,35.84,10240,616.96,s,0,1.457,,252.7285,256.7259,,,,,,,,96,28,-220,76,176,170,28,28,115,-25,160,-220,165,-128,208,-124,-67,-171,-65,-66,-77,172,-24,124,-116,90,270,180,180,360,360,90,360,270,90,270,,,,,,,,,,,256.7261,256.7452,,0,11,11,11,1,7,repeated,,,,,,,,,,,,,,,,,,,,,,,,,,,,,,,,,,,,,,,,,,,,,,,,,
,,20,3,${e://Field/PROLIFIC_PID,M,20,2023-11-03_20h28.15.497,MouseEye_CC,2023.2.2,Win32,60.26637739,1.28,,,1536,864,61.891,4.42,"19.16, 25.42, 18.82, 15.68, 17.59, 18.75, 28.15",759.86,10.80311423,47.74976492,27.83653633,Failed,159.9617125,,,,,,,,,,,,,,,,,,,,,training,1,13,180,right,s,,,,,256.7458,257.1923,35.84,-0.799987793,-2.800018311,1,0,0,0.4462,fixationPoint,257.1926,257.2921,257.2922,261.3403,35.84,10240,616.96,s,1,4.0166,,261.3405,261.54,,,,,,,,32,-174,73,172,127,122,31,123,215,-124,-67,-223,-220,-221,-164,172,-24,215,-210,222,-116,-66,172,-28,78,90,360,90,360,180,270,270,180,270,360,90,,,,,,,,,,,261.54,261.5403,,0,12,12,12,1,16,novel,,,,,,,,,,,,,,,,,,,,,,,,,,,,,,,,,,,,,,,,,,,,,,,,,
,,20,3,${e://Field/PROLIFIC_PID,M,20,2023-11-03_20h28.15.497,MouseEye_CC,2023.2.2,Win32,60.26637739,1.28,,,1536,864,61.891,4.42,"19.16, 25.42, 18.82, 15.68, 17.59, 18.75, 28.15",759.86,10.80311423,47.74976492,27.83653633,Failed,159.9617125,,,,,,,,,,,,,,,,,,,,,training,1,14,180,right,s,,,,,261.5411,261.6128,35.84,-1.599975586,-2.800018311,1,0,0,0.0714,fixationPoint,261.6128,261.7118,261.7118,263.0826,35.84,10240,616.96,s,1,1.3532,,263.0827,263.2728,,,,,,,,88,120,-165,216,122,31,22,23,208,-216,70,-65,80,-75,123,-66,-77,-124,-67,-19,-29,168,-77,168,-117,180,90,180,90,360,90,360,180,90,360,180,,,,,,,,,,,263.2729,263.2734,,0,13,13,13,1,11,novel,,,,,,,,,,,,,,,,,,,,,,,,,,,,,,,,,,,,,,,,,,,,,,,,,
,,20,3,${e://Field/PROLIFIC_PID,M,20,2023-11-03_20h28.15.497,MouseEye_CC,2023.2.2,Win32,60.26637739,1.28,,,1536,864,61.891,4.42,"19.16, 25.42, 18.82, 15.68, 17.59, 18.75, 28.15",759.86,10.80311423,47.74976492,27.83653633,Failed,159.9617125,,,,,,,,,,,,,,,,,,,,,training,1,15,180,right,s,,,,,263.2747,263.3897,35.84,-1.599975586,-2.800018311,1,0,0,0.1147,fixationPoint,263.3899,263.495,263.495,268.3045,35.84,10240,616.96,s,1,4.7832,,268.3048,268.493,,,,,,,,69,168,-77,28,115,77,125,31,166,-174,73,-80,224,-160,18,-176,-24,-223,-220,-26,-65,217,-171,28,-75,90,180,180,180,90,180,180,360,180,270,90,,,,,,,,,,,268.493,268.4933,,0,14,14,14,1,8,repeated,,,,,,,,,,,,,,,,,,,,,,,,,,,,,,,,,,,,,,,,,,,,,,,,,
,,20,3,${e://Field/PROLIFIC_PID,M,20,2023-11-03_20h28.15.497,MouseEye_CC,2023.2.2,Win32,60.26637739,1.28,,,1536,864,61.891,4.42,"19.16, 25.42, 18.82, 15.68, 17.59, 18.75, 28.15",759.86,10.80311423,47.74976492,27.83653633,Failed,159.9617125,,,,,,,,,,,,,,,,,,,,,training,1,16,180,right,s,,,,,268.4939,268.5706,35.84,-1.599975586,-2.800018311,1,0,0,0.0767,fixationPoint,268.5707,268.6533,268.6535,271.2188,35.84,10240,616.96,s,1,2.5361,,271.2189,271.4184,,,,,,,,29,172,127,-65,80,-78,29,-161,170,-220,-16,-69,-32,-116,-123,176,-176,116,-19,28,-220,169,164,28,115,270,270,270,360,90,360,180,90,270,360,270,,,,,,,,,,,271.4184,272.5345,space,0,15,15,15,1,2,repeated,1.0855,,,,,,,,,,,,,,,,,,,,,,,,,,,,,,,,,,,,,,,,,,,,,,,,
,,20,3,${e://Field/PROLIFIC_PID,M,20,2023-11-03_20h28.15.497,MouseEye_CC,2023.2.2,Win32,60.26637739,1.28,,,1536,864,61.891,4.42,"19.16, 25.42, 18.82, 15.68, 17.59, 18.75, 28.15",759.86,10.80311423,47.74976492,27.83653633,Failed,159.9617125,,,,,,,,,,,,,,,,,,,,,training,2,1,180,right,s,,,,,272.535,272.801,35.84,-1.599975586,-2.800018311,1,0,0,0.2658,fixationPoint,272.801,272.9006,272.9007,274.2003,35.84,10240,616.96,s,1,1.284,,274.2005,274.4003,,,,,,,,52,-176,-24,174,64,216,122,166,212,-120,76,-126,120,-128,26,116,-19,19,-116,208,-75,-167,-128,-66,-77,360,270,90,180,180,270,360,180,360,90,90,,,,,,,,,,,274.4003,274.4044,,0,16,16,16,1,6,repeated,,,,,,,,,,,,,,,,,,,,,,,,,,,,,,,,,,,,,,,,,,,,,,,,,
,,20,3,${e://Field/PROLIFIC_PID,M,20,2023-11-03_20h28.15.497,MouseEye_CC,2023.2.2,Win32,60.26637739,1.28,,,1536,864,61.891,4.42,"19.16, 25.42, 18.82, 15.68, 17.59, 18.75, 28.15",759.86,10.80311423,47.74976492,27.83653633,Failed,159.9617125,,,,,,,,,,,,,,,,,,,,,training,2,2,180,right,s,,,,,274.405,274.4836,35.84,-1.599975586,-2.800018311,1,0,0,0.0783,fixationPoint,274.4837,274.5833,274.5833,276.7733,35.84,10240,616.96,s,1,2.1831,,276.7733,276.9662,,,,,,,,89,176,-176,213,169,166,212,76,176,-171,126,-128,26,-161,170,-66,-77,-123,-24,-24,-174,28,-75,168,-117,270,180,270,180,180,180,180,270,360,270,180,,,,,,,,,,,276.9664,276.9671,,0,17,17,17,1,12,novel,,,,,,,,,,,,,,,,,,,,,,,,,,,,,,,,,,,,,,,,,,,,,,,,,
,,20,3,${e://Field/PROLIFIC_PID,M,20,2023-11-03_20h28.15.497,MouseEye_CC,2023.2.2,Win32,60.26637739,1.28,,,1536,864,61.891,4.42,"19.16, 25.42, 18.82, 15.68, 17.59, 18.75, 28.15",759.86,10.80311423,47.74976492,27.83653633,Failed,159.9617125,,,,,,,,,,,,,,,,,,,,,training,2,3,0,left,a,,,,,276.9681,276.9888,35.84,-1.599975586,-2.800018311,1,0,0,0.0206,fixationPoint,276.9889,277.0822,277.0822,278.8315,35.84,10240,616.96,a,1,1.718,,278.8315,279.0353,,,,,,,,12,-161,170,116,172,223,212,209,68,-167,-128,-174,-163,-220,-16,120,-165,24,-22,176,-216,-128,208,-216,70,180,270,270,180,270,270,180,180,90,90,90,,,,,,,,,,,279.0354,279.0355,,0,18,18,18,1,4,repeated,,,,,,,,,,,,,,,,,,,,,,,,,,,,,,,,,,,,,,,,,,,,,,,,,
,,20,3,${e://Field/PROLIFIC_PID,M,20,2023-11-03_20h28.15.497,MouseEye_CC,2023.2.2,Win32,60.26637739,1.28,,,1536,864,61.891,4.42,"19.16, 25.42, 18.82, 15.68, 17.59, 18.75, 28.15",759.86,10.80311423,47.74976492,27.83653633,Failed,159.9617125,,,,,,,,,,,,,,,,,,,,,training,2,4,180,right,s,,,,,279.036,279.0986,35.84,-1.599975586,-2.800018311,1,0,0,0.0624,fixationPoint,279.0988,279.1981,279.1983,281.0311,35.84,10240,616.96,s,1,1.8006,,281.0313,281.2308,,,,,,,,29,172,127,-65,80,-78,29,-161,170,-220,-16,-69,-32,-116,-123,176,-176,116,-19,28,-220,169,164,28,115,270,270,360,180,180,360,180,270,270,360,360,,,,,,,,,,,281.2311,281.2318,,0,19,19,19,1,2,repeated,,,,,,,,,,,,,,,,,,,,,,,,,,,,,,,,,,,,,,,,,,,,,,,,,
,,20,3,${e://Field/PROLIFIC_PID,M,20,2023-11-03_20h28.15.497,MouseEye_CC,2023.2.2,Win32,60.26637739,1.28,,,1536,864,61.891,4.42,"19.16, 25.42, 18.82, 15.68, 17.59, 18.75, 28.15",759.86,10.80311423,47.74976492,27.83653633,Failed,159.9617125,,,,,,,,,,,,,,,,,,,,,training,2,5,0,left,a,,,,,281.2333,281.2811,35.84,-1.599975586,-2.800018311,1,0,0,0.0473,fixationPoint,281.2814,281.3802,281.3803,286.6983,35.84,10240,616.96,a,1,5.2961,,286.6984,286.8944,,,,,,,,93,-128,-222,172,127,112,119,66,22,-25,160,-160,18,-174,73,176,-176,77,-220,28,-75,-212,-80,-214,-124,270,90,180,90,360,90,90,270,90,180,90,,,,,,,,,,,286.8962,286.8966,,0,20,20,20,1,5,repeated,,,,,,,,,,,,,,,,,,,,,,,,,,,,,,,,,,,,,,,,,,,,,,,,,
,,20,3,${e://Field/PROLIFIC_PID,M,20,2023-11-03_20h28.15.497,MouseEye_CC,2023.2.2,Win32,60.26637739,1.28,,,1536,864,61.891,4.42,"19.16, 25.42, 18.82, 15.68, 17.59, 18.75, 28.15",759.86,10.80311423,47.74976492,27.83653633,Failed,159.9617125,,,,,,,,,,,,,,,,,,,,,training,2,6,0,left,a,,,,,286.8971,286.9608,35.84,-1.599975586,-2.800018311,1,0,0,0.0633,fixationPoint,286.9609,287.061,287.0611,289.8763,35.84,10240,616.96,a,1,2.7747,,289.8764,290.0756,,,,,,,,88,120,-165,31,22,31,166,74,216,-161,170,-128,208,-66,172,-212,-80,-66,-77,-123,-24,24,-22,19,-116,180,180,270,180,270,90,90,90,180,360,180,,,,,,,,,,,290.0756,290.0758,,0,21,21,21,1,11,novel,,,,,,,,,,,,,,,,,,,,,,,,,,,,,,,,,,,,,,,,,,,,,,,,,
,,20,3,${e://Field/PROLIFIC_PID,M,20,2023-11-03_20h28.15.497,MouseEye_CC,2023.2.2,Win32,60.26637739,1.28,,,1536,864,61.891,4.42,"19.16, 25.42, 18.82, 15.68, 17.59, 18.75, 28.15",759.86,10.80311423,47.74976492,27.83653633,Failed,159.9617125,,,,,,,,,,,,,,,,,,,,,training,2,7,0,left,a,,,,,290.0762,290.0924,35.84,-1.599975586,-2.800018311,1,0,0,0.0159,fixationPoint,290.0924,290.192,290.192,292.898,35.84,10240,616.96,a,1,2.6994,,292.8981,293.091,,,,,,,,6,23,208,-160,18,-124,175,-171,126,-24,-174,-66,-77,-72,-165,123,-64,120,-165,219,-32,223,212,213,169,270,270,360,180,180,90,90,270,270,180,360,,,,,,,,,,,293.091,293.0913,,0,22,22,22,1,1,repeated,,,,,,,,,,,,,,,,,,,,,,,,,,,,,,,,,,,,,,,,,,,,,,,,,
,,20,3,${e://Field/PROLIFIC_PID,M,20,2023-11-03_20h28.15.497,MouseEye_CC,2023.2.2,Win32,60.26637739,1.28,,,1536,864,61.891,4.42,"19.16, 25.42, 18.82, 15.68, 17.59, 18.75, 28.15",759.86,10.80311423,47.74976492,27.83653633,Failed,159.9617125,,,,,,,,,,,,,,,,,,,,,training,2,8,0,left,a,,,,,293.092,293.1243,35.84,-1.599975586,-2.800018311,1,0,0,0.0319,fixationPoint,293.1244,293.2239,293.2239,293.9749,35.84,10240,616.96,a,1,0.7335,,293.9752,294.1741,,,,,,,,72,-167,-128,112,119,116,172,31,166,-75,123,-218,209,-171,126,77,-220,176,-216,80,-73,-220,-16,-174,-163,180,90,270,90,90,360,270,90,180,270,90,,,,,,,,,,,294.1743,294.1754,,0,23,23,23,1,10,novel,,,,,,,,,,,,,,,,,,,,,,,,,,,,,,,,,,,,,,,,,,,,,,,,,
,,20,3,${e://Field/PROLIFIC_PID,M,20,2023-11-03_20h28.15.497,MouseEye_CC,2023.2.2,Win32,60.26637739,1.28,,,1536,864,61.891,4.42,"19.16, 25.42, 18.82, 15.68, 17.59, 18.75, 28.15",759.86,10.80311423,47.74976492,27.83653633,Failed,159.9617125,,,,,,,,,,,,,,,,,,,,,training,2,9,180,right,s,,,,,294.1766,294.1991,35.84,-1.599975586,-2.800018311,1,0,0,0.0224,fixationPoint,294.1992,294.2938,294.2939,295.3442,35.84,10240,616.96,s,1,1.0312,,295.3442,295.5398,,,,,,,,13,-124,175,166,212,31,22,169,164,-72,-165,-19,-29,-214,-124,124,-116,176,-216,24,-22,-171,126,-21,220,360,180,270,270,360,180,270,180,360,90,270,,,,,,,,,,,295.54,295.5404,,0,24,24,24,1,3,repeated,,,,,,,,,,,,,,,,,,,,,,,,,,,,,,,,,,,,,,,,,,,,,,,,,
,,20,3,${e://Field/PROLIFIC_PID,M,20,2023-11-03_20h28.15.497,MouseEye_CC,2023.2.2,Win32,60.26637739,1.28,,,1536,864,61.891,4.42,"19.16, 25.42, 18.82, 15.68, 17.59, 18.75, 28.15",759.86,10.80311423,47.74976492,27.83653633,Failed,159.9617125,,,,,,,,,,,,,,,,,,,,,training,2,10,180,right,s,,,,,295.5416,295.5786,35.84,-1.599975586,-2.800018311,1,0,0,0.0369,fixationPoint,295.5788,295.6732,295.6732,298.039,35.84,10240,616.96,s,1,2.3398,,298.0392,298.2387,,,,,,,,96,28,-220,76,176,170,28,28,115,-25,160,-220,165,-128,208,-124,-67,-171,-65,-66,-77,172,-24,124,-116,90,90,180,180,270,180,180,180,90,360,90,,,,,,,,,,,298.2414,298.2417,,0,25,25,25,1,7,repeated,,,,,,,,,,,,,,,,,,,,,,,,,,,,,,,,,,,,,,,,,,,,,,,,,
,,20,3,${e://Field/PROLIFIC_PID,M,20,2023-11-03_20h28.15.497,MouseEye_CC,2023.2.2,Win32,60.26637739,1.28,,,1536,864,61.891,4.42,"19.16, 25.42, 18.82, 15.68, 17.59, 18.75, 28.15",759.86,10.80311423,47.74976492,27.83653633,Failed,159.9617125,,,,,,,,,,,,,,,,,,,,,training,2,11,180,right,s,,,,,298.2422,298.6882,35.84,-1.599975586,-2.800018311,1,0,0,0.4456,fixationPoint,298.6883,298.7887,298.7889,301.231,35.84,10240,616.96,s,1,2.4201,,301.231,301.425,,,,,,,,8,123,215,-174,73,-124,175,-66,172,-176,-24,-77,-223,-212,-80,208,-75,168,-77,124,-116,112,119,169,164,270,90,360,180,90,90,270,270,180,180,180,,,,,,,,,,,301.4251,301.4253,,0,26,26,26,1,13,novel,,,,,,,,,,,,,,,,,,,,,,,,,,,,,,,,,,,,,,,,,,,,,,,,,
,,20,3,${e://Field/PROLIFIC_PID,M,20,2023-11-03_20h28.15.497,MouseEye_CC,2023.2.2,Win32,60.26637739,1.28,,,1536,864,61.891,4.42,"19.16, 25.42, 18.82, 15.68, 17.59, 18.75, 28.15",759.86,10.80311423,47.74976492,27.83653633,Failed,159.9617125,,,,,,,,,,,,,,,,,,,,,training,2,12,180,right,s,,,,,301.4259,301.4533,35.84,-1.599975586,-2.800018311,1,0,0,0.0272,fixationPoint,301.4535,301.5537,301.5537,304.1251,35.84,10240,616.96,s,1,2.5493,,304.1251,304.319,,,,,,,,69,168,-77,28,115,77,125,31,166,-174,73,-80,224,-160,18,-176,-24,-223,-220,-26,-65,217,-171,28,-75,90,270,180,270,270,360,90,270,90,360,90,,,,,,,,,,,304.3192,304.3196,,0,27,27,27,1,8,repeated,,,,,,,,,,,,,,,,,,,,,,,,,,,,,,,,,,,,,,,,,,,,,,,,,
,,20,3,${e://Field/PROLIFIC_PID,M,20,2023-11-03_20h28.15.497,MouseEye_CC,2023.2.2,Win32,60.26637739,1.28,,,1536,864,61.891,4.42,"19.16, 25.42, 18.82, 15.68, 17.59, 18.75, 28.15",759.86,10.80311423,47.74976492,27.83653633,Failed,159.9617125,,,,,,,,,,,,,,,,,,,,,training,2,13,0,left,a,,,,,304.3207,304.7752,35.84,-1.599975586,-2.800018311,1,0,0,0.4543,fixationPoint,304.7753,304.8685,304.8686,307.7401,35.84,10240,616.96,a,1,2.8487,,307.7402,307.9335,,,,,,,,49,170,28,-120,76,-65,80,-22,25,-112,-172,-214,-124,-31,-216,116,-19,217,-171,65,-169,208,20,31,166,90,270,360,270,180,360,270,360,90,270,180,,,,,,,,,,,307.9336,307.934,,0,28,28,28,1,14,novel,,,,,,,,,,,,,,,,,,,,,,,,,,,,,,,,,,,,,,,,,,,,,,,,,
,,20,3,${e://Field/PROLIFIC_PID,M,20,2023-11-03_20h28.15.497,MouseEye_CC,2023.2.2,Win32,60.26637739,1.28,,,1536,864,61.891,4.42,"19.16, 25.42, 18.82, 15.68, 17.59, 18.75, 28.15",759.86,10.80311423,47.74976492,27.83653633,Failed,159.9617125,,,,,,,,,,,,,,,,,,,,,training,2,14,180,right,s,,,,,307.9358,307.9844,35.84,-1.599975586,-2.800018311,1,0,0,0.048,fixationPoint,307.9847,308.0844,308.0846,312.3147,35.84,10240,616.96,s,1,4.2041,,312.3147,312.5148,,,,,,,,95,-31,-216,122,31,172,127,116,172,-220,23,-28,114,-220,165,116,-19,24,-22,215,-210,-223,-220,-214,-124,90,270,180,90,180,180,90,270,90,180,90,,,,,,,,,,,312.5149,312.5155,,0,29,29,29,1,9,novel,,,,,,,,,,,,,,,,,,,,,,,,,,,,,,,,,,,,,,,,,,,,,,,,,
,,20,3,${e://Field/PROLIFIC_PID,M,20,2023-11-03_20h28.15.497,MouseEye_CC,2023.2.2,Win32,60.26637739,1.28,,,1536,864,61.891,4.42,"19.16, 25.42, 18.82, 15.68, 17.59, 18.75, 28.15",759.86,10.80311423,47.74976492,27.83653633,Failed,159.9617125,,,,,,,,,,,,,,,,,,,,,training,2,15,0,left,a,,,,,312.5167,312.5378,35.84,-13.59997559,-4.399993896,1,0,0,0.0209,fixationPoint,312.5378,312.6317,312.6319,316.4798,35.84,10240,616.96,s,0,3.8219,,316.4799,320.4874,,,,,,,,32,-174,73,77,125,20,75,166,212,-128,-222,-24,-174,-29,-126,65,-169,28,-220,172,-24,-218,209,-210,120,180,270,180,360,90,180,180,360,360,360,360,,,,,,,,,,,320.4875,320.5048,,0,30,30,30,1,16,novel,,,,,,,,,,,,,,,,,,,,,,,,,,,,,,,,,,,,,,,,,,,,,,,,,
,,20,3,${e://Field/PROLIFIC_PID,M,20,2023-11-03_20h28.15.497,MouseEye_CC,2023.2.2,Win32,60.26637739,1.28,,,1536,864,61.891,4.42,"19.16, 25.42, 18.82, 15.68, 17.59, 18.75, 28.15",759.86,10.80311423,47.74976492,27.83653633,Failed,159.9617125,,,,,,,,,,,,,,,,,,,,,training,2,16,0,left,a,,,,,320.5053,321.1434,35.84,-4.799987793,-2,1,0,0,0.6381,fixationPoint,321.1436,321.2433,321.2433,324.6425,35.84,10240,616.96,a,1,3.371,,324.6428,324.8417,,,,,,,,5,-21,220,174,64,77,78,208,20,-176,-24,-220,-16,-214,-124,24,-22,208,-75,215,-210,-174,73,-128,208,90,360,180,180,180,270,360,90,180,180,180,,,,,,,,,,,324.8418,325.7757,space,0,31,31,31,1,15,novel,0.9044,,,,,,,,,,,,,,,,,,,,,,,,,,,,,,,,,,,,,,,,,,,,,,,,
,,20,3,${e://Field/PROLIFIC_PID,M,20,2023-11-03_20h28.15.497,MouseEye_CC,2023.2.2,Win32,60.26637739,1.28,,,1536,864,61.891,4.42,"19.16, 25.42, 18.82, 15.68, 17.59, 18.75, 28.15",759.86,10.80311423,47.74976492,27.83653633,Failed,159.9617125,,,,,,,,,,,,,,,,,,,,,training,3,1,180,right,s,,,,,325.7771,326.9479,35.84,-1.599975586,-0.399993896,1,0,0,1.1704,fixationPoint,326.9479,327.041,327.0411,329.3561,35.84,10240,616.96,s,1,2.2841,,329.3562,329.5559,,,,,,,,12,-161,170,116,172,223,212,209,68,-167,-128,-174,-163,-220,-16,120,-165,24,-22,176,-216,-128,208,-216,70,360,180,90,360,360,180,180,90,270,180,90,,,,,,,,,,,329.5559,329.5602,,0,32,32,32,1,4,repeated,,,,,,,,,,,,,,,,,,,,,,,,,,,,,,,,,,,,,,,,,,,,,,,,,
,,20,3,${e://Field/PROLIFIC_PID,M,20,2023-11-03_20h28.15.497,MouseEye_CC,2023.2.2,Win32,60.26637739,1.28,,,1536,864,61.891,4.42,"19.16, 25.42, 18.82, 15.68, 17.59, 18.75, 28.15",759.86,10.80311423,47.74976492,27.83653633,Failed,159.9617125,,,,,,,,,,,,,,,,,,,,,training,3,2,0,left,a,,,,,329.5606,330.3555,35.84,-1.599975586,-0.399993896,1,0,0,0.7948,fixationPoint,330.3556,330.4447,330.4447,331.578,35.84,10240,616.96,a,1,1.1004,,331.5781,331.7716,,,,,,,,52,-176,-24,174,64,216,122,166,212,-120,76,-126,120,-128,26,116,-19,19,-116,208,-75,-167,-128,-66,-77,180,180,90,90,270,360,270,90,180,180,90,,,,,,,,,,,331.7716,331.7719,,0,33,33,33,1,6,repeated,,,,,,,,,,,,,,,,,,,,,,,,,,,,,,,,,,,,,,,,,,,,,,,,,
,,20,3,${e://Field/PROLIFIC_PID,M,20,2023-11-03_20h28.15.497,MouseEye_CC,2023.2.2,Win32,60.26637739,1.28,,,1536,864,61.891,4.42,"19.16, 25.42, 18.82, 15.68, 17.59, 18.75, 28.15",759.86,10.80311423,47.74976492,27.83653633,Failed,159.9617125,,,,,,,,,,,,,,,,,,,,,training,3,3,180,right,s,,,,,331.7726,332.5056,35.84,-1.599975586,-0.399993896,1,0,0,0.7325,fixationPoint,332.5058,332.6043,332.6045,333.8545,35.84,10240,616.96,s,1,1.224,,333.8548,334.054,,,,,,,,5,-21,220,121,73,166,212,223,212,-72,-116,-77,-223,-221,-164,71,-22,208,-75,65,-169,-128,208,-25,160,270,90,90,360,180,270,360,270,180,180,90,,,,,,,,,,,334.0542,334.0549,,0,34,34,34,1,15,novel,,,,,,,,,,,,,,,,,,,,,,,,,,,,,,,,,,,,,,,,,,,,,,,,,
,,20,3,${e://Field/PROLIFIC_PID,M,20,2023-11-03_20h28.15.497,MouseEye_CC,2023.2.2,Win32,60.26637739,1.28,,,1536,864,61.891,4.42,"19.16, 25.42, 18.82, 15.68, 17.59, 18.75, 28.15",759.86,10.80311423,47.74976492,27.83653633,Failed,159.9617125,,,,,,,,,,,,,,,,,,,,,training,3,4,0,left,a,,,,,334.0559,334.9424,35.84,-1.599975586,-0.399993896,1,0,0,0.8863,fixationPoint,334.9424,335.0368,335.0369,338.2019,35.84,10240,616.96,a,1,3.1332,,338.2021,338.4014,,,,,,,,93,-128,-222,172,127,112,119,66,22,-25,160,-160,18,-174,73,176,-176,77,-220,28,-75,-212,-80,-214,-124,270,360,180,360,180,90,180,180,270,360,270,,,,,,,,,,,338.4015,338.4017,,0,35,35,35,1,5,repeated,,,,,,,,,,,,,,,,,,,,,,,,,,,,,,,,,,,,,,,,,,,,,,,,,
,,20,3,${e://Field/PROLIFIC_PID,M,20,2023-11-03_20h28.15.497,MouseEye_CC,2023.2.2,Win32,60.26637739,1.28,,,1536,864,61.891,4.42,"19.16, 25.42, 18.82, 15.68, 17.59, 18.75, 28.15",759.86,10.80311423,47.74976492,27.83653633,Failed,159.9617125,,,,,,,,,,,,,,,,,,,,,training,3,5,0,left,a,,,,,338.4022,339.5015,35.84,-1.599975586,-0.399993896,1,0,0,1.0989,fixationPoint,339.5016,339.6009,339.6011,340.784,35.84,10240,616.96,a,1,1.157,,340.7843,340.9722,,,,,,,,95,-31,-216,166,212,23,208,31,22,-128,26,-21,220,-174,73,176,-216,176,-176,65,-169,-221,-164,-167,-128,180,180,180,360,270,360,90,90,360,90,360,,,,,,,,,,,340.9723,340.9725,,0,36,36,36,1,9,novel,,,,,,,,,,,,,,,,,,,,,,,,,,,,,,,,,,,,,,,,,,,,,,,,,
,,20,3,${e://Field/PROLIFIC_PID,M,20,2023-11-03_20h28.15.497,MouseEye_CC,2023.2.2,Win32,60.26637739,1.28,,,1536,864,61.891,4.42,"19.16, 25.42, 18.82, 15.68, 17.59, 18.75, 28.15",759.86,10.80311423,47.74976492,27.83653633,Failed,159.9617125,,,,,,,,,,,,,,,,,,,,,training,3,6,0,left,a,,,,,340.9733,342.4164,35.84,-1.599975586,-0.399993896,1,0,0,1.4429,fixationPoint,342.4167,342.5195,342.5197,343.8659,35.84,10240,616.96,a,1,1.3147,,343.866,344.0655,,,,,,,,32,-174,73,166,212,169,164,31,22,-124,-67,-66,-77,-220,-16,73,-127,19,-116,77,-220,-128,208,-128,26,90,360,90,360,270,360,90,360,360,360,360,,,,,,,,,,,344.0658,344.0663,,0,37,37,37,1,16,novel,,,,,,,,,,,,,,,,,,,,,,,,,,,,,,,,,,,,,,,,,,,,,,,,,
,,20,3,${e://Field/PROLIFIC_PID,M,20,2023-11-03_20h28.15.497,MouseEye_CC,2023.2.2,Win32,60.26637739,1.28,,,1536,864,61.891,4.42,"19.16, 25.42, 18.82, 15.68, 17.59, 18.75, 28.15",759.86,10.80311423,47.74976492,27.83653633,Failed,159.9617125,,,,,,,,,,,,,,,,,,,,,training,3,7,0,left,a,,,,,344.0673,346.1484,35.84,0,-5.200012207,1,0,0,2.0807,fixationPoint,346.1485,346.253,346.2531,347.9036,35.84,10240,616.96,a,1,1.6342,,347.9037,348.0972,,,,,,,,72,-167,-128,123,215,23,208,112,119,-210,120,-66,172,-120,76,208,-75,71,-22,219,-32,-128,-222,-174,-163,360,270,90,180,180,360,360,360,360,360,270,,,,,,,,,,,348.0974,348.0981,,0,38,38,38,1,10,novel,,,,,,,,,,,,,,,,,,,,,,,,,,,,,,,,,,,,,,,,,,,,,,,,,
,,20,3,${e://Field/PROLIFIC_PID,M,20,2023-11-03_20h28.15.497,MouseEye_CC,2023.2.2,Win32,60.26637739,1.28,,,1536,864,61.891,4.42,"19.16, 25.42, 18.82, 15.68, 17.59, 18.75, 28.15",759.86,10.80311423,47.74976492,27.83653633,Failed,159.9617125,,,,,,,,,,,,,,,,,,,,,training,3,8,180,right,s,,,,,348.0989,348.4,35.84,-0.799987793,-6,1,0,0,0.3009,fixationPoint,348.4,348.4994,348.4995,351.3182,35.84,10240,616.96,s,1,2.8001,,351.3184,351.5183,,,,,,,,96,28,-220,76,176,170,28,28,115,-25,160,-220,165,-128,208,-124,-67,-171,-65,-66,-77,172,-24,124,-116,360,180,360,270,180,90,360,360,270,270,270,,,,,,,,,,,351.5184,351.5186,,0,39,39,39,1,7,repeated,,,,,,,,,,,,,,,,,,,,,,,,,,,,,,,,,,,,,,,,,,,,,,,,,
,,20,3,${e://Field/PROLIFIC_PID,M,20,2023-11-03_20h28.15.497,MouseEye_CC,2023.2.2,Win32,60.26637739,1.28,,,1536,864,61.891,4.42,"19.16, 25.42, 18.82, 15.68, 17.59, 18.75, 28.15",759.86,10.80311423,47.74976492,27.83653633,Failed,159.9617125,,,,,,,,,,,,,,,,,,,,,training,3,9,180,right,s,,,,,351.5189,352.2113,35.84,-3.200012207,-11.6000061,1,0,0,0.692,fixationPoint,352.2114,352.3113,352.3114,355.11,35.84,10240,616.96,s,1,2.7733,,355.1102,355.3108,,,,,,,,89,176,-176,112,119,76,176,28,115,-163,209,-28,78,-128,26,-124,-67,-214,-124,-171,-65,24,-22,172,-24,360,90,270,270,360,360,270,360,180,360,180,,,,,,,,,,,355.311,355.3115,,0,40,40,40,1,12,novel,,,,,,,,,,,,,,,,,,,,,,,,,,,,,,,,,,,,,,,,,,,,,,,,,
,,20,3,${e://Field/PROLIFIC_PID,M,20,2023-11-03_20h28.15.497,MouseEye_CC,2023.2.2,Win32,60.26637739,1.28,,,1536,864,61.891,4.42,"19.16, 25.42, 18.82, 15.68, 17.59, 18.75, 28.15",759.86,10.80311423,47.74976492,27.83653633,Failed,159.9617125,,,,,,,,,,,,,,,,,,,,,training,3,10,180,right,s,,,,,355.3122,355.8435,35.84,-3.200012207,-11.6000061,1,0,0,0.5312,fixationPoint,355.8435,355.9427,355.9427,358.6582,35.84,10240,616.96,s,1,2.6881,,358.6583,358.8583,,,,,,,,8,123,215,-22,25,-25,160,-163,209,-26,-65,-77,-223,-31,-216,77,-220,168,-77,28,-220,74,216,170,28,180,90,180,90,90,90,90,90,270,270,180,,,,,,,,,,,358.8586,358.8594,,0,41,41,41,1,13,novel,,,,,,,,,,,,,,,,,,,,,,,,,,,,,,,,,,,,,,,,,,,,,,,,,
,,20,3,${e://Field/PROLIFIC_PID,M,20,2023-11-03_20h28.15.497,MouseEye_CC,2023.2.2,Win32,60.26637739,1.28,,,1536,864,61.891,4.42,"19.16, 25.42, 18.82, 15.68, 17.59, 18.75, 28.15",759.86,10.80311423,47.74976492,27.83653633,Failed,159.9617125,,,,,,,,,,,,,,,,,,,,,training,3,11,180,right,s,,,,,358.8604,358.9753,35.84,-3.200012207,-3.600006104,1,0,0,0.1148,fixationPoint,358.9754,359.0746,359.0747,361.3796,35.84,10240,616.96,s,1,2.2812,,361.3797,361.5735,,,,,,,,88,120,-165,77,78,66,22,169,164,-220,165,-210,120,-216,70,-31,-216,-66,-77,-221,-164,73,-127,28,-220,180,270,90,360,90,90,270,90,90,360,180,,,,,,,,,,,361.5737,361.5742,,0,42,42,42,1,11,novel,,,,,,,,,,,,,,,,,,,,,,,,,,,,,,,,,,,,,,,,,,,,,,,,,
,,20,3,${e://Field/PROLIFIC_PID,M,20,2023-11-03_20h28.15.497,MouseEye_CC,2023.2.2,Win32,60.26637739,1.28,,,1536,864,61.891,4.42,"19.16, 25.42, 18.82, 15.68, 17.59, 18.75, 28.15",759.86,10.80311423,47.74976492,27.83653633,Failed,159.9617125,,,,,,,,,,,,,,,,,,,,,training,3,12,0,left,a,,,,,361.5753,361.6067,35.84,-3.200012207,-3.600006104,1,0,0,0.0312,fixationPoint,361.6068,361.7065,361.7066,363.7615,35.84,10240,616.96,a,1,2.0332,,363.7616,363.9556,,,,,,,,29,172,127,-65,80,-78,29,-161,170,-220,-16,-69,-32,-116,-123,176,-176,116,-19,28,-220,169,164,28,115,360,360,180,180,90,270,90,360,90,90,270,,,,,,,,,,,363.9558,363.9565,,0,43,43,43,1,2,repeated,,,,,,,,,,,,,,,,,,,,,,,,,,,,,,,,,,,,,,,,,,,,,,,,,
,,20,3,${e://Field/PROLIFIC_PID,M,20,2023-11-03_20h28.15.497,MouseEye_CC,2023.2.2,Win32,60.26637739,1.28,,,1536,864,61.891,4.42,"19.16, 25.42, 18.82, 15.68, 17.59, 18.75, 28.15",759.86,10.80311423,47.74976492,27.83653633,Failed,159.9617125,,,,,,,,,,,,,,,,,,,,,training,3,13,180,right,s,,,,,363.9576,364.0386,35.84,-3.200012207,-3.600006104,1,0,0,0.0808,fixationPoint,364.0387,364.1392,364.1393,366.2716,35.84,10240,616.96,s,1,2.1049,,366.272,366.4709,,,,,,,,69,168,-77,28,115,77,125,31,166,-174,73,-80,224,-160,18,-176,-24,-223,-220,-26,-65,217,-171,28,-75,180,270,360,180,90,270,270,360,90,90,270,,,,,,,,,,,366.471,366.4712,,0,44,44,44,1,8,repeated,,,,,,,,,,,,,,,,,,,,,,,,,,,,,,,,,,,,,,,,,,,,,,,,,
,,20,3,${e://Field/PROLIFIC_PID,M,20,2023-11-03_20h28.15.497,MouseEye_CC,2023.2.2,Win32,60.26637739,1.28,,,1536,864,61.891,4.42,"19.16, 25.42, 18.82, 15.68, 17.59, 18.75, 28.15",759.86,10.80311423,47.74976492,27.83653633,Failed,159.9617125,,,,,,,,,,,,,,,,,,,,,training,3,14,0,left,a,,,,,366.4721,366.9372,35.84,-3.200012207,-3.600006104,1,0,0,0.4648,fixationPoint,366.9374,367.0369,367.0369,368.1866,35.84,10240,616.96,s,0,1.1412,,368.1867,372.1844,,,,,,,,49,170,28,-161,170,-216,70,-128,208,-171,-65,-221,-164,-223,-220,176,-216,28,-220,24,-22,77,125,223,212,360,180,180,270,90,180,90,180,180,270,180,,,,,,,,,,,372.1845,372.2012,,0,45,45,45,1,14,novel,,,,,,,,,,,,,,,,,,,,,,,,,,,,,,,,,,,,,,,,,,,,,,,,,
,,20,3,${e://Field/PROLIFIC_PID,M,20,2023-11-03_20h28.15.497,MouseEye_CC,2023.2.2,Win32,60.26637739,1.28,,,1536,864,61.891,4.42,"19.16, 25.42, 18.82, 15.68, 17.59, 18.75, 28.15",759.86,10.80311423,47.74976492,27.83653633,Failed,159.9617125,,,,,,,,,,,,,,,,,,,,,training,3,15,0,left,a,,,,,372.2024,373.2402,35.84,-3.200012207,-3.600006104,1,0,0,1.0376,fixationPoint,373.2403,373.334,373.3341,375.6058,35.84,10240,616.96,a,1,2.2654,,375.6058,375.8,,,,,,,,6,23,208,-160,18,-124,175,-171,126,-24,-174,-66,-77,-72,-165,123,-64,120,-165,219,-32,223,212,213,169,360,180,90,180,90,270,360,180,360,180,90,,,,,,,,,,,375.8001,375.8012,,0,46,46,46,1,1,repeated,,,,,,,,,,,,,,,,,,,,,,,,,,,,,,,,,,,,,,,,,,,,,,,,,
,,20,3,${e://Field/PROLIFIC_PID,M,20,2023-11-03_20h28.15.497,MouseEye_CC,2023.2.2,Win32,60.26637739,1.28,,,1536,864,61.891,4.42,"19.16, 25.42, 18.82, 15.68, 17.59, 18.75, 28.15",759.86,10.80311423,47.74976492,27.83653633,Failed,159.9617125,,,,,,,,,,,,,,,,,,,,,training,3,16,180,right,s,,,,,375.8029,375.8499,35.84,-3.200012207,-3.600006104,1,0,0,0.0466,fixationPoint,375.8502,375.9522,375.9522,376.9663,35.84,10240,616.96,s,1,0.9937,,376.9665,377.1652,,,,,,,,13,-124,175,166,212,31,22,169,164,-72,-165,-19,-29,-214,-124,124,-116,176,-216,24,-22,-171,126,-21,220,180,270,180,90,180,90,180,270,360,270,90,,,,,,,,,,,377.1653,377.9491,space,0,47,47,47,1,3,repeated,0.7562,,,,,,,,,,,,,,,,,,,,,,,,,,,,,,,,,,,,,,,,,,,,,,,,
,,20,3,${e://Field/PROLIFIC_PID,M,20,2023-11-03_20h28.15.497,MouseEye_CC,2023.2.2,Win32,60.26637739,1.28,,,1536,864,61.891,4.42,"19.16, 25.42, 18.82, 15.68, 17.59, 18.75, 28.15",759.86,10.80311423,47.74976492,27.83653633,Failed,159.9617125,,,,,,,,,,,,,,,,,,,,,training,4,1,180,right,s,,,,,377.9504,378.2822,35.84,-3.200012207,-3.600006104,1,0,0,0.3316,fixationPoint,378.2823,378.3818,378.382,380.4031,35.84,10240,616.96,s,1,1.9987,,380.4032,380.5974,,,,,,,,29,172,127,-65,80,-78,29,-161,170,-220,-16,-69,-32,-116,-123,176,-176,116,-19,28,-220,169,164,28,115,180,180,360,90,270,180,180,270,180,180,360,,,,,,,,,,,380.5975,380.6014,,0,48,48,48,1,2,repeated,,,,,,,,,,,,,,,,,,,,,,,,,,,,,,,,,,,,,,,,,,,,,,,,,
,,20,3,${e://Field/PROLIFIC_PID,M,20,2023-11-03_20h28.15.497,MouseEye_CC,2023.2.2,Win32,60.26637739,1.28,,,1536,864,61.891,4.42,"19.16, 25.42, 18.82, 15.68, 17.59, 18.75, 28.15",759.86,10.80311423,47.74976492,27.83653633,Failed,159.9617125,,,,,,,,,,,,,,,,,,,,,training,4,2,0,left,a,,,,,380.6021,380.6975,35.84,-3.200012207,-3.600006104,1,0,0,0.0951,fixationPoint,380.6977,380.7968,380.7969,382.4136,35.84,10240,616.96,a,1,1.5861,,382.4138,382.6132,,,,,,,,49,170,28,-75,123,-80,224,-171,126,-24,-174,-29,-126,-116,-123,116,-19,124,-116,168,-117,123,215,122,31,360,180,90,360,270,90,90,270,360,360,90,,,,,,,,,,,382.6135,382.6142,,0,49,49,49,1,14,novel,,,,,,,,,,,,,,,,,,,,,,,,,,,,,,,,,,,,,,,,,,,,,,,,,
,,20,3,${e://Field/PROLIFIC_PID,M,20,2023-11-03_20h28.15.497,MouseEye_CC,2023.2.2,Win32,60.26637739,1.28,,,1536,864,61.891,4.42,"19.16, 25.42, 18.82, 15.68, 17.59, 18.75, 28.15",759.86,10.80311423,47.74976492,27.83653633,Failed,159.9617125,,,,,,,,,,,,,,,,,,,,,training,4,3,0,left,a,,,,,382.6168,382.6663,35.84,-3.200012207,-3.600006104,1,0,0,0.0494,fixationPoint,382.6665,382.763,382.7631,385.812,35.84,10240,616.96,a,1,3.0163,,385.8124,386.0168,,,,,,,,88,120,-165,170,28,209,68,77,125,-210,120,-120,76,-124,175,-214,-124,-167,-128,-123,-24,168,-117,71,-22,180,360,360,90,90,90,360,270,360,270,90,,,,,,,,,,,386.0168,386.017,,0,50,50,50,1,11,novel,,,,,,,,,,,,,,,,,,,,,,,,,,,,,,,,,,,,,,,,,,,,,,,,,
,,20,3,${e://Field/PROLIFIC_PID,M,20,2023-11-03_20h28.15.497,MouseEye_CC,2023.2.2,Win32,60.26637739,1.28,,,1536,864,61.891,4.42,"19.16, 25.42, 18.82, 15.68, 17.59, 18.75, 28.15",759.86,10.80311423,47.74976492,27.83653633,Failed,159.9617125,,,,,,,,,,,,,,,,,,,,,training,4,4,0,left,a,,,,,386.0176,386.4607,35.84,-3.200012207,-3.600006104,1,0,0,0.4428,fixationPoint,386.4607,386.5613,386.5614,387.6635,35.84,10240,616.96,a,1,1.081,,387.6636,387.8603,,,,,,,,95,-31,-216,77,78,74,216,66,22,-218,209,-28,78,-216,70,80,-73,217,-171,28,-75,-123,-24,-221,-164,270,270,270,90,180,180,360,270,270,90,360,,,,,,,,,,,387.8604,387.8606,,0,51,51,51,1,9,novel,,,,,,,,,,,,,,,,,,,,,,,,,,,,,,,,,,,,,,,,,,,,,,,,,
,,20,3,${e://Field/PROLIFIC_PID,M,20,2023-11-03_20h28.15.497,MouseEye_CC,2023.2.2,Win32,60.26637739,1.28,,,1536,864,61.891,4.42,"19.16, 25.42, 18.82, 15.68, 17.59, 18.75, 28.15",759.86,10.80311423,47.74976492,27.83653633,Failed,159.9617125,,,,,,,,,,,,,,,,,,,,,training,4,5,0,left,a,,,,,387.8612,388.0336,35.84,-3.200012207,-3.600006104,1,0,0,0.172,fixationPoint,388.0338,388.1269,388.1271,390.8775,35.84,10240,616.96,a,1,2.7268,,390.8776,391.0806,,,,,,,,69,168,-77,28,115,77,125,31,166,-174,73,-80,224,-160,18,-176,-24,-223,-220,-26,-65,217,-171,28,-75,360,360,90,270,90,90,270,90,180,360,90,,,,,,,,,,,391.0807,391.0808,,0,52,52,52,1,8,repeated,,,,,,,,,,,,,,,,,,,,,,,,,,,,,,,,,,,,,,,,,,,,,,,,,
,,20,3,${e://Field/PROLIFIC_PID,M,20,2023-11-03_20h28.15.497,MouseEye_CC,2023.2.2,Win32,60.26637739,1.28,,,1536,864,61.891,4.42,"19.16, 25.42, 18.82, 15.68, 17.59, 18.75, 28.15",759.86,10.80311423,47.74976492,27.83653633,Failed,159.9617125,,,,,,,,,,,,,,,,,,,,,training,4,6,180,right,s,,,,,391.0815,391.2818,35.84,-3.200012207,-3.600006104,1,0,0,0.2002,fixationPoint,391.2819,391.3763,391.3768,392.6749,35.84,10240,616.96,s,1,1.2723,,392.6752,392.875,,,,,,,,13,-124,175,166,212,31,22,169,164,-72,-165,-19,-29,-214,-124,124,-116,176,-216,24,-22,-171,126,-21,220,90,180,90,90,270,180,180,90,270,270,90,,,,,,,,,,,392.8751,392.8755,,0,53,53,53,1,3,repeated,,,,,,,,,,,,,,,,,,,,,,,,,,,,,,,,,,,,,,,,,,,,,,,,,
,,20,3,${e://Field/PROLIFIC_PID,M,20,2023-11-03_20h28.15.497,MouseEye_CC,2023.2.2,Win32,60.26637739,1.28,,,1536,864,61.891,4.42,"19.16, 25.42, 18.82, 15.68, 17.59, 18.75, 28.15",759.86,10.80311423,47.74976492,27.83653633,Failed,159.9617125,,,,,,,,,,,,,,,,,,,,,training,4,7,0,left,a,,,,,392.876,393.0245,35.84,-3.200012207,-3.600006104,1,0,0,0.1481,fixationPoint,393.0247,393.1246,393.1247,395.313,35.84,10240,616.96,a,1,2.164,,395.3131,395.5068,,,,,,,,89,176,-176,174,64,77,125,116,172,-220,23,-66,172,-161,170,-167,-128,-31,-216,-66,-77,28,-220,28,-75,180,360,360,360,180,270,360,180,90,270,360,,,,,,,,,,,395.507,395.5075,,0,54,54,54,1,12,novel,,,,,,,,,,,,,,,,,,,,,,,,,,,,,,,,,,,,,,,,,,,,,,,,,
,,20,3,${e://Field/PROLIFIC_PID,M,20,2023-11-03_20h28.15.497,MouseEye_CC,2023.2.2,Win32,60.26637739,1.28,,,1536,864,61.891,4.42,"19.16, 25.42, 18.82, 15.68, 17.59, 18.75, 28.15",759.86,10.80311423,47.74976492,27.83653633,Failed,159.9617125,,,,,,,,,,,,,,,,,,,,,training,4,8,180,right,s,,,,,395.5082,395.7394,35.84,-3.200012207,-3.600006104,1,0,0,0.231,fixationPoint,395.7394,395.8406,395.8409,397.5118,35.84,10240,616.96,a,0,1.6499,,397.5119,401.5032,,,,,,,,12,-161,170,116,172,223,212,209,68,-167,-128,-174,-163,-220,-16,120,-165,24,-22,176,-216,-128,208,-216,70,360,90,90,360,270,180,180,270,90,180,180,,,,,,,,,,,401.5034,401.516,,0,55,55,55,1,4,repeated,,,,,,,,,,,,,,,,,,,,,,,,,,,,,,,,,,,,,,,,,,,,,,,,,
,,20,3,${e://Field/PROLIFIC_PID,M,20,2023-11-03_20h28.15.497,MouseEye_CC,2023.2.2,Win32,60.26637739,1.28,,,1536,864,61.891,4.42,"19.16, 25.42, 18.82, 15.68, 17.59, 18.75, 28.15",759.86,10.80311423,47.74976492,27.83653633,Failed,159.9617125,,,,,,,,,,,,,,,,,,,,,training,4,9,0,left,a,,,,,401.5164,402.058,35.84,-3.200012207,-3.600006104,1,0,0,0.5416,fixationPoint,402.0582,402.1529,402.153,402.986,35.84,10240,616.96,a,1,0.7888,,402.9861,403.1856,,,,,,,,72,-167,-128,112,119,166,212,174,64,-25,160,-126,120,-28,114,28,-75,116,-19,208,-75,-123,-24,-220,-16,180,180,180,90,270,180,270,360,360,360,360,,,,,,,,,,,403.1858,403.1862,,0,56,56,56,1,10,novel,,,,,,,,,,,,,,,,,,,,,,,,,,,,,,,,,,,,,,,,,,,,,,,,,
,,20,3,${e://Field/PROLIFIC_PID,M,20,2023-11-03_20h28.15.497,MouseEye_CC,2023.2.2,Win32,60.26637739,1.28,,,1536,864,61.891,4.42,"19.16, 25.42, 18.82, 15.68, 17.59, 18.75, 28.15",759.86,10.80311423,47.74976492,27.83653633,Failed,159.9617125,,,,,,,,,,,,,,,,,,,,,training,4,10,180,right,s,,,,,403.1874,403.3526,35.84,-3.200012207,-3.600006104,1,0,0,0.1647,fixationPoint,403.3527,403.4524,403.4526,405.0683,35.84,10240,616.96,s,1,1.5862,,405.0684,405.2681,,,,,,,,32,-174,73,208,20,216,122,31,166,-31,-216,-167,-128,-223,-220,28,-220,219,-32,222,-116,-75,123,-80,224,270,90,90,270,180,90,90,270,360,270,180,,,,,,,,,,,405.2681,405.2684,,0,57,57,57,1,16,novel,,,,,,,,,,,,,,,,,,,,,,,,,,,,,,,,,,,,,,,,,,,,,,,,,
,,20,3,${e://Field/PROLIFIC_PID,M,20,2023-11-03_20h28.15.497,MouseEye_CC,2023.2.2,Win32,60.26637739,1.28,,,1536,864,61.891,4.42,"19.16, 25.42, 18.82, 15.68, 17.59, 18.75, 28.15",759.86,10.80311423,47.74976492,27.83653633,Failed,159.9617125,,,,,,,,,,,,,,,,,,,,,training,4,11,180,right,s,,,,,405.2696,405.3858,35.84,-3.200012207,-3.600006104,1,0,0,0.1153,fixationPoint,405.386,405.4848,405.485,410.5327,35.84,10240,616.96,s,1,5.0173,,410.5329,410.7331,,,,,,,,5,-21,220,174,64,121,73,31,166,-176,-24,-223,-220,-128,-222,80,-73,208,-75,73,-127,-80,224,-126,120,90,90,360,270,90,270,360,360,270,90,180,,,,,,,,,,,410.7333,410.7335,,0,58,58,58,1,15,novel,,,,,,,,,,,,,,,,,,,,,,,,,,,,,,,,,,,,,,,,,,,,,,,,,
,,20,3,${e://Field/PROLIFIC_PID,M,20,2023-11-03_20h28.15.497,MouseEye_CC,2023.2.2,Win32,60.26637739,1.28,,,1536,864,61.891,4.42,"19.16, 25.42, 18.82, 15.68, 17.59, 18.75, 28.15",759.86,10.80311423,47.74976492,27.83653633,Failed,159.9617125,,,,,,,,,,,,,,,,,,,,,training,4,12,180,right,s,,,,,410.7342,410.8486,35.84,-3.200012207,-3.600006104,1,0,0,0.114,fixationPoint,410.8487,410.9377,410.9378,412.3316,35.84,10240,616.96,s,1,1.3407,,412.3318,412.5313,,,,,,,,6,23,208,-160,18,-124,175,-171,126,-24,-174,-66,-77,-72,-165,123,-64,120,-165,219,-32,223,212,213,169,270,180,270,90,90,180,360,360,180,90,270,,,,,,,,,,,412.5314,412.532,,0,59,59,59,1,1,repeated,,,,,,,,,,,,,,,,,,,,,,,,,,,,,,,,,,,,,,,,,,,,,,,,,
,,20,3,${e://Field/PROLIFIC_PID,M,20,2023-11-03_20h28.15.497,MouseEye_CC,2023.2.2,Win32,60.26637739,1.28,,,1536,864,61.891,4.42,"19.16, 25.42, 18.82, 15.68, 17.59, 18.75, 28.15",759.86,10.80311423,47.74976492,27.83653633,Failed,159.9617125,,,,,,,,,,,,,,,,,,,,,training,4,13,0,left,a,,,,,412.533,412.5811,35.84,-3.200012207,-3.600006104,1,0,0,0.0479,fixationPoint,412.5811,412.681,412.681,413.5144,35.84,10240,616.96,a,1,0.8076,,413.5145,413.7139,,,,,,,,52,-176,-24,174,64,216,122,166,212,-120,76,-126,120,-128,26,116,-19,19,-116,208,-75,-167,-128,-66,-77,90,360,180,360,270,270,90,90,270,90,180,,,,,,,,,,,413.714,413.7144,,0,60,60,60,1,6,repeated,,,,,,,,,,,,,,,,,,,,,,,,,,,,,,,,,,,,,,,,,,,,,,,,,
,,20,3,${e://Field/PROLIFIC_PID,M,20,2023-11-03_20h28.15.497,MouseEye_CC,2023.2.2,Win32,60.26637739,1.28,,,1536,864,61.891,4.42,"19.16, 25.42, 18.82, 15.68, 17.59, 18.75, 28.15",759.86,10.80311423,47.74976492,27.83653633,Failed,159.9617125,,,,,,,,,,,,,,,,,,,,,training,4,14,0,left,a,,,,,413.716,413.8477,35.84,-3.200012207,-3.600006104,1,0,0,0.1315,fixationPoint,413.8478,413.9476,413.9477,416.7482,35.84,10240,616.96,s,0,2.7772,,416.7483,420.7269,,,,,,,,93,-128,-222,172,127,112,119,66,22,-25,160,-160,18,-174,73,176,-176,77,-220,28,-75,-212,-80,-214,-124,90,90,180,180,180,180,360,360,360,270,270,,,,,,,,,,,420.727,420.7411,,0,61,61,61,1,5,repeated,,,,,,,,,,,,,,,,,,,,,,,,,,,,,,,,,,,,,,,,,,,,,,,,,
,,20,3,${e://Field/PROLIFIC_PID,M,20,2023-11-03_20h28.15.497,MouseEye_CC,2023.2.2,Win32,60.26637739,1.28,,,1536,864,61.891,4.42,"19.16, 25.42, 18.82, 15.68, 17.59, 18.75, 28.15",759.86,10.80311423,47.74976492,27.83653633,Failed,159.9617125,,,,,,,,,,,,,,,,,,,,,training,4,15,180,right,s,,,,,420.7415,421.2433,35.84,-3.200012207,-3.600006104,1,0,0,0.5015,fixationPoint,421.2436,421.3437,421.3438,423.5425,35.84,10240,616.96,s,1,2.1678,,423.5427,423.7422,,,,,,,,8,123,215,-75,123,-128,208,-220,165,-223,-220,-72,-165,-116,-123,120,-165,73,-127,176,-176,213,169,174,64,180,180,360,90,180,180,180,90,270,90,270,,,,,,,,,,,423.7424,423.7431,,0,62,62,62,1,13,novel,,,,,,,,,,,,,,,,,,,,,,,,,,,,,,,,,,,,,,,,,,,,,,,,,
,,20,3,${e://Field/PROLIFIC_PID,M,20,2023-11-03_20h28.15.497,MouseEye_CC,2023.2.2,Win32,60.26637739,1.28,,,1536,864,61.891,4.42,"19.16, 25.42, 18.82, 15.68, 17.59, 18.75, 28.15",759.86,10.80311423,47.74976492,27.83653633,Failed,159.9617125,,,,,,,,,,,,,,,,,,,,,training,4,16,180,right,s,,,,,423.7443,423.7922,35.84,-3.200012207,-3.600006104,1,0,0,0.0474,fixationPoint,423.7924,423.8925,423.8927,426.2804,35.84,10240,616.96,s,1,2.3649,,426.2805,426.4763,,,,,,,,96,28,-220,76,176,170,28,28,115,-25,160,-220,165,-128,208,-124,-67,-171,-65,-66,-77,172,-24,124,-116,360,180,270,270,270,180,180,90,270,180,360,,,,,,,,,,,426.4765,427.9296,space,0,63,63,63,1,7,repeated,1.4329,,,,,,,,,,,,,,,,,,,,,,,,,,,,,,,,,,,,,,,,,,,,,,,,
,,20,3,${e://Field/PROLIFIC_PID,M,20,2023-11-03_20h28.15.497,MouseEye_CC,2023.2.2,Win32,60.26637739,1.28,,,1536,864,61.891,4.42,"19.16, 25.42, 18.82, 15.68, 17.59, 18.75, 28.15",759.86,10.80311423,47.74976492,27.83653633,Failed,159.9617125,,,,,,,,,,,,,,,,,,,,,training,5,1,180,right,s,,,,,427.9301,428.4064,35.84,-3.200012207,-3.600006104,1,0,0,0.476,fixationPoint,428.4067,428.5077,428.508,431.6061,35.84,10240,616.96,s,1,3.0667,,431.6064,431.8045,,,,,,,,12,-161,170,116,172,223,212,209,68,-167,-128,-174,-163,-220,-16,120,-165,24,-22,176,-216,-128,208,-216,70,360,90,270,180,90,270,90,360,90,360,90,,,,,,,,,,,431.8046,431.8085,,0,64,64,64,1,4,repeated,,,,,,,,,,,,,,,,,,,,,,,,,,,,,,,,,,,,,,,,,,,,,,,,,
,,20,3,${e://Field/PROLIFIC_PID,M,20,2023-11-03_20h28.15.497,MouseEye_CC,2023.2.2,Win32,60.26637739,1.28,,,1536,864,61.891,4.42,"19.16, 25.42, 18.82, 15.68, 17.59, 18.75, 28.15",759.86,10.80311423,47.74976492,27.83653633,Failed,159.9617125,,,,,,,,,,,,,,,,,,,,,training,5,2,0,left,a,,,,,431.8088,432.3108,35.84,-3.200012207,-3.600006104,1,0,0,0.5019,fixationPoint,432.3109,432.3876,432.3876,434.5869,35.84,10240,616.96,s,0,2.1692,,434.5871,438.5852,,,,,,,,29,172,127,-65,80,-78,29,-161,170,-220,-16,-69,-32,-116,-123,176,-176,116,-19,28,-220,169,164,28,115,90,90,270,360,360,270,90,90,270,270,90,,,,,,,,,,,438.5852,438.6014,,0,65,65,65,1,2,repeated,,,,,,,,,,,,,,,,,,,,,,,,,,,,,,,,,,,,,,,,,,,,,,,,,
,,20,3,${e://Field/PROLIFIC_PID,M,20,2023-11-03_20h28.15.497,MouseEye_CC,2023.2.2,Win32,60.26637739,1.28,,,1536,864,61.891,4.42,"19.16, 25.42, 18.82, 15.68, 17.59, 18.75, 28.15",759.86,10.80311423,47.74976492,27.83653633,Failed,159.9617125,,,,,,,,,,,,,,,,,,,,,training,5,3,0,left,a,,,,,438.6025,440.001,35.84,-0.799987793,9.199981689,1,0,0,1.3982,fixationPoint,440.0012,440.1006,440.1009,442.6904,35.84,10240,616.96,a,1,2.5826,,442.6905,442.8888,,,,,,,,32,-174,73,76,176,174,64,20,75,-176,-24,-72,-116,-176,-224,215,-210,116,-19,24,-22,-126,120,-28,78,360,360,180,360,180,90,360,180,270,180,90,,,,,,,,,,,442.889,442.8892,,0,66,66,66,1,16,novel,,,,,,,,,,,,,,,,,,,,,,,,,,,,,,,,,,,,,,,,,,,,,,,,,
,,20,3,${e://Field/PROLIFIC_PID,M,20,2023-11-03_20h28.15.497,MouseEye_CC,2023.2.2,Win32,60.26637739,1.28,,,1536,864,61.891,4.42,"19.16, 25.42, 18.82, 15.68, 17.59, 18.75, 28.15",759.86,10.80311423,47.74976492,27.83653633,Failed,159.9617125,,,,,,,,,,,,,,,,,,,,,training,5,4,180,right,s,,,,,442.8898,442.9865,35.84,-2.399963379,3.600006104,1,0,0,0.0966,fixationPoint,442.9866,443.0874,443.0875,445.6014,35.84,10240,616.96,s,1,2.4968,,445.6014,445.7981,,,,,,,,8,123,215,-220,165,-220,23,-120,76,-174,-163,-221,-164,-176,-24,215,-210,116,-19,219,-32,112,119,174,64,360,270,360,360,270,90,90,270,360,360,360,,,,,,,,,,,445.7983,445.7991,,0,67,67,67,1,13,novel,,,,,,,,,,,,,,,,,,,,,,,,,,,,,,,,,,,,,,,,,,,,,,,,,
,,20,3,${e://Field/PROLIFIC_PID,M,20,2023-11-03_20h28.15.497,MouseEye_CC,2023.2.2,Win32,60.26637739,1.28,,,1536,864,61.891,4.42,"19.16, 25.42, 18.82, 15.68, 17.59, 18.75, 28.15",759.86,10.80311423,47.74976492,27.83653633,Failed,159.9617125,,,,,,,,,,,,,,,,,,,,,training,5,5,180,right,s,,,,,445.8003,446.0869,35.84,-2.399963379,3.600006104,1,0,0,0.2866,fixationPoint,446.0871,446.1805,446.1805,447.8632,35.84,10240,616.96,s,1,1.6499,,447.8633,448.0635,,,,,,,,95,-31,-216,31,22,174,64,166,212,-174,73,-21,220,-128,208,28,-75,123,-64,65,-169,-176,-24,-220,-16,360,270,180,270,360,360,90,360,270,180,360,,,,,,,,,,,448.0637,448.0642,,0,68,68,68,1,9,novel,,,,,,,,,,,,,,,,,,,,,,,,,,,,,,,,,,,,,,,,,,,,,,,,,
,,20,3,${e://Field/PROLIFIC_PID,M,20,2023-11-03_20h28.15.497,MouseEye_CC,2023.2.2,Win32,60.26637739,1.28,,,1536,864,61.891,4.42,"19.16, 25.42, 18.82, 15.68, 17.59, 18.75, 28.15",759.86,10.80311423,47.74976492,27.83653633,Failed,159.9617125,,,,,,,,,,,,,,,,,,,,,training,5,6,0,left,a,,,,,448.0651,448.1299,35.84,-2.399963379,3.600006104,1,0,0,0.0644,fixationPoint,448.1299,448.2187,448.2189,449.4625,35.84,10240,616.96,a,1,1.2174,,449.4627,449.6629,,,,,,,,89,176,-176,172,127,31,22,209,68,-25,160,-124,175,-66,172,-19,-29,-220,-16,-221,-164,71,-22,219,-32,180,360,90,270,360,360,270,180,360,180,90,,,,,,,,,,,449.663,449.6637,,0,69,69,69,1,12,novel,,,,,,,,,,,,,,,,,,,,,,,,,,,,,,,,,,,,,,,,,,,,,,,,,
,,20,3,${e://Field/PROLIFIC_PID,M,20,2023-11-03_20h28.15.497,MouseEye_CC,2023.2.2,Win32,60.26637739,1.28,,,1536,864,61.891,4.42,"19.16, 25.42, 18.82, 15.68, 17.59, 18.75, 28.15",759.86,10.80311423,47.74976492,27.83653633,Failed,159.9617125,,,,,,,,,,,,,,,,,,,,,training,5,7,0,left,a,,,,,449.6646,449.7624,35.84,-2.399963379,3.600006104,1,0,0,0.0974,fixationPoint,449.7626,449.8628,449.8629,454.0436,35.84,10240,616.96,a,1,4.1404,,454.0437,454.2438,,,,,,,,13,-124,175,166,212,31,22,169,164,-72,-165,-19,-29,-214,-124,124,-116,176,-216,24,-22,-171,126,-21,220,270,270,270,180,90,360,270,270,360,90,360,,,,,,,,,,,454.2439,454.2447,,0,70,70,70,1,3,repeated,,,,,,,,,,,,,,,,,,,,,,,,,,,,,,,,,,,,,,,,,,,,,,,,,
,,20,3,${e://Field/PROLIFIC_PID,M,20,2023-11-03_20h28.15.497,MouseEye_CC,2023.2.2,Win32,60.26637739,1.28,,,1536,864,61.891,4.42,"19.16, 25.42, 18.82, 15.68, 17.59, 18.75, 28.15",759.86,10.80311423,47.74976492,27.83653633,Failed,159.9617125,,,,,,,,,,,,,,,,,,,,,training,5,8,0,left,a,,,,,454.2463,454.3449,35.84,-2.399963379,3.600006104,1,0,0,0.0981,fixationPoint,454.345,454.4437,454.4438,455.7953,35.84,10240,616.96,a,1,1.3279,,455.7954,455.9925,,,,,,,,72,-167,-128,174,64,76,176,66,22,-66,172,-220,23,-22,25,24,-22,65,-169,120,-165,-176,-224,-72,-165,360,90,270,180,360,270,90,360,360,90,180,,,,,,,,,,,455.9927,455.9931,,0,71,71,71,1,10,novel,,,,,,,,,,,,,,,,,,,,,,,,,,,,,,,,,,,,,,,,,,,,,,,,,
,,20,3,${e://Field/PROLIFIC_PID,M,20,2023-11-03_20h28.15.497,MouseEye_CC,2023.2.2,Win32,60.26637739,1.28,,,1536,864,61.891,4.42,"19.16, 25.42, 18.82, 15.68, 17.59, 18.75, 28.15",759.86,10.80311423,47.74976492,27.83653633,Failed,159.9617125,,,,,,,,,,,,,,,,,,,,,training,5,9,0,left,a,,,,,455.9942,456.0763,35.84,-2.399963379,3.600006104,1,0,0,0.0817,fixationPoint,456.0765,456.1756,456.1757,456.9091,35.84,10240,616.96,a,1,0.7048,,456.9094,457.1281,,,,,,,,6,23,208,-160,18,-124,175,-171,126,-24,-174,-66,-77,-72,-165,123,-64,120,-165,219,-32,223,212,213,169,360,180,180,180,90,270,90,90,180,270,180,,,,,,,,,,,457.1281,457.1283,,0,72,72,72,1,1,repeated,,,,,,,,,,,,,,,,,,,,,,,,,,,,,,,,,,,,,,,,,,,,,,,,,
,,20,3,${e://Field/PROLIFIC_PID,M,20,2023-11-03_20h28.15.497,MouseEye_CC,2023.2.2,Win32,60.26637739,1.28,,,1536,864,61.891,4.42,"19.16, 25.42, 18.82, 15.68, 17.59, 18.75, 28.15",759.86,10.80311423,47.74976492,27.83653633,Failed,159.9617125,,,,,,,,,,,,,,,,,,,,,training,5,10,180,right,s,,,,,457.1286,457.2249,35.84,-2.399963379,3.600006104,1,0,0,0.0961,fixationPoint,457.225,457.3252,457.3254,458.2581,35.84,10240,616.96,a,0,0.8869,,458.2582,462.2616,,,,,,,,49,170,28,-171,126,-218,209,-80,224,-212,-80,-128,-222,-171,-65,176,-176,217,-171,222,-116,123,215,223,212,270,360,360,90,360,180,360,180,270,360,90,,,,,,,,,,,462.2617,462.2808,,0,73,73,73,1,14,novel,,,,,,,,,,,,,,,,,,,,,,,,,,,,,,,,,,,,,,,,,,,,,,,,,
,,20,3,${e://Field/PROLIFIC_PID,M,20,2023-11-03_20h28.15.497,MouseEye_CC,2023.2.2,Win32,60.26637739,1.28,,,1536,864,61.891,4.42,"19.16, 25.42, 18.82, 15.68, 17.59, 18.75, 28.15",759.86,10.80311423,47.74976492,27.83653633,Failed,159.9617125,,,,,,,,,,,,,,,,,,,,,training,5,11,180,right,s,,,,,462.2817,463.1888,35.84,-2.399963379,3.600006104,1,0,0,0.9068,fixationPoint,463.1888,463.289,463.2891,464.2221,35.84,10240,616.96,s,1,0.9021,,464.2224,464.4272,,,,,,,,52,-176,-24,174,64,216,122,166,212,-120,76,-126,120,-128,26,116,-19,19,-116,208,-75,-167,-128,-66,-77,180,90,90,270,270,180,360,180,90,270,360,,,,,,,,,,,464.4273,464.4276,,0,74,74,74,1,6,repeated,,,,,,,,,,,,,,,,,,,,,,,,,,,,,,,,,,,,,,,,,,,,,,,,,
,,20,3,${e://Field/PROLIFIC_PID,M,20,2023-11-03_20h28.15.497,MouseEye_CC,2023.2.2,Win32,60.26637739,1.28,,,1536,864,61.891,4.42,"19.16, 25.42, 18.82, 15.68, 17.59, 18.75, 28.15",759.86,10.80311423,47.74976492,27.83653633,Failed,159.9617125,,,,,,,,,,,,,,,,,,,,,training,5,12,0,left,a,,,,,464.4282,464.5051,35.84,-2.399963379,3.600006104,1,0,0,0.0766,fixationPoint,464.5052,464.6053,464.6054,466.0044,35.84,10240,616.96,a,1,1.3698,,466.0046,466.2043,,,,,,,,5,-21,220,112,119,116,172,77,78,-176,-224,-128,-222,-167,-128,24,-22,113,-218,80,-73,-128,208,-28,114,270,90,270,180,180,360,180,90,180,90,180,,,,,,,,,,,466.2044,466.2046,,0,75,75,75,1,15,novel,,,,,,,,,,,,,,,,,,,,,,,,,,,,,,,,,,,,,,,,,,,,,,,,,
,,20,3,${e://Field/PROLIFIC_PID,M,20,2023-11-03_20h28.15.497,MouseEye_CC,2023.2.2,Win32,60.26637739,1.28,,,1536,864,61.891,4.42,"19.16, 25.42, 18.82, 15.68, 17.59, 18.75, 28.15",759.86,10.80311423,47.74976492,27.83653633,Failed,159.9617125,,,,,,,,,,,,,,,,,,,,,training,5,13,0,left,a,,,,,466.205,466.2375,35.84,-2.399963379,3.600006104,1,0,0,0.0321,fixationPoint,466.2376,466.3375,466.3376,468.57,35.84,10240,616.96,a,1,2.2015,,468.5702,468.7697,,,,,,,,69,168,-77,28,115,77,125,31,166,-174,73,-80,224,-160,18,-176,-24,-223,-220,-26,-65,217,-171,28,-75,90,180,180,90,180,90,270,90,90,270,270,,,,,,,,,,,468.7698,468.77,,0,76,76,76,1,8,repeated,,,,,,,,,,,,,,,,,,,,,,,,,,,,,,,,,,,,,,,,,,,,,,,,,
,,20,3,${e://Field/PROLIFIC_PID,M,20,2023-11-03_20h28.15.497,MouseEye_CC,2023.2.2,Win32,60.26637739,1.28,,,1536,864,61.891,4.42,"19.16, 25.42, 18.82, 15.68, 17.59, 18.75, 28.15",759.86,10.80311423,47.74976492,27.83653633,Failed,159.9617125,,,,,,,,,,,,,,,,,,,,,training,5,14,180,right,s,,,,,468.7706,468.8038,35.84,-2.399963379,3.600006104,1,0,0,0.0329,fixationPoint,468.8038,468.9026,468.9027,472.2681,35.84,10240,616.96,s,1,3.3489,,472.2683,472.4677,,,,,,,,96,28,-220,76,176,170,28,28,115,-25,160,-220,165,-128,208,-124,-67,-171,-65,-66,-77,172,-24,124,-116,180,360,180,270,180,180,270,90,270,360,270,,,,,,,,,,,472.4678,472.4682,,0,77,77,77,1,7,repeated,,,,,,,,,,,,,,,,,,,,,,,,,,,,,,,,,,,,,,,,,,,,,,,,,
,,20,3,${e://Field/PROLIFIC_PID,M,20,2023-11-03_20h28.15.497,MouseEye_CC,2023.2.2,Win32,60.26637739,1.28,,,1536,864,61.891,4.42,"19.16, 25.42, 18.82, 15.68, 17.59, 18.75, 28.15",759.86,10.80311423,47.74976492,27.83653633,Failed,159.9617125,,,,,,,,,,,,,,,,,,,,,training,5,15,180,right,s,,,,,472.4694,472.4901,35.84,-2.399963379,3.600006104,1,0,0,0.0206,fixationPoint,472.4902,472.5841,472.5843,473.3739,35.84,10240,616.96,s,1,0.7575,,473.3739,473.5723,,,,,,,,93,-128,-222,172,127,112,119,66,22,-25,160,-160,18,-174,73,176,-176,77,-220,28,-75,-212,-80,-214,-124,360,180,180,90,180,90,90,360,360,180,360,,,,,,,,,,,473.5724,473.5725,,0,78,78,78,1,5,repeated,,,,,,,,,,,,,,,,,,,,,,,,,,,,,,,,,,,,,,,,,,,,,,,,,
,,20,3,${e://Field/PROLIFIC_PID,M,20,2023-11-03_20h28.15.497,MouseEye_CC,2023.2.2,Win32,60.26637739,1.28,,,1536,864,61.891,4.42,"19.16, 25.42, 18.82, 15.68, 17.59, 18.75, 28.15",759.86,10.80311423,47.74976492,27.83653633,Failed,159.9617125,,,,,,,,,,,,,,,,,,,,,training,5,16,180,right,s,,,,,473.5729,473.6672,35.84,-2.399963379,3.600006104,1,0,0,0.0939,fixationPoint,473.6674,473.7669,473.767,475.7494,35.84,10240,616.96,s,1,1.9506,,475.7494,475.9514,,,,,,,,88,120,-165,170,28,209,68,174,64,-21,220,-171,126,-220,23,-69,-32,-112,-172,-72,-116,113,-218,80,-73,360,270,90,360,180,90,270,360,270,270,270,,,,,,,,,,,475.9517,482.3513,space,0,79,79,79,1,11,novel,6.3799,,,,,,,,,,,,,,,,,,,,,,,,,,,,,,,,,,,,,,,,,,,,,,,,
,,20,3,${e://Field/PROLIFIC_PID,M,20,2023-11-03_20h28.15.497,MouseEye_CC,2023.2.2,Win32,60.26637739,1.28,,,1536,864,61.891,4.42,"19.16, 25.42, 18.82, 15.68, 17.59, 18.75, 28.15",759.86,10.80311423,47.74976492,27.83653633,Failed,159.9617125,,,,,,,,,,,,,,,,,,,,,training,6,1,0,left,a,,,,,482.3647,482.6297,35.84,0.799987793,-0.399993896,1,0,0,0.2647,fixationPoint,482.6299,482.7289,482.729,485.3118,35.84,10240,616.96,a,1,2.5562,,485.3121,485.5111,,,,,,,,95,-31,-216,23,208,170,28,223,212,-66,172,-171,126,-80,224,80,-73,116,-19,71,-22,-26,-65,-77,-223,90,270,90,360,180,360,360,180,180,360,270,,,,,,,,,,,485.5111,485.5159,,0,80,80,80,1,9,novel,,,,,,,,,,,,,,,,,,,,,,,,,,,,,,,,,,,,,,,,,,,,,,,,,
,,20,3,${e://Field/PROLIFIC_PID,M,20,2023-11-03_20h28.15.497,MouseEye_CC,2023.2.2,Win32,60.26637739,1.28,,,1536,864,61.891,4.42,"19.16, 25.42, 18.82, 15.68, 17.59, 18.75, 28.15",759.86,10.80311423,47.74976492,27.83653633,Failed,159.9617125,,,,,,,,,,,,,,,,,,,,,training,6,2,0,left,a,,,,,485.5164,485.5346,35.84,0.799987793,-0.399993896,1,0,0,0.0181,fixationPoint,485.5346,485.6277,485.6279,487.4675,35.84,10240,616.96,a,1,1.8175,,487.4675,487.6658,,,,,,,,5,-21,220,31,166,66,22,112,119,-176,-24,-66,-77,-24,-174,217,-171,116,-19,24,-22,-128,26,-120,76,360,90,90,360,90,360,360,90,270,360,360,,,,,,,,,,,487.6659,487.6661,,0,81,81,81,1,15,novel,,,,,,,,,,,,,,,,,,,,,,,,,,,,,,,,,,,,,,,,,,,,,,,,,
,,20,3,${e://Field/PROLIFIC_PID,M,20,2023-11-03_20h28.15.497,MouseEye_CC,2023.2.2,Win32,60.26637739,1.28,,,1536,864,61.891,4.42,"19.16, 25.42, 18.82, 15.68, 17.59, 18.75, 28.15",759.86,10.80311423,47.74976492,27.83653633,Failed,159.9617125,,,,,,,,,,,,,,,,,,,,,training,6,3,180,right,s,,,,,487.6666,487.6995,35.84,0.799987793,-0.399993896,1,0,0,0.0328,fixationPoint,487.6996,487.7962,487.7963,491.1587,35.84,10240,616.96,s,1,3.3338,,491.1591,491.3582,,,,,,,,8,123,215,-21,220,-171,126,-80,224,-116,-123,-31,-216,-112,-172,176,-176,176,-216,77,-220,122,31,66,22,270,90,90,360,90,90,90,270,90,180,90,,,,,,,,,,,491.3583,491.3587,,0,82,82,82,1,13,novel,,,,,,,,,,,,,,,,,,,,,,,,,,,,,,,,,,,,,,,,,,,,,,,,,
,,20,3,${e://Field/PROLIFIC_PID,M,20,2023-11-03_20h28.15.497,MouseEye_CC,2023.2.2,Win32,60.26637739,1.28,,,1536,864,61.891,4.42,"19.16, 25.42, 18.82, 15.68, 17.59, 18.75, 28.15",759.86,10.80311423,47.74976492,27.83653633,Failed,159.9617125,,,,,,,,,,,,,,,,,,,,,training,6,4,0,left,a,,,,,491.3601,491.3989,35.84,0.799987793,-0.399993896,1,0,0,0.0387,fixationPoint,491.399,491.4912,491.4912,496.4556,35.84,10240,616.96,a,1,4.9341,,496.4556,496.6562,,,,,,,,88,120,-165,223,212,121,73,74,216,-160,18,-220,165,-126,120,-220,-16,-223,-220,-128,-222,65,-169,123,-64,270,270,270,270,270,270,90,360,90,270,270,,,,,,,,,,,496.6563,496.6567,,0,83,83,83,1,11,novel,,,,,,,,,,,,,,,,,,,,,,,,,,,,,,,,,,,,,,,,,,,,,,,,,
,,20,3,${e://Field/PROLIFIC_PID,M,20,2023-11-03_20h28.15.497,MouseEye_CC,2023.2.2,Win32,60.26637739,1.28,,,1536,864,61.891,4.42,"19.16, 25.42, 18.82, 15.68, 17.59, 18.75, 28.15",759.86,10.80311423,47.74976492,27.83653633,Failed,159.9617125,,,,,,,,,,,,,,,,,,,,,training,6,5,0,left,a,,,,,496.6576,497.0551,35.84,0.799987793,-0.399993896,1,0,0,0.3975,fixationPoint,497.0552,497.1554,497.1555,498.4608,35.84,10240,616.96,a,1,1.2975,,498.4608,498.6546,,,,,,,,12,-161,170,116,172,223,212,209,68,-167,-128,-174,-163,-220,-16,120,-165,24,-22,176,-216,-128,208,-216,70,90,180,270,90,360,360,180,270,90,90,360,,,,,,,,,,,498.6548,498.6553,,0,84,84,84,1,4,repeated,,,,,,,,,,,,,,,,,,,,,,,,,,,,,,,,,,,,,,,,,,,,,,,,,
,,20,3,${e://Field/PROLIFIC_PID,M,20,2023-11-03_20h28.15.497,MouseEye_CC,2023.2.2,Win32,60.26637739,1.28,,,1536,864,61.891,4.42,"19.16, 25.42, 18.82, 15.68, 17.59, 18.75, 28.15",759.86,10.80311423,47.74976492,27.83653633,Failed,159.9617125,,,,,,,,,,,,,,,,,,,,,training,6,6,0,left,a,,,,,498.6564,498.7378,35.84,0.799987793,-0.399993896,1,0,0,0.0811,fixationPoint,498.7378,498.8376,498.8377,500.9372,35.84,10240,616.96,a,1,2.0716,,500.9374,501.1367,,,,,,,,72,-167,-128,28,115,77,125,223,212,-25,160,-128,208,-124,175,172,-24,28,-75,208,-75,-26,-65,-77,-223,270,270,90,90,90,180,180,180,180,180,360,,,,,,,,,,,501.1368,501.1369,,0,85,85,85,1,10,novel,,,,,,,,,,,,,,,,,,,,,,,,,,,,,,,,,,,,,,,,,,,,,,,,,
,,20,3,${e://Field/PROLIFIC_PID,M,20,2023-11-03_20h28.15.497,MouseEye_CC,2023.2.2,Win32,60.26637739,1.28,,,1536,864,61.891,4.42,"19.16, 25.42, 18.82, 15.68, 17.59, 18.75, 28.15",759.86,10.80311423,47.74976492,27.83653633,Failed,159.9617125,,,,,,,,,,,,,,,,,,,,,training,6,7,180,right,s,,,,,501.1375,501.2197,35.84,0.799987793,-0.399993896,1,0,0,0.0821,fixationPoint,501.2197,501.3229,501.3229,505.6007,35.84,10240,616.96,a,0,4.2402,,505.6008,509.5992,,,,,,,,32,-174,73,169,164,174,64,122,31,-212,-80,-66,-77,-72,-165,116,-19,219,-32,28,-220,-120,76,-128,208,270,360,180,180,180,270,270,270,90,180,180,,,,,,,,,,,509.5993,509.6119,,0,86,86,86,1,16,novel,,,,,,,,,,,,,,,,,,,,,,,,,,,,,,,,,,,,,,,,,,,,,,,,,
,,20,3,${e://Field/PROLIFIC_PID,M,20,2023-11-03_20h28.15.497,MouseEye_CC,2023.2.2,Win32,60.26637739,1.28,,,1536,864,61.891,4.42,"19.16, 25.42, 18.82, 15.68, 17.59, 18.75, 28.15",759.86,10.80311423,47.74976492,27.83653633,Failed,159.9617125,,,,,,,,,,,,,,,,,,,,,training,6,8,0,left,a,,,,,509.6125,510.049,35.84,0.799987793,-0.399993896,1,0,0,0.4364,fixationPoint,510.0491,510.1486,510.1488,512.9141,35.84,10240,616.96,a,1,2.7339,,512.9142,513.1137,,,,,,,,69,168,-77,28,115,77,125,31,166,-174,73,-80,224,-160,18,-176,-24,-223,-220,-26,-65,217,-171,28,-75,90,360,180,180,180,270,180,270,270,270,90,,,,,,,,,,,513.1138,513.1142,,0,87,87,87,1,8,repeated,,,,,,,,,,,,,,,,,,,,,,,,,,,,,,,,,,,,,,,,,,,,,,,,,
,,20,3,${e://Field/PROLIFIC_PID,M,20,2023-11-03_20h28.15.497,MouseEye_CC,2023.2.2,Win32,60.26637739,1.28,,,1536,864,61.891,4.42,"19.16, 25.42, 18.82, 15.68, 17.59, 18.75, 28.15",759.86,10.80311423,47.74976492,27.83653633,Failed,159.9617125,,,,,,,,,,,,,,,,,,,,,training,6,9,180,right,s,,,,,513.115,513.2304,35.84,0.799987793,-0.399993896,1,0,0,0.1151,fixationPoint,513.2304,513.3302,513.3303,514.3304,35.84,10240,616.96,s,1,0.9879,,514.3307,514.5353,,,,,,,,52,-176,-24,174,64,216,122,166,212,-120,76,-126,120,-128,26,116,-19,19,-116,208,-75,-167,-128,-66,-77,90,360,180,90,270,360,90,360,180,90,90,,,,,,,,,,,514.5354,514.5356,,0,88,88,88,1,6,repeated,,,,,,,,,,,,,,,,,,,,,,,,,,,,,,,,,,,,,,,,,,,,,,,,,
,,20,3,${e://Field/PROLIFIC_PID,M,20,2023-11-03_20h28.15.497,MouseEye_CC,2023.2.2,Win32,60.26637739,1.28,,,1536,864,61.891,4.42,"19.16, 25.42, 18.82, 15.68, 17.59, 18.75, 28.15",759.86,10.80311423,47.74976492,27.83653633,Failed,159.9617125,,,,,,,,,,,,,,,,,,,,,training,6,10,0,left,a,,,,,514.5364,514.6463,35.84,0.799987793,-0.399993896,1,0,0,0.1097,fixationPoint,514.6464,514.7462,514.7463,519.7775,35.84,10240,616.96,a,1,5.0001,,519.7777,519.9772,,,,,,,,89,176,-176,23,208,166,212,121,73,-174,73,-163,209,-80,224,-220,-16,-69,-32,-167,-128,28,-75,116,-19,90,180,360,360,360,360,90,360,360,90,180,,,,,,,,,,,519.9773,519.978,,0,89,89,89,1,12,novel,,,,,,,,,,,,,,,,,,,,,,,,,,,,,,,,,,,,,,,,,,,,,,,,,
,,20,3,${e://Field/PROLIFIC_PID,M,20,2023-11-03_20h28.15.497,MouseEye_CC,2023.2.2,Win32,60.26637739,1.28,,,1536,864,61.891,4.42,"19.16, 25.42, 18.82, 15.68, 17.59, 18.75, 28.15",759.86,10.80311423,47.74976492,27.83653633,Failed,159.9617125,,,,,,,,,,,,,,,,,,,,,training,6,11,180,right,s,,,,,519.979,520.0782,35.84,0.799987793,-0.399993896,1,0,0,0.0989,fixationPoint,520.0783,520.1776,520.1777,522.8643,35.84,10240,616.96,s,1,2.6651,,522.8643,523.0642,,,,,,,,49,170,28,-80,224,-65,80,-25,160,-212,-80,-167,-128,-214,-124,77,-220,217,-171,168,-117,20,75,74,216,270,180,270,270,360,360,360,270,270,360,180,,,,,,,,,,,523.0643,523.0646,,0,90,90,90,1,14,novel,,,,,,,,,,,,,,,,,,,,,,,,,,,,,,,,,,,,,,,,,,,,,,,,,
,,20,3,${e://Field/PROLIFIC_PID,M,20,2023-11-03_20h28.15.497,MouseEye_CC,2023.2.2,Win32,60.26637739,1.28,,,1536,864,61.891,4.42,"19.16, 25.42, 18.82, 15.68, 17.59, 18.75, 28.15",759.86,10.80311423,47.74976492,27.83653633,Failed,159.9617125,,,,,,,,,,,,,,,,,,,,,training,6,12,180,right,s,,,,,523.0652,523.1424,35.84,0.799987793,-0.399993896,1,0,0,0.0767,fixationPoint,523.1426,523.2424,523.2426,526.1913,35.84,10240,616.96,s,1,2.9175,,526.1917,526.3908,,,,,,,,6,23,208,-160,18,-124,175,-171,126,-24,-174,-66,-77,-72,-165,123,-64,120,-165,219,-32,223,212,213,169,90,360,270,270,360,360,90,180,360,90,270,,,,,,,,,,,526.391,526.3916,,0,91,91,91,1,1,repeated,,,,,,,,,,,,,,,,,,,,,,,,,,,,,,,,,,,,,,,,,,,,,,,,,
,,20,3,${e://Field/PROLIFIC_PID,M,20,2023-11-03_20h28.15.497,MouseEye_CC,2023.2.2,Win32,60.26637739,1.28,,,1536,864,61.891,4.42,"19.16, 25.42, 18.82, 15.68, 17.59, 18.75, 28.15",759.86,10.80311423,47.74976492,27.83653633,Failed,159.9617125,,,,,,,,,,,,,,,,,,,,,training,6,13,0,left,a,,,,,526.3924,526.4636,35.84,0.799987793,-0.399993896,1,0,0,0.071,fixationPoint,526.4636,526.5569,526.5571,529.5583,35.84,10240,616.96,a,1,2.9788,,529.5583,529.7598,,,,,,,,93,-128,-222,172,127,112,119,66,22,-25,160,-160,18,-174,73,176,-176,77,-220,28,-75,-212,-80,-214,-124,90,180,90,360,180,360,180,180,360,90,180,,,,,,,,,,,529.7599,529.7603,,0,92,92,92,1,5,repeated,,,,,,,,,,,,,,,,,,,,,,,,,,,,,,,,,,,,,,,,,,,,,,,,,
,,20,3,${e://Field/PROLIFIC_PID,M,20,2023-11-03_20h28.15.497,MouseEye_CC,2023.2.2,Win32,60.26637739,1.28,,,1536,864,61.891,4.42,"19.16, 25.42, 18.82, 15.68, 17.59, 18.75, 28.15",759.86,10.80311423,47.74976492,27.83653633,Failed,159.9617125,,,,,,,,,,,,,,,,,,,,,training,6,14,180,right,s,,,,,529.761,529.8466,35.84,0.799987793,-0.399993896,1,0,0,0.0855,fixationPoint,529.8467,529.9449,529.9449,530.9109,35.84,10240,616.96,s,1,0.9498,,530.9109,531.1051,,,,,,,,96,28,-220,76,176,170,28,28,115,-25,160,-220,165,-128,208,-124,-67,-171,-65,-66,-77,172,-24,124,-116,360,180,270,270,180,180,180,360,360,360,360,,,,,,,,,,,531.1053,531.106,,0,93,93,93,1,7,repeated,,,,,,,,,,,,,,,,,,,,,,,,,,,,,,,,,,,,,,,,,,,,,,,,,
,,20,3,${e://Field/PROLIFIC_PID,M,20,2023-11-03_20h28.15.497,MouseEye_CC,2023.2.2,Win32,60.26637739,1.28,,,1536,864,61.891,4.42,"19.16, 25.42, 18.82, 15.68, 17.59, 18.75, 28.15",759.86,10.80311423,47.74976492,27.83653633,Failed,159.9617125,,,,,,,,,,,,,,,,,,,,,training,6,15,180,right,s,,,,,531.1068,531.1715,35.84,0.799987793,-0.399993896,1,0,0,0.0643,fixationPoint,531.1717,531.2716,531.2717,533.502,35.84,10240,616.96,s,1,2.2092,,533.502,533.7041,,,,,,,,13,-124,175,166,212,31,22,169,164,-72,-165,-19,-29,-214,-124,124,-116,176,-216,24,-22,-171,126,-21,220,90,270,180,270,270,90,270,90,360,180,270,,,,,,,,,,,533.7044,533.7051,,0,94,94,94,1,3,repeated,,,,,,,,,,,,,,,,,,,,,,,,,,,,,,,,,,,,,,,,,,,,,,,,,
,,20,3,${e://Field/PROLIFIC_PID,M,20,2023-11-03_20h28.15.497,MouseEye_CC,2023.2.2,Win32,60.26637739,1.28,,,1536,864,61.891,4.42,"19.16, 25.42, 18.82, 15.68, 17.59, 18.75, 28.15",759.86,10.80311423,47.74976492,27.83653633,Failed,159.9617125,,,,,,,,,,,,,,,,,,,,,training,6,16,180,right,s,,,,,533.7059,534.1037,35.84,0.799987793,-0.399993896,1,0,0,0.3975,fixationPoint,534.1039,534.1919,534.192,536.8748,35.84,10240,616.96,s,1,2.6494,,536.8748,537.0684,,,,,,,,29,172,127,-65,80,-78,29,-161,170,-220,-16,-69,-32,-116,-123,176,-176,116,-19,28,-220,169,164,28,115,90,360,90,90,180,270,360,90,360,180,360,,,,,,,,,,,537.0685,538.1073,space,0,95,95,95,1,2,repeated,1.016,,,,,,,,,,,,,,,,,,,,,,,,,,,,,,,,,,,,,,,,,,,,,,,,
,,20,3,${e://Field/PROLIFIC_PID,M,20,2023-11-03_20h28.15.497,MouseEye_CC,2023.2.2,Win32,60.26637739,1.28,,,1536,864,61.891,4.42,"19.16, 25.42, 18.82, 15.68, 17.59, 18.75, 28.15",759.86,10.80311423,47.74976492,27.83653633,Failed,159.9617125,,,,,,,,,,,,,,,,,,,,,training,7,1,180,right,s,,,,,538.1082,538.3514,35.84,0.799987793,-0.399993896,1,0,0,0.2428,fixationPoint,538.3515,538.4554,538.4554,540.2684,35.84,10240,616.96,s,1,1.7858,,540.269,540.4668,,,,,,,,88,120,-165,174,64,74,216,112,119,-163,209,-128,208,-161,170,-176,-24,-123,-24,-124,-67,124,-116,176,-216,360,360,270,180,180,360,180,180,360,270,180,,,,,,,,,,,540.4669,540.4702,,0,96,96,96,1,11,novel,,,,,,,,,,,,,,,,,,,,,,,,,,,,,,,,,,,,,,,,,,,,,,,,,
,,20,3,${e://Field/PROLIFIC_PID,M,20,2023-11-03_20h28.15.497,MouseEye_CC,2023.2.2,Win32,60.26637739,1.28,,,1536,864,61.891,4.42,"19.16, 25.42, 18.82, 15.68, 17.59, 18.75, 28.15",759.86,10.80311423,47.74976492,27.83653633,Failed,159.9617125,,,,,,,,,,,,,,,,,,,,,training,7,2,180,right,s,,,,,540.4705,540.5344,35.84,0.799987793,-0.399993896,1,0,0,0.0635,fixationPoint,540.5346,540.6378,540.6379,542.4662,35.84,10240,616.96,s,1,1.7998,,542.4664,542.6659,,,,,,,,89,176,-176,112,119,23,208,31,22,-218,209,-28,78,-171,126,-221,-164,-214,-124,-174,-163,28,-220,219,-32,360,360,90,90,270,180,270,270,90,90,180,,,,,,,,,,,542.666,542.6662,,0,97,97,97,1,12,novel,,,,,,,,,,,,,,,,,,,,,,,,,,,,,,,,,,,,,,,,,,,,,,,,,
,,20,3,${e://Field/PROLIFIC_PID,M,20,2023-11-03_20h28.15.497,MouseEye_CC,2023.2.2,Win32,60.26637739,1.28,,,1536,864,61.891,4.42,"19.16, 25.42, 18.82, 15.68, 17.59, 18.75, 28.15",759.86,10.80311423,47.74976492,27.83653633,Failed,159.9617125,,,,,,,,,,,,,,,,,,,,,training,7,3,0,left,a,,,,,542.6668,542.7159,35.84,0.799987793,-0.399993896,1,0,0,0.0488,fixationPoint,542.716,542.8155,542.8155,544.4392,35.84,10240,616.96,a,1,1.6171,,544.4392,544.6319,,,,,,,,13,-124,175,166,212,31,22,169,164,-72,-165,-19,-29,-214,-124,124,-116,176,-216,24,-22,-171,126,-21,220,180,360,360,270,360,90,360,90,180,270,180,,,,,,,,,,,544.632,544.6326,,0,98,98,98,1,3,repeated,,,,,,,,,,,,,,,,,,,,,,,,,,,,,,,,,,,,,,,,,,,,,,,,,
,,20,3,${e://Field/PROLIFIC_PID,M,20,2023-11-03_20h28.15.497,MouseEye_CC,2023.2.2,Win32,60.26637739,1.28,,,1536,864,61.891,4.42,"19.16, 25.42, 18.82, 15.68, 17.59, 18.75, 28.15",759.86,10.80311423,47.74976492,27.83653633,Failed,159.9617125,,,,,,,,,,,,,,,,,,,,,training,7,4,0,left,a,,,,,544.6334,544.7314,35.84,0.799987793,-0.399993896,1,0,0,0.0977,fixationPoint,544.7314,544.8315,544.8316,547.0468,35.84,10240,616.96,a,1,2.1842,,547.0468,547.247,,,,,,,,12,-161,170,116,172,223,212,209,68,-167,-128,-174,-163,-220,-16,120,-165,24,-22,176,-216,-128,208,-216,70,90,360,360,270,180,90,90,270,90,180,180,,,,,,,,,,,547.2472,547.2474,,0,99,99,99,1,4,repeated,,,,,,,,,,,,,,,,,,,,,,,,,,,,,,,,,,,,,,,,,,,,,,,,,
,,20,3,${e://Field/PROLIFIC_PID,M,20,2023-11-03_20h28.15.497,MouseEye_CC,2023.2.2,Win32,60.26637739,1.28,,,1536,864,61.891,4.42,"19.16, 25.42, 18.82, 15.68, 17.59, 18.75, 28.15",759.86,10.80311423,47.74976492,27.83653633,Failed,159.9617125,,,,,,,,,,,,,,,,,,,,,training,7,5,0,left,a,,,,,547.2479,547.3464,35.84,0.799987793,-0.399993896,1,0,0,0.0983,fixationPoint,547.3464,547.4351,547.4352,549.2124,35.84,10240,616.96,a,1,1.7509,,549.2125,549.4124,,,,,,,,96,28,-220,76,176,170,28,28,115,-25,160,-220,165,-128,208,-124,-67,-171,-65,-66,-77,172,-24,124,-116,360,90,270,270,360,360,270,180,90,180,180,,,,,,,,,,,549.4125,549.4128,,0,100,100,100,1,7,repeated,,,,,,,,,,,,,,,,,,,,,,,,,,,,,,,,,,,,,,,,,,,,,,,,,
,,20,3,${e://Field/PROLIFIC_PID,M,20,2023-11-03_20h28.15.497,MouseEye_CC,2023.2.2,Win32,60.26637739,1.28,,,1536,864,61.891,4.42,"19.16, 25.42, 18.82, 15.68, 17.59, 18.75, 28.15",759.86,10.80311423,47.74976492,27.83653633,Failed,159.9617125,,,,,,,,,,,,,,,,,,,,,training,7,6,0,left,a,,,,,549.4135,549.429,35.84,0.799987793,-0.399993896,1,0,0,0.0153,fixationPoint,549.4291,549.5287,549.5288,551.6677,35.84,10240,616.96,a,1,2.1323,,551.6679,551.8668,,,,,,,,32,-174,73,209,68,216,122,77,125,-167,-128,-116,-123,-26,-65,215,-210,176,-216,28,-220,-120,76,-78,29,270,180,270,270,90,270,90,360,180,270,180,,,,,,,,,,,551.8668,551.8671,,0,101,101,101,1,16,novel,,,,,,,,,,,,,,,,,,,,,,,,,,,,,,,,,,,,,,,,,,,,,,,,,
,,20,3,${e://Field/PROLIFIC_PID,M,20,2023-11-03_20h28.15.497,MouseEye_CC,2023.2.2,Win32,60.26637739,1.28,,,1536,864,61.891,4.42,"19.16, 25.42, 18.82, 15.68, 17.59, 18.75, 28.15",759.86,10.80311423,47.74976492,27.83653633,Failed,159.9617125,,,,,,,,,,,,,,,,,,,,,training,7,7,180,right,s,,,,,551.8678,551.9112,35.84,0.799987793,-0.399993896,1,0,0,0.0431,fixationPoint,551.9112,552.0104,552.0105,554.0439,35.84,10240,616.96,s,1,2.002,,554.044,554.2436,,,,,,,,95,-31,-216,116,172,31,166,166,212,-128,208,-161,170,-171,126,124,-116,219,-32,168,-77,-167,-128,-174,-163,90,270,90,180,270,360,180,270,90,360,270,,,,,,,,,,,554.2438,554.2446,,0,102,102,102,1,9,novel,,,,,,,,,,,,,,,,,,,,,,,,,,,,,,,,,,,,,,,,,,,,,,,,,
,,20,3,${e://Field/PROLIFIC_PID,M,20,2023-11-03_20h28.15.497,MouseEye_CC,2023.2.2,Win32,60.26637739,1.28,,,1536,864,61.891,4.42,"19.16, 25.42, 18.82, 15.68, 17.59, 18.75, 28.15",759.86,10.80311423,47.74976492,27.83653633,Failed,159.9617125,,,,,,,,,,,,,,,,,,,,,training,7,8,0,left,a,,,,,554.2455,554.3437,35.84,0.799987793,-0.399993896,1,0,0,0.0977,fixationPoint,554.3439,554.449,554.4491,557.925,35.84,10240,616.96,a,1,3.4561,,557.9252,558.1137,,,,,,,,52,-176,-24,174,64,216,122,166,212,-120,76,-126,120,-128,26,116,-19,19,-116,208,-75,-167,-128,-66,-77,270,360,360,270,90,270,180,270,270,270,180,,,,,,,,,,,558.1138,558.1142,,0,103,103,103,1,6,repeated,,,,,,,,,,,,,,,,,,,,,,,,,,,,,,,,,,,,,,,,,,,,,,,,,
,,20,3,${e://Field/PROLIFIC_PID,M,20,2023-11-03_20h28.15.497,MouseEye_CC,2023.2.2,Win32,60.26637739,1.28,,,1536,864,61.891,4.42,"19.16, 25.42, 18.82, 15.68, 17.59, 18.75, 28.15",759.86,10.80311423,47.74976492,27.83653633,Failed,159.9617125,,,,,,,,,,,,,,,,,,,,,training,7,9,180,right,s,,,,,558.1149,558.1999,35.84,0.799987793,-0.399993896,1,0,0,0.0847,fixationPoint,558.2001,558.292,558.2922,561.673,35.84,10240,616.96,s,1,3.3506,,561.6731,561.8727,,,,,,,,69,168,-77,28,115,77,125,31,166,-174,73,-80,224,-160,18,-176,-24,-223,-220,-26,-65,217,-171,28,-75,360,90,180,90,90,270,90,90,90,180,180,,,,,,,,,,,561.8728,561.8731,,0,104,104,104,1,8,repeated,,,,,,,,,,,,,,,,,,,,,,,,,,,,,,,,,,,,,,,,,,,,,,,,,
,,20,3,${e://Field/PROLIFIC_PID,M,20,2023-11-03_20h28.15.497,MouseEye_CC,2023.2.2,Win32,60.26637739,1.28,,,1536,864,61.891,4.42,"19.16, 25.42, 18.82, 15.68, 17.59, 18.75, 28.15",759.86,10.80311423,47.74976492,27.83653633,Failed,159.9617125,,,,,,,,,,,,,,,,,,,,,training,7,10,0,left,a,,,,,561.874,561.9395,35.84,0.799987793,-0.399993896,1,0,0,0.0652,fixationPoint,561.9396,562.0393,562.0394,563.6453,35.84,10240,616.96,a,1,1.5839,,563.6454,563.8435,,,,,,,,93,-128,-222,172,127,112,119,66,22,-25,160,-160,18,-174,73,176,-176,77,-220,28,-75,-212,-80,-214,-124,360,90,270,270,180,180,90,90,180,90,180,,,,,,,,,,,563.8437,563.8439,,0,105,105,105,1,5,repeated,,,,,,,,,,,,,,,,,,,,,,,,,,,,,,,,,,,,,,,,,,,,,,,,,
,,20,3,${e://Field/PROLIFIC_PID,M,20,2023-11-03_20h28.15.497,MouseEye_CC,2023.2.2,Win32,60.26637739,1.28,,,1536,864,61.891,4.42,"19.16, 25.42, 18.82, 15.68, 17.59, 18.75, 28.15",759.86,10.80311423,47.74976492,27.83653633,Failed,159.9617125,,,,,,,,,,,,,,,,,,,,,training,7,11,180,right,s,,,,,563.8444,563.925,35.84,0.799987793,-0.399993896,1,0,0,0.0805,fixationPoint,563.9251,564.0226,564.0228,565.4217,35.84,10240,616.96,s,1,1.3687,,565.4221,565.6216,,,,,,,,8,123,215,-161,170,-25,160,-28,78,-112,-172,-26,-65,-29,-126,219,-32,172,-24,71,-22,74,216,28,115,90,180,90,270,180,270,90,360,90,90,90,,,,,,,,,,,565.6217,565.622,,0,106,106,106,1,13,novel,,,,,,,,,,,,,,,,,,,,,,,,,,,,,,,,,,,,,,,,,,,,,,,,,
,,20,3,${e://Field/PROLIFIC_PID,M,20,2023-11-03_20h28.15.497,MouseEye_CC,2023.2.2,Win32,60.26637739,1.28,,,1536,864,61.891,4.42,"19.16, 25.42, 18.82, 15.68, 17.59, 18.75, 28.15",759.86,10.80311423,47.74976492,27.83653633,Failed,159.9617125,,,,,,,,,,,,,,,,,,,,,training,7,12,180,right,s,,,,,565.6228,565.694,35.84,0.799987793,-0.399993896,1,0,0,0.0711,fixationPoint,565.6941,565.7878,565.788,567.6041,35.84,10240,616.96,s,1,1.7882,,567.6046,567.8082,,,,,,,,29,172,127,-65,80,-78,29,-161,170,-220,-16,-69,-32,-116,-123,176,-176,116,-19,28,-220,169,164,28,115,90,270,90,360,270,180,270,90,90,270,270,,,,,,,,,,,567.8083,567.8084,,0,107,107,107,1,2,repeated,,,,,,,,,,,,,,,,,,,,,,,,,,,,,,,,,,,,,,,,,,,,,,,,,
,,20,3,${e://Field/PROLIFIC_PID,M,20,2023-11-03_20h28.15.497,MouseEye_CC,2023.2.2,Win32,60.26637739,1.28,,,1536,864,61.891,4.42,"19.16, 25.42, 18.82, 15.68, 17.59, 18.75, 28.15",759.86,10.80311423,47.74976492,27.83653633,Failed,159.9617125,,,,,,,,,,,,,,,,,,,,,training,7,13,0,left,a,,,,,567.8089,567.87,35.84,0.799987793,-0.399993896,1,0,0,0.0607,fixationPoint,567.8701,567.9697,567.9699,568.7858,35.84,10240,616.96,a,1,0.789,,568.7858,568.9856,,,,,,,,6,23,208,-160,18,-124,175,-171,126,-24,-174,-66,-77,-72,-165,123,-64,120,-165,219,-32,223,212,213,169,360,90,180,90,360,360,90,180,180,270,180,,,,,,,,,,,568.9856,568.9859,,0,108,108,108,1,1,repeated,,,,,,,,,,,,,,,,,,,,,,,,,,,,,,,,,,,,,,,,,,,,,,,,,
,,20,3,${e://Field/PROLIFIC_PID,M,20,2023-11-03_20h28.15.497,MouseEye_CC,2023.2.2,Win32,60.26637739,1.28,,,1536,864,61.891,4.42,"19.16, 25.42, 18.82, 15.68, 17.59, 18.75, 28.15",759.86,10.80311423,47.74976492,27.83653633,Failed,159.9617125,,,,,,,,,,,,,,,,,,,,,training,7,14,0,left,a,,,,,568.9863,569.0687,35.84,0.799987793,-0.399993896,1,0,0,0.0822,fixationPoint,569.0688,569.1688,569.1688,572.8337,35.84,10240,616.96,a,1,3.6492,,572.8338,573.0342,,,,,,,,72,-167,-128,213,169,223,212,28,115,-120,76,-126,120,-128,208,217,-171,113,-218,28,-220,-128,-222,-26,-65,270,90,360,90,360,180,360,360,270,270,180,,,,,,,,,,,573.0344,573.0352,,0,109,109,109,1,10,novel,,,,,,,,,,,,,,,,,,,,,,,,,,,,,,,,,,,,,,,,,,,,,,,,,
,,20,3,${e://Field/PROLIFIC_PID,M,20,2023-11-03_20h28.15.497,MouseEye_CC,2023.2.2,Win32,60.26637739,1.28,,,1536,864,61.891,4.42,"19.16, 25.42, 18.82, 15.68, 17.59, 18.75, 28.15",759.86,10.80311423,47.74976492,27.83653633,Failed,159.9617125,,,,,,,,,,,,,,,,,,,,,training,7,15,180,right,s,,,,,573.0363,573.073,35.84,0.799987793,-0.399993896,1,0,0,0.0365,fixationPoint,573.073,573.1696,573.1696,574.1006,35.84,10240,616.96,s,1,0.9006,,574.1009,574.2999,,,,,,,,5,-21,220,31,166,66,22,213,169,-171,-65,-26,-65,-223,-220,28,-75,219,-32,116,-19,-174,73,-80,224,270,270,90,270,90,90,180,180,270,360,90,,,,,,,,,,,574.3,574.3003,,0,110,110,110,1,15,novel,,,,,,,,,,,,,,,,,,,,,,,,,,,,,,,,,,,,,,,,,,,,,,,,,
,,20,3,${e://Field/PROLIFIC_PID,M,20,2023-11-03_20h28.15.497,MouseEye_CC,2023.2.2,Win32,60.26637739,1.28,,,1536,864,61.891,4.42,"19.16, 25.42, 18.82, 15.68, 17.59, 18.75, 28.15",759.86,10.80311423,47.74976492,27.83653633,Failed,159.9617125,,,,,,,,,,,,,,,,,,,,,training,7,16,180,right,s,,,,,574.3013,574.3832,35.84,0.799987793,-0.399993896,1,0,0,0.0816,fixationPoint,574.3833,574.489,574.4892,577.6991,35.84,10240,616.96,s,1,3.186,,577.6995,577.8977,,,,,,,,49,170,28,-22,25,-80,224,-78,29,-24,-174,-167,-128,-72,-165,176,-176,217,-171,222,-116,213,169,123,215,90,180,180,180,270,180,360,360,90,270,270,,,,,,,,,,,577.8978,578.6315,space,0,111,111,111,1,14,novel,0.7105,,,,,,,,,,,,,,,,,,,,,,,,,,,,,,,,,,,,,,,,,,,,,,,,
,,20,3,${e://Field/PROLIFIC_PID,M,20,2023-11-03_20h28.15.497,MouseEye_CC,2023.2.2,Win32,60.26637739,1.28,,,1536,864,61.891,4.42,"19.16, 25.42, 18.82, 15.68, 17.59, 18.75, 28.15",759.86,10.80311423,47.74976492,27.83653633,Failed,159.9617125,,,,,,,,,,,,,,,,,,,,,training,8,1,180,right,s,,,,,578.6328,578.9035,35.84,0.799987793,-0.399993896,1,0,0,0.2706,fixationPoint,578.9037,578.9979,578.998,579.731,35.84,10240,616.96,a,0,0.7058,,579.7311,583.7288,,,,,,,,8,123,215,-22,25,-25,160,-75,123,-123,-24,-128,-222,-174,-163,124,-116,19,-116,80,-73,76,176,166,212,360,180,180,90,270,360,360,180,90,270,90,,,,,,,,,,,583.7288,583.7504,,0,112,112,112,1,13,novel,,,,,,,,,,,,,,,,,,,,,,,,,,,,,,,,,,,,,,,,,,,,,,,,,
,,20,3,${e://Field/PROLIFIC_PID,M,20,2023-11-03_20h28.15.497,MouseEye_CC,2023.2.2,Win32,60.26637739,1.28,,,1536,864,61.891,4.42,"19.16, 25.42, 18.82, 15.68, 17.59, 18.75, 28.15",759.86,10.80311423,47.74976492,27.83653633,Failed,159.9617125,,,,,,,,,,,,,,,,,,,,,training,8,2,0,left,a,,,,,583.751,584.0949,35.84,0.799987793,-0.399993896,1,0,0,0.3437,fixationPoint,584.095,584.195,584.1951,584.935,35.84,10240,616.96,a,1,0.718,,584.9351,585.1281,,,,,,,,93,-128,-222,172,127,112,119,66,22,-25,160,-160,18,-174,73,176,-176,77,-220,28,-75,-212,-80,-214,-124,360,180,360,270,180,360,180,270,270,360,90,,,,,,,,,,,585.1283,585.1286,,0,113,113,113,1,5,repeated,,,,,,,,,,,,,,,,,,,,,,,,,,,,,,,,,,,,,,,,,,,,,,,,,
,,20,3,${e://Field/PROLIFIC_PID,M,20,2023-11-03_20h28.15.497,MouseEye_CC,2023.2.2,Win32,60.26637739,1.28,,,1536,864,61.891,4.42,"19.16, 25.42, 18.82, 15.68, 17.59, 18.75, 28.15",759.86,10.80311423,47.74976492,27.83653633,Failed,159.9617125,,,,,,,,,,,,,,,,,,,,,training,8,3,180,right,s,,,,,585.1305,585.1612,35.84,0.799987793,-0.399993896,1,0,0,0.0304,fixationPoint,585.1612,585.2498,585.2499,587.483,35.84,10240,616.96,s,1,2.1991,,587.4831,587.6769,,,,,,,,89,176,-176,31,22,166,212,20,75,-78,29,-163,209,-124,175,-66,-77,-123,-24,-167,-128,71,-22,123,-64,180,360,270,180,90,360,180,90,270,270,90,,,,,,,,,,,587.677,587.6775,,0,114,114,114,1,12,novel,,,,,,,,,,,,,,,,,,,,,,,,,,,,,,,,,,,,,,,,,,,,,,,,,
,,20,3,${e://Field/PROLIFIC_PID,M,20,2023-11-03_20h28.15.497,MouseEye_CC,2023.2.2,Win32,60.26637739,1.28,,,1536,864,61.891,4.42,"19.16, 25.42, 18.82, 15.68, 17.59, 18.75, 28.15",759.86,10.80311423,47.74976492,27.83653633,Failed,159.9617125,,,,,,,,,,,,,,,,,,,,,training,8,4,0,left,a,,,,,587.6786,587.6995,35.84,0.799987793,-0.399993896,1,0,0,0.0208,fixationPoint,587.6996,587.7936,587.7938,589.6092,35.84,10240,616.96,a,1,1.7845,,589.6094,589.8142,,,,,,,,29,172,127,-65,80,-78,29,-161,170,-220,-16,-69,-32,-116,-123,176,-176,116,-19,28,-220,169,164,28,115,180,360,270,270,90,180,180,270,180,180,360,,,,,,,,,,,589.8143,589.8145,,0,115,115,115,1,2,repeated,,,,,,,,,,,,,,,,,,,,,,,,,,,,,,,,,,,,,,,,,,,,,,,,,
,,20,3,${e://Field/PROLIFIC_PID,M,20,2023-11-03_20h28.15.497,MouseEye_CC,2023.2.2,Win32,60.26637739,1.28,,,1536,864,61.891,4.42,"19.16, 25.42, 18.82, 15.68, 17.59, 18.75, 28.15",759.86,10.80311423,47.74976492,27.83653633,Failed,159.9617125,,,,,,,,,,,,,,,,,,,,,training,8,5,0,left,a,,,,,589.8149,589.8591,35.84,0.799987793,-0.399993896,1,0,0,0.0438,fixationPoint,589.8593,589.9475,589.9475,593.6236,35.84,10240,616.96,a,1,3.6529,,593.6237,593.826,,,,,,,,6,23,208,-160,18,-124,175,-171,126,-24,-174,-66,-77,-72,-165,123,-64,120,-165,219,-32,223,212,213,169,270,180,180,270,270,360,360,270,180,90,360,,,,,,,,,,,593.8261,593.8264,,0,116,116,116,1,1,repeated,,,,,,,,,,,,,,,,,,,,,,,,,,,,,,,,,,,,,,,,,,,,,,,,,
