InstrStartPage.started,InstrStartPage.stopped,participant,designid,prolificid,Gender,Age,date,expName,psychopyVersion,OS,frameRate,ratio_monitor2CRT,VirtualChinrest.started,VirtualChinrest.stopped,xRes,yRes,viewingdistance_cm,pixeldensity_px2mm,BallPos,squarePos,mm2degree,px2degree,CRT_px2degree,PassVirtualChinrest,foveaRadius_inPixel,InstrRedo.started,InstrRedo.stopped,VirtualChinrest_Redo.started,VirtualChinrest_Redo.stopped,Redo_virtualChinrest,Instruction1.started,Instruction1.stopped,keyPractice.started,keyPractice.stopped,key_keyprac.keys,key_keyprac.corr,key_keyprac.rt,key_keyprac.duration,keyPracFeedback.started,keyPracFeedback.stopped,keyPracLoop.thisRepN,keyPracLoop.thisTrialN,keyPracLoop.thisN,keyPracLoop.thisIndex,keyPracLoop.ran,phase,block,trial,targOrientdeg,targOrient,corrAnswer,Instruction2.started,Instruction2.stopped,Instruction3.started,Instruction3.stopped,fixation.started,fixation.stopped,fixationSize,mouseintial.x,mouseintial.y,mouseintial.leftButton,mouseintial.midButton,mouseintial.rightButton,mouseintial.time,mouseintial.clicked_name,greenFixation.started,greenFixation.stopped,trial.started,trial.stopped,letterSize,apertureSize,searchsize,key_respMain.keys,key_respMain.corr,key_respMain.rt,key_respMain.duration,trialFeedback.started,trialFeedback.stopped,trialsPractice.thisRepN,trialsPractice.thisTrialN,trialsPractice.thisN,trialsPractice.thisIndex,trialsPractice.ran,targetQuad,Tcondition,targcell,tlocx,tlocy,d1x,d1y,d2x,d2y,d3x,d3y,d4x,d4y,d5x,d5y,d6x,d6y,d7x,d7y,d8x,d8y,d9x,d9y,d10x,d10y,d11x,d11y,d1Orient,d2Orient,d3Orient,d4Orient,d5Orient,d6Orient,d7Orient,d8Orient,d9Orient,d10Orient,d11Orient,CheckInstr.started,CheckInstr.stopped,key_checkInstr.keys,key_checkInstr.corr,key_checkInstr.rt,key_checkInstr.duration,CheckInstr_FB.started,CheckInstr_FB.stopped,Instruction_MainExp.started,Instruction_MainExp.stopped,TakeABreak.started,TakeABreak.stopped,key_respBreak.keys,trials.thisRepN,trials.thisTrialN,trials.thisN,trials.thisIndex,trials.ran,configurationNumber,CCCondition,key_respBreak.rt,key_respBreak.duration,displayTestingPhase.started,displayTestingPhase.stopped,key_respTesting.keys,key_respTesting.corr,key_respTesting.rt,key_respTesting.duration,TakeABreak2.started,TakeABreak2.stopped,key_RespBreak.keys,Testingtrials.thisRepN,Testingtrials.thisTrialN,Testingtrials.thisN,Testingtrials.thisIndex,Testingtrials.ran,key_RespBreak.rt,key_RespBreak.duration,RecogQuestion.started,RecogQuestion.stopped,key_AnswerQues.keys,key_AnswerQues.rt,key_AnswerQues.duration,Disclose.started,Disclose.stopped,InstrRT.started,InstrRT.stopped,fixation_RT.started,fixation_RT.stopped,mouseInitial.x,mouseInitial.y,mouseInitial.leftButton,mouseInitial.midButton,mouseInitial.rightButton,mouseInitial.time,mouseInitial.clicked_name,displayRT.started,displayRT.stopped,key_respRT.keys,key_respRT.corr,key_respRT.rt,key_respRT.duration,RTtrials.thisRepN,RTtrials.thisTrialN,RTtrials.thisN,RTtrials.thisIndex,RTtrials.ran,EndOfExperiment.started,EndOfExperiment.stopped
0.0009,11.5619,21,6,${e://Field/PROLIFIC_PID,F,18,2023-11-03_16h41.18.213,MouseEye_CC,2023.2.2,Win32,60.0024001,1,,,,,,,,,,,,,,,,,,,,,,,,,,,,,,,,,,,,,,,,,,,,,,,,,,,,,,,,,,,,,,,,,,,,,,,,,,,,,,,,,,,,,,,,,,,,,,,,,,,,,,,,,,,,,,,,,,,,,,,,,,,,,,,,,,,,,,,,,,,,,,,,,,,,,,,,,,,,,,,,,,,,,,,,,,,,,,,,,,
,,21,6,${e://Field/PROLIFIC_PID,F,18,2023-11-03_16h41.18.213,MouseEye_CC,2023.2.2,Win32,60.0024001,1.962552097,11.5621,168.7561,1920,1080,61.976,5.05,"95.74, 112.33, 113.19, 121.28, 124.09, 139.19, 140.44",873.41,10.81795104,54.63065275,27.83653633,Failed,183.0126867,,,,,,,,,,,,,,,,,,,,,,,,,,,,,,,,,,,,,,,,,,,,,,,,,,,,,,,,,,,,,,,,,,,,,,,,,,,,,,,,,,,,,,,,,,,,,,,,,,,,,,,,,,,,,,,,,,,,,,,,,,,,,,,,,,,,,,,,,,,,,,,,,,,,,,,,,,,,,,,,,,,,,
,,21,6,${e://Field/PROLIFIC_PID,F,18,2023-11-03_16h41.18.213,MouseEye_CC,2023.2.2,Win32,60.0024001,1.962552097,,,1920,1080,61.976,5.05,"95.74, 112.33, 113.19, 121.28, 124.09, 139.19, 140.44",873.41,10.81795104,54.63065275,27.83653633,Failed,183.0126867,168.7565,180.3529,,,,,,,,,,,,,,,,,,,,,,,,,,,,,,,,,,,,,,,,,,,,,,,,,,,,,,,,,,,,,,,,,,,,,,,,,,,,,,,,,,,,,,,,,,,,,,,,,,,,,,,,,,,,,,,,,,,,,,,,,,,,,,,,,,,,,,,,,,,,,,,,,,,,,,,,,,,,,,,,,,,
,,21,6,${e://Field/PROLIFIC_PID,F,18,2023-11-03_16h41.18.213,MouseEye_CC,2023.2.2,Win32,60.0024001,1.28,,,1920,1080,48.708999999999996,4.84,"95.74, 112.33, 113.19, 121.28, 124.09, 139.19, 140.44",873.41,8.502187576,41.15058787,27.83653633,Failed,137.8544694,,,180.3531,236.5967,failed,,,,,,,,,,,,,,,,,,,,,,,,,,,,,,,,,,,,,,,,,,,,,,,,,,,,,,,,,,,,,,,,,,,,,,,,,,,,,,,,,,,,,,,,,,,,,,,,,,,,,,,,,,,,,,,,,,,,,,,,,,,,,,,,,,,,,,,,,,,,,,,,,,,,,,,,,,,,,,,,
,,21,6,${e://Field/PROLIFIC_PID,F,18,2023-11-03_16h41.18.213,MouseEye_CC,2023.2.2,Win32,60.0024001,1.28,,,1920,1080,48.708999999999996,4.84,"95.74, 112.33, 113.19, 121.28, 124.09, 139.19, 140.44",873.41,8.502187576,41.15058787,27.83653633,Failed,137.8544694,,,,,,236.597,250.5944,,,,,,,,,,,,,,,,,,,,,,,,,,,,,,,,,,,,,,,,,,,,,,,,,,,,,,,,,,,,,,,,,,,,,,,,,,,,,,,,,,,,,,,,,,,,,,,,,,,,,,,,,,,,,,,,,,,,,,,,,,,,,,,,,,,,,,,,,,,,,,,,,,,,,,,,,,,,,,
,,21,6,${e://Field/PROLIFIC_PID,F,18,2023-11-03_16h41.18.213,MouseEye_CC,2023.2.2,Win32,60.0024001,1.28,,,1920,1080,48.708999999999996,4.84,"95.74, 112.33, 113.19, 121.28, 124.09, 139.19, 140.44",873.41,8.502187576,41.15058787,27.83653633,Failed,137.8544694,,,,,,,,250.6192,251.72,a,1,0.5671,,251.7201,252.2104,0,0,0,0,1,practice,1,1,0,left,a,,,,,,,,,,,,,,,,,,,,,,,,,,,,,,,,,,,,,,,,,,,,,,,,,,,,,,,,,,,,,,,,,,,,,,,,,,,,,,,,,,,,,,,,,,,,,,,,,,,,,,,,,,,,,,,,,,,,,,,,,,,,,,,,,,,,,,,,,,,
,,21,6,${e://Field/PROLIFIC_PID,F,18,2023-11-03_16h41.18.213,MouseEye_CC,2023.2.2,Win32,60.0024001,1.28,,,1920,1080,48.708999999999996,4.84,"95.74, 112.33, 113.19, 121.28, 124.09, 139.19, 140.44",873.41,8.502187576,41.15058787,27.83653633,Failed,137.8544694,,,,,,,,252.211,253.2364,a,1,0.5007,,253.2364,253.7261,0,1,1,1,1,practice,1,2,0,left,a,,,,,,,,,,,,,,,,,,,,,,,,,,,,,,,,,,,,,,,,,,,,,,,,,,,,,,,,,,,,,,,,,,,,,,,,,,,,,,,,,,,,,,,,,,,,,,,,,,,,,,,,,,,,,,,,,,,,,,,,,,,,,,,,,,,,,,,,,,,
,,21,6,${e://Field/PROLIFIC_PID,F,18,2023-11-03_16h41.18.213,MouseEye_CC,2023.2.2,Win32,60.0024001,1.28,,,1920,1080,48.708999999999996,4.84,"95.74, 112.33, 113.19, 121.28, 124.09, 139.19, 140.44",873.41,8.502187576,41.15058787,27.83653633,Failed,137.8544694,,,,,,,,253.7265,254.7194,a,1,0.4673,,254.7194,255.2099,0,2,2,2,1,practice,1,3,0,left,a,,,,,,,,,,,,,,,,,,,,,,,,,,,,,,,,,,,,,,,,,,,,,,,,,,,,,,,,,,,,,,,,,,,,,,,,,,,,,,,,,,,,,,,,,,,,,,,,,,,,,,,,,,,,,,,,,,,,,,,,,,,,,,,,,,,,,,,,,,,
,,21,6,${e://Field/PROLIFIC_PID,F,18,2023-11-03_16h41.18.213,MouseEye_CC,2023.2.2,Win32,60.0024001,1.28,,,1920,1080,48.708999999999996,4.84,"95.74, 112.33, 113.19, 121.28, 124.09, 139.19, 140.44",873.41,8.502187576,41.15058787,27.83653633,Failed,137.8544694,,,,,,,,255.2103,256.1023,s,1,0.3669,,256.1023,256.594,0,3,3,3,1,practice,1,4,180,right,s,,,,,,,,,,,,,,,,,,,,,,,,,,,,,,,,,,,,,,,,,,,,,,,,,,,,,,,,,,,,,,,,,,,,,,,,,,,,,,,,,,,,,,,,,,,,,,,,,,,,,,,,,,,,,,,,,,,,,,,,,,,,,,,,,,,,,,,,,,,
,,21,6,${e://Field/PROLIFIC_PID,F,18,2023-11-03_16h41.18.213,MouseEye_CC,2023.2.2,Win32,60.0024001,1.28,,,1920,1080,48.708999999999996,4.84,"95.74, 112.33, 113.19, 121.28, 124.09, 139.19, 140.44",873.41,8.502187576,41.15058787,27.83653633,Failed,137.8544694,,,,,,,,256.5943,257.5437,s,1,0.404,,257.5437,258.0523,0,4,4,4,1,practice,1,5,180,right,s,,,,,,,,,,,,,,,,,,,,,,,,,,,,,,,,,,,,,,,,,,,,,,,,,,,,,,,,,,,,,,,,,,,,,,,,,,,,,,,,,,,,,,,,,,,,,,,,,,,,,,,,,,,,,,,,,,,,,,,,,,,,,,,,,,,,,,,,,,,
,,21,6,${e://Field/PROLIFIC_PID,F,18,2023-11-03_16h41.18.213,MouseEye_CC,2023.2.2,Win32,60.0024001,1.28,,,1920,1080,48.708999999999996,4.84,"95.74, 112.33, 113.19, 121.28, 124.09, 139.19, 140.44",873.41,8.502187576,41.15058787,27.83653633,Failed,137.8544694,,,,,,,,258.0528,259.0101,a,1,0.4218,,259.0101,259.5103,0,5,5,5,1,practice,1,6,0,left,a,,,,,,,,,,,,,,,,,,,,,,,,,,,,,,,,,,,,,,,,,,,,,,,,,,,,,,,,,,,,,,,,,,,,,,,,,,,,,,,,,,,,,,,,,,,,,,,,,,,,,,,,,,,,,,,,,,,,,,,,,,,,,,,,,,,,,,,,,,,
,,21,6,${e://Field/PROLIFIC_PID,F,18,2023-11-03_16h41.18.213,MouseEye_CC,2023.2.2,Win32,60.0024001,1.28,,,1920,1080,48.708999999999996,4.84,"95.74, 112.33, 113.19, 121.28, 124.09, 139.19, 140.44",873.41,8.502187576,41.15058787,27.83653633,Failed,137.8544694,,,,,,,,,,,,,,,,,,,,,,,,,,,259.5112,266.0439,,,,,,,,,,,,,,,,,,,,,,,,,,,,,,,,,,,,,,,,,,,,,,,,,,,,,,,,,,,,,,,,,,,,,,,,,,,,,,,,,,,,,,,,,,,,,,,,,,,,,,,,,,,,,,,,,,,,,,,,,,,,,,,,,,,,,,,,,
,,21,6,${e://Field/PROLIFIC_PID,F,18,2023-11-03_16h41.18.213,MouseEye_CC,2023.2.2,Win32,60.0024001,1.28,,,1920,1080,48.708999999999996,4.84,"95.74, 112.33, 113.19, 121.28, 124.09, 139.19, 140.44",873.41,8.502187576,41.15058787,27.83653633,Failed,137.8544694,,,,,,,,,,,,,,,,,,,,,,,,,,,,,266.044,272.9443,,,,,,,,,,,,,,,,,,,,,,,,,,,,,,,,,,,,,,,,,,,,,,,,,,,,,,,,,,,,,,,,,,,,,,,,,,,,,,,,,,,,,,,,,,,,,,,,,,,,,,,,,,,,,,,,,,,,,,,,,,,,,,,,,,,,,,,
,,21,6,${e://Field/PROLIFIC_PID,F,18,2023-11-03_16h41.18.213,MouseEye_CC,2023.2.2,Win32,60.0024001,1.28,,,1920,1080,48.708999999999996,4.84,"95.74, 112.33, 113.19, 121.28, 124.09, 139.19, 140.44",873.41,8.502187576,41.15058787,27.83653633,Failed,137.8544694,,,,,,,,,,,,,,,,,,,,,practice,0,1,0,left,a,,,,,272.97,274.5442,35.84,5,-2,1,0,0,1.5739,fixationPoint,274.5444,274.6359,274.6363,276.7369,35.84,10240,616.96,a,1,2.0808,,276.737,276.927,0,0,0,0,1,4,sparse,90,217,-164,68,123,222,26,214,216,-218,159,-120,223,-110,82,-115,-130,-224,-120,-68,-219,79,-175,19,-128,90,270,360,90,270,270,180,90,90,90,270,,,,,,,,,,,,,,,,,,,,,,,,,,,,,,,,,,,,,,,,,,,,,,,,,,,,,,,,,,,,,,,,,,,,,
,,21,6,${e://Field/PROLIFIC_PID,F,18,2023-11-03_16h41.18.213,MouseEye_CC,2023.2.2,Win32,60.0024001,1.28,,,1920,1080,48.708999999999996,4.84,"95.74, 112.33, 113.19, 121.28, 124.09, 139.19, 140.44",873.41,8.502187576,41.15058787,27.83653633,Failed,137.8544694,,,,,,,,,,,,,,,,,,,,,practice,0,2,0,left,a,,,,,276.9277,278.4528,35.84,-5,2,1,0,0,1.525,fixationPoint,278.4528,278.543,278.543,280.8697,35.84,10240,616.96,a,1,2.3006,,280.8698,281.0595,0,1,1,1,1,1,rich,39,169,66,-126,125,-169,169,-130,19,-169,-116,-125,-167,-224,-216,218,-129,171,-218,18,-208,166,26,17,170,180,90,360,270,90,90,90,270,180,180,270,,,,,,,,,,,,,,,,,,,,,,,,,,,,,,,,,,,,,,,,,,,,,,,,,,,,,,,,,,,,,,,,,,,,,
,,21,6,${e://Field/PROLIFIC_PID,F,18,2023-11-03_16h41.18.213,MouseEye_CC,2023.2.2,Win32,60.0024001,1.28,,,1920,1080,48.708999999999996,4.84,"95.74, 112.33, 113.19, 121.28, 124.09, 139.19, 140.44",873.41,8.502187576,41.15058787,27.83653633,Failed,137.8544694,,,,,,,,,,,,,,,,,,,,,practice,0,3,0,left,a,,,,,281.06,281.8935,35.84,-5,2,1,0,0,0.8333,fixationPoint,281.8936,281.986,281.9861,284.7439,35.84,10240,616.96,a,1,2.7406,,284.744,284.9329,0,2,2,2,1,2,sparse,22,-162,126,222,26,17,170,126,172,-25,-117,-175,-206,-224,-216,116,-19,130,-174,217,-164,-218,159,-21,162,90,90,180,360,360,270,360,360,360,360,180,,,,,,,,,,,,,,,,,,,,,,,,,,,,,,,,,,,,,,,,,,,,,,,,,,,,,,,,,,,,,,,,,,,,,
,,21,6,${e://Field/PROLIFIC_PID,F,18,2023-11-03_16h41.18.213,MouseEye_CC,2023.2.2,Win32,60.0024001,1.28,,,1920,1080,48.708999999999996,4.84,"95.74, 112.33, 113.19, 121.28, 124.09, 139.19, 140.44",873.41,8.502187576,41.15058787,27.83653633,Failed,137.8544694,,,,,,,,,,,,,,,,,,,,,practice,0,4,180,right,s,,,,,284.9334,285.6108,35.84,-5,2,1,0,0,0.6772,fixationPoint,285.6109,285.7097,285.7097,288.1196,35.84,10240,616.96,s,1,2.3945,,288.1196,288.3102,0,3,3,3,1,4,sparse,76,19,-128,159,121,214,216,219,165,-218,159,-162,126,-219,119,-169,-116,-111,-31,-175,-206,18,-208,81,-114,90,270,180,180,270,180,360,360,360,270,360,,,,,,,,,,,,,,,,,,,,,,,,,,,,,,,,,,,,,,,,,,,,,,,,,,,,,,,,,,,,,,,,,,,,,
,,21,6,${e://Field/PROLIFIC_PID,F,18,2023-11-03_16h41.18.213,MouseEye_CC,2023.2.2,Win32,60.0024001,1.28,,,1920,1080,48.708999999999996,4.84,"95.74, 112.33, 113.19, 121.28, 124.09, 139.19, 140.44",873.41,8.502187576,41.15058787,27.83653633,Failed,137.8544694,,,,,,,,,,,,,,,,,,,,,practice,0,5,180,right,s,,,,,288.3107,288.9767,35.84,-5,2,1,0,0,0.6657,fixationPoint,288.9767,289.0761,289.0762,290.0443,35.84,10240,616.96,s,1,0.9416,,290.0443,290.2354,0,4,4,4,1,3,sparse,85,-19,-173,219,165,68,123,214,216,-160,68,-64,120,-226,34,162,-21,224,-216,167,-163,-167,-74,-224,-216,360,360,360,90,180,270,90,360,270,270,360,,,,,,,,,,,,,,,,,,,,,,,,,,,,,,,,,,,,,,,,,,,,,,,,,,,,,,,,,,,,,,,,,,,,,
,,21,6,${e://Field/PROLIFIC_PID,F,18,2023-11-03_16h41.18.213,MouseEye_CC,2023.2.2,Win32,60.0024001,1.28,,,1920,1080,48.708999999999996,4.84,"95.74, 112.33, 113.19, 121.28, 124.09, 139.19, 140.44",873.41,8.502187576,41.15058787,27.83653633,Failed,137.8544694,,,,,,,,,,,,,,,,,,,,,practice,0,6,180,right,s,,,,,290.2358,290.7765,35.84,-5,2,1,0,0,0.5403,fixationPoint,290.7765,290.8769,290.8769,294.7767,35.84,10240,616.96,s,1,3.8691,,294.7768,294.9801,0,5,5,5,1,3,sparse,95,-21,-224,126,172,219,165,166,26,-166,207,-223,206,-219,119,169,-75,18,-208,224,-216,-72,-121,-115,-130,180,180,360,180,360,180,270,180,90,180,360,,,,,,,,,,,,,,,,,,,,,,,,,,,,,,,,,,,,,,,,,,,,,,,,,,,,,,,,,,,,,,,,,,,,,
,,21,6,${e://Field/PROLIFIC_PID,F,18,2023-11-03_16h41.18.213,MouseEye_CC,2023.2.2,Win32,60.0024001,1.28,,,1920,1080,48.708999999999996,4.84,"95.74, 112.33, 113.19, 121.28, 124.09, 139.19, 140.44",873.41,8.502187576,41.15058787,27.83653633,Failed,137.8544694,,,,,,,,,,,,,,,,,,,,,practice,0,7,0,left,a,,,,,294.9805,295.5938,35.84,-5,2,1,0,0,0.613,fixationPoint,295.5938,295.6968,295.6969,298.4864,35.84,10240,616.96,a,1,2.7673,,298.4865,298.676,0,6,6,6,1,1,rich,7,62,223,-166,207,-226,34,-162,126,-169,-116,-168,-160,-161,-27,15,-162,162,-21,79,-175,219,165,219,129,180,180,360,180,270,360,180,360,270,180,360,,,,,,,,,,,,,,,,,,,,,,,,,,,,,,,,,,,,,,,,,,,,,,,,,,,,,,,,,,,,,,,,,,,,,
,,21,6,${e://Field/PROLIFIC_PID,F,18,2023-11-03_16h41.18.213,MouseEye_CC,2023.2.2,Win32,60.0024001,1.28,,,1920,1080,48.708999999999996,4.84,"95.74, 112.33, 113.19, 121.28, 124.09, 139.19, 140.44",873.41,8.502187576,41.15058787,27.83653633,Failed,137.8544694,,,,,,,,,,,,,,,,,,,,,practice,0,8,180,right,s,,,,,298.6765,299.1938,35.84,-5,2,1,0,0,0.517,fixationPoint,299.194,299.2929,299.293,300.5763,35.84,10240,616.96,s,1,1.2568,,300.5764,300.7765,0,7,7,7,1,2,sparse,24,-64,120,18,215,126,172,33,121,-206,-170,-64,-162,-218,-78,130,-174,211,-74,168,-130,-164,32,-21,162,90,180,270,360,180,90,180,180,180,360,270,,,,,,,,,,,,,,,,,,,,,,,,,,,,,,,,,,,,,,,,,,,,,,,,,,,,,,,,,,,,,,,,,,,,,
,,21,6,${e://Field/PROLIFIC_PID,F,18,2023-11-03_16h41.18.213,MouseEye_CC,2023.2.2,Win32,60.0024001,1.28,,,1920,1080,48.708999999999996,4.84,"95.74, 112.33, 113.19, 121.28, 124.09, 139.19, 140.44",873.41,8.502187576,41.15058787,27.83653633,Failed,137.8544694,,,,,,,,,,,,,,,,,,,,,practice,0,9,180,right,s,,,,,300.7771,302.2862,35.84,-5,2,1,0,0,1.509,fixationPoint,302.2863,302.3766,302.3766,304.3862,35.84,10240,616.96,s,1,1.9838,,304.3863,304.5762,0,8,8,8,1,3,sparse,85,-19,-173,127,30,62,223,217,67,-110,82,-21,162,-80,218,167,-163,126,-79,130,-174,-125,-167,-68,-219,360,360,360,180,360,360,180,270,90,360,180,,,,,,,,,,,,,,,,,,,,,,,,,,,,,,,,,,,,,,,,,,,,,,,,,,,,,,,,,,,,,,,,,,,,,
,,21,6,${e://Field/PROLIFIC_PID,F,18,2023-11-03_16h41.18.213,MouseEye_CC,2023.2.2,Win32,60.0024001,1.28,,,1920,1080,48.708999999999996,4.84,"95.74, 112.33, 113.19, 121.28, 124.09, 139.19, 140.44",873.41,8.502187576,41.15058787,27.83653633,Failed,137.8544694,,,,,,,,,,,,,,,,,,,,,practice,0,10,180,right,s,,,,,304.5768,305.0697,35.84,-5,2,1,0,0,0.4928,fixationPoint,305.0697,305.1687,305.1688,307.8029,35.84,10240,616.96,s,1,2.6173,,307.803,307.9926,0,9,9,9,1,1,rich,9,160,209,-166,207,-226,34,-120,223,-224,-120,-118,-217,-218,-78,112,-209,126,-113,169,-75,178,160,110,129,180,90,90,270,360,270,360,180,360,180,360,,,,,,,,,,,,,,,,,,,,,,,,,,,,,,,,,,,,,,,,,,,,,,,,,,,,,,,,,,,,,,,,,,,,,
,,21,6,${e://Field/PROLIFIC_PID,F,18,2023-11-03_16h41.18.213,MouseEye_CC,2023.2.2,Win32,60.0024001,1.28,,,1920,1080,48.708999999999996,4.84,"95.74, 112.33, 113.19, 121.28, 124.09, 139.19, 140.44",873.41,8.502187576,41.15058787,27.83653633,Failed,137.8544694,,,,,,,,,,,,,,,,,,,,,practice,0,11,180,right,s,,,,,307.9931,308.443,35.84,-5,2,1,0,0,0.4497,fixationPoint,308.4431,308.5516,308.5516,312.1862,35.84,10240,616.96,s,1,3.6173,,312.1862,312.3764,0,10,10,10,1,4,sparse,80,218,-129,62,223,159,121,110,129,-218,159,-223,206,-75,173,-169,-116,-118,-217,-125,-167,217,-164,169,-75,360,270,360,180,360,180,180,270,360,180,90,,,,,,,,,,,,,,,,,,,,,,,,,,,,,,,,,,,,,,,,,,,,,,,,,,,,,,,,,,,,,,,,,,,,,
,,21,6,${e://Field/PROLIFIC_PID,F,18,2023-11-03_16h41.18.213,MouseEye_CC,2023.2.2,Win32,60.0024001,1.28,,,1920,1080,48.708999999999996,4.84,"95.74, 112.33, 113.19, 121.28, 124.09, 139.19, 140.44",873.41,8.502187576,41.15058787,27.83653633,Failed,137.8544694,,,,,,,,,,,,,,,,,,,,,practice,0,12,0,left,a,,,,,312.3769,314.7474,35.84,-5,2,1,0,0,2.3704,fixationPoint,314.7474,314.8433,314.8433,319.0268,35.84,10240,616.96,a,1,4.1496,,319.0269,319.226,0,11,11,11,1,3,sparse,75,-25,-117,110,129,125,63,214,216,-164,32,-27,117,-126,125,171,-218,126,-113,167,-163,-21,-224,-212,-21,270,180,180,360,180,270,360,270,360,180,270,,,,,,,,,,,,,,,,,,,,,,,,,,,,,,,,,,,,,,,,,,,,,,,,,,,,,,,,,,,,,,,,,,,,,
,,21,6,${e://Field/PROLIFIC_PID,F,18,2023-11-03_16h41.18.213,MouseEye_CC,2023.2.2,Win32,60.0024001,1.28,,,1920,1080,48.708999999999996,4.84,"95.74, 112.33, 113.19, 121.28, 124.09, 139.19, 140.44",873.41,8.502187576,41.15058787,27.83653633,Failed,137.8544694,,,,,,,,,,,,,,,,,,,,,,,,,,,,,,,,,,,,,,,,,,,,,,,,,,,,,,,,,,,,,,,,,,,,,,,,,,,,,,,,,,,,,,,,,,,,,,,,,319.2268,323.7526,a,1,4.51,,,,,,,,,,,,,,,,,,,,,,,,,,,,,,,,,,,,,,,,,,,,,,,,,,,,,,,,,,,,,,,,
,,21,6,${e://Field/PROLIFIC_PID,F,18,2023-11-03_16h41.18.213,MouseEye_CC,2023.2.2,Win32,60.0024001,1.28,,,1920,1080,48.708999999999996,4.84,"95.74, 112.33, 113.19, 121.28, 124.09, 139.19, 140.44",873.41,8.502187576,41.15058787,27.83653633,Failed,137.8544694,,,,,,,,,,,,,,,,,,,,,,,,,,,,,,,,,,,,,,,,,,,,,,,,,,,,,,,,,,,,,,,,,,,,,,,,,,,,,,,,,,,,,,,,,,,,,,,,,,,,,,,323.7529,326.0431,,,,,,,,,,,,,,,,,,,,,,,,,,,,,,,,,,,,,,,,,,,,,,,,,,,,,,,,,,,,,
,,21,6,${e://Field/PROLIFIC_PID,F,18,2023-11-03_16h41.18.213,MouseEye_CC,2023.2.2,Win32,60.0024001,1.28,,,1920,1080,48.708999999999996,4.84,"95.74, 112.33, 113.19, 121.28, 124.09, 139.19, 140.44",873.41,8.502187576,41.15058787,27.83653633,Failed,137.8544694,,,,,,,,,,,,,,,,,,,,,,,,,,,,,,,,,,,,,,,,,,,,,,,,,,,,,,,,,,,,,,,,,,,,,,,,,,,,,,,,,,,,,,,,,,,,,,,,,,,,,,,,,326.0433,340.1933,,,,,,,,,,,,,,,,,,,,,,,,,,,,,,,,,,,,,,,,,,,,,,,,,,,,,,,,,,,
,,21,6,${e://Field/PROLIFIC_PID,F,18,2023-11-03_16h41.18.213,MouseEye_CC,2023.2.2,Win32,60.0024001,1.28,,,1920,1080,48.708999999999996,4.84,"95.74, 112.33, 113.19, 121.28, 124.09, 139.19, 140.44",873.41,8.502187576,41.15058787,27.83653633,Failed,137.8544694,,,,,,,,,,,,,,,,,,,,,training,1,1,0,left,a,,,,,340.3072,342.402,35.84,2,-7,1,0,0,2.0947,fixationPoint,342.4021,342.493,342.4931,344.376,35.84,10240,616.96,a,1,1.8551,,344.3761,344.5685,,,,,,,,14,-66,174,27,172,211,215,160,172,-20,-20,-220,-20,-79,-79,208,-220,80,-26,28,-78,-124,122,-120,77,360,180,180,180,180,270,360,360,270,270,270,,,,,,,,,,,344.5691,344.5722,,0,0,0,0,1,3,repeated,,,,,,,,,,,,,,,,,,,,,,,,,,,,,,,,,,,,,,,,,,,,,,,,,
,,21,6,${e://Field/PROLIFIC_PID,F,18,2023-11-03_16h41.18.213,MouseEye_CC,2023.2.2,Win32,60.0024001,1.28,,,1920,1080,48.708999999999996,4.84,"95.74, 112.33, 113.19, 121.28, 124.09, 139.19, 140.44",873.41,8.502187576,41.15058787,27.83653633,Failed,137.8544694,,,,,,,,,,,,,,,,,,,,,training,1,2,180,right,s,,,,,344.5726,345.0429,35.84,2,-7,1,0,0,0.4702,fixationPoint,345.043,345.1424,345.1425,347.81,35.84,10240,616.96,s,1,2.6362,,347.8101,348.0099,,,,,,,,97,71,-212,211,215,124,170,32,24,-28,20,-122,219,-223,20,-75,-165,-220,-128,-220,-20,173,-170,112,-125,360,180,360,360,270,360,180,90,270,360,270,,,,,,,,,,,348.01,348.0103,,0,1,1,1,1,8,repeated,,,,,,,,,,,,,,,,,,,,,,,,,,,,,,,,,,,,,,,,,,,,,,,,,
,,21,6,${e://Field/PROLIFIC_PID,F,18,2023-11-03_16h41.18.213,MouseEye_CC,2023.2.2,Win32,60.0024001,1.28,,,1920,1080,48.708999999999996,4.84,"95.74, 112.33, 113.19, 121.28, 124.09, 139.19, 140.44",873.41,8.502187576,41.15058787,27.83653633,Failed,137.8544694,,,,,,,,,,,,,,,,,,,,,training,1,3,180,right,s,,,,,348.0106,348.3928,35.84,2,-7,1,0,0,0.382,fixationPoint,348.3928,348.4933,348.4933,351.1942,35.84,10240,616.96,s,1,2.6731,,351.1944,351.3928,,,,,,,,7,66,211,-122,219,-66,174,-223,20,-164,-114,-220,-128,-79,-79,220,-120,213,-79,208,-28,72,169,76,32,180,360,360,180,270,360,90,360,360,180,90,,,,,,,,,,,351.3928,351.393,,0,2,2,2,1,13,novel,,,,,,,,,,,,,,,,,,,,,,,,,,,,,,,,,,,,,,,,,,,,,,,,,
,,21,6,${e://Field/PROLIFIC_PID,F,18,2023-11-03_16h41.18.213,MouseEye_CC,2023.2.2,Win32,60.0024001,1.28,,,1920,1080,48.708999999999996,4.84,"95.74, 112.33, 113.19, 121.28, 124.09, 139.19, 140.44",873.41,8.502187576,41.15058787,27.83653633,Failed,137.8544694,,,,,,,,,,,,,,,,,,,,,training,1,4,0,left,a,,,,,351.3934,351.6765,35.84,2,-7,1,0,0,0.2829,fixationPoint,351.6765,351.7757,351.7759,353.5262,35.84,10240,616.96,a,1,1.7332,,353.5263,353.7257,,,,,,,,49,163,22,-127,21,-28,20,-32,72,-162,-215,-17,-216,-17,-70,80,-114,19,-169,221,-172,124,170,210,120,90,360,90,270,360,90,180,180,90,90,360,,,,,,,,,,,353.7258,353.7261,,0,3,3,3,1,1,repeated,,,,,,,,,,,,,,,,,,,,,,,,,,,,,,,,,,,,,,,,,,,,,,,,,
,,21,6,${e://Field/PROLIFIC_PID,F,18,2023-11-03_16h41.18.213,MouseEye_CC,2023.2.2,Win32,60.0024001,1.28,,,1920,1080,48.708999999999996,4.84,"95.74, 112.33, 113.19, 121.28, 124.09, 139.19, 140.44",873.41,8.502187576,41.15058787,27.83653633,Failed,137.8544694,,,,,,,,,,,,,,,,,,,,,training,1,5,0,left,a,,,,,353.7266,354.1264,35.84,2,-7,1,0,0,0.3998,fixationPoint,354.1265,354.2264,354.2264,356.0433,35.84,10240,616.96,a,1,1.7904,,356.0434,356.2427,,,,,,,,84,-75,-165,221,26,160,172,73,126,-124,122,-222,168,-28,20,116,-161,24,-19,220,-120,-20,-20,-74,-124,360,360,360,180,360,90,90,360,90,180,180,,,,,,,,,,,356.2428,356.243,,0,4,4,4,1,10,novel,,,,,,,,,,,,,,,,,,,,,,,,,,,,,,,,,,,,,,,,,,,,,,,,,
,,21,6,${e://Field/PROLIFIC_PID,F,18,2023-11-03_16h41.18.213,MouseEye_CC,2023.2.2,Win32,60.0024001,1.28,,,1920,1080,48.708999999999996,4.84,"95.74, 112.33, 113.19, 121.28, 124.09, 139.19, 140.44",873.41,8.502187576,41.15058787,27.83653633,Failed,137.8544694,,,,,,,,,,,,,,,,,,,,,training,1,6,180,right,s,,,,,356.2435,356.5761,35.84,2,-7,1,0,0,0.3325,fixationPoint,356.5762,356.6763,356.6764,358.6429,35.84,10240,616.96,s,1,1.9347,,358.643,358.8431,,,,,,,,4,-68,208,120,20,119,75,211,215,-120,-32,-17,-216,-168,-29,24,-19,112,-125,120,-221,-166,31,-169,216,270,360,180,180,90,360,180,270,90,360,180,,,,,,,,,,,358.8431,358.8434,,0,5,5,5,1,16,novel,,,,,,,,,,,,,,,,,,,,,,,,,,,,,,,,,,,,,,,,,,,,,,,,,
,,21,6,${e://Field/PROLIFIC_PID,F,18,2023-11-03_16h41.18.213,MouseEye_CC,2023.2.2,Win32,60.0024001,1.28,,,1920,1080,48.708999999999996,4.84,"95.74, 112.33, 113.19, 121.28, 124.09, 139.19, 140.44",873.41,8.502187576,41.15058787,27.83653633,Failed,137.8544694,,,,,,,,,,,,,,,,,,,,,training,1,7,0,left,a,,,,,358.8438,359.1598,35.84,2,-7,1,0,0,0.3157,fixationPoint,359.1599,359.2591,359.2591,361.1265,35.84,10240,616.96,a,1,1.839,,361.1266,361.3262,,,,,,,,29,170,112,-28,20,-223,20,-219,220,-17,-216,-168,-29,-20,-20,71,-212,208,-220,19,-169,221,26,18,215,270,180,270,90,270,180,270,270,270,180,180,,,,,,,,,,,361.3263,361.3266,,0,6,6,6,1,14,novel,,,,,,,,,,,,,,,,,,,,,,,,,,,,,,,,,,,,,,,,,,,,,,,,,
,,21,6,${e://Field/PROLIFIC_PID,F,18,2023-11-03_16h41.18.213,MouseEye_CC,2023.2.2,Win32,60.0024001,1.28,,,1920,1080,48.708999999999996,4.84,"95.74, 112.33, 113.19, 121.28, 124.09, 139.19, 140.44",873.41,8.502187576,41.15058787,27.83653633,Failed,137.8544694,,,,,,,,,,,,,,,,,,,,,training,1,8,0,left,a,,,,,361.327,361.66,35.84,2,-7,1,0,0,0.3329,fixationPoint,361.6601,361.76,361.76,362.593,35.84,10240,616.96,a,1,0.8045,,362.5931,362.7927,,,,,,,,17,72,169,-161,70,-166,31,-223,20,-220,-128,-17,-70,-70,-221,24,-19,80,-26,163,-68,211,215,221,26,180,90,180,90,360,270,270,270,90,180,360,,,,,,,,,,,362.7927,362.793,,0,7,7,7,1,2,repeated,,,,,,,,,,,,,,,,,,,,,,,,,,,,,,,,,,,,,,,,,,,,,,,,,
,,21,6,${e://Field/PROLIFIC_PID,F,18,2023-11-03_16h41.18.213,MouseEye_CC,2023.2.2,Win32,60.0024001,1.28,,,1920,1080,48.708999999999996,4.84,"95.74, 112.33, 113.19, 121.28, 124.09, 139.19, 140.44",873.41,8.502187576,41.15058787,27.83653633,Failed,137.8544694,,,,,,,,,,,,,,,,,,,,,training,1,9,180,right,s,,,,,362.7934,363.2765,35.84,2,-7,1,0,0,0.4828,fixationPoint,363.2766,363.3838,363.384,365.0858,35.84,10240,616.96,s,1,1.6838,,365.0859,365.2759,,,,,,,,94,-70,-221,213,173,27,172,120,20,-122,219,-174,162,-73,124,173,-170,80,-26,213,-79,-74,-124,-116,-219,270,180,360,270,270,270,270,90,180,270,90,,,,,,,,,,,365.276,365.2762,,0,8,8,8,1,5,repeated,,,,,,,,,,,,,,,,,,,,,,,,,,,,,,,,,,,,,,,,,,,,,,,,,
,,21,6,${e://Field/PROLIFIC_PID,F,18,2023-11-03_16h41.18.213,MouseEye_CC,2023.2.2,Win32,60.0024001,1.28,,,1920,1080,48.708999999999996,4.84,"95.74, 112.33, 113.19, 121.28, 124.09, 139.19, 140.44",873.41,8.502187576,41.15058787,27.83653633,Failed,137.8544694,,,,,,,,,,,,,,,,,,,,,training,1,10,180,right,s,,,,,365.2767,365.6599,35.84,2,-7,1,0,0,0.383,fixationPoint,365.6599,365.759,365.759,367.0194,35.84,10240,616.96,s,1,1.2343,,367.0194,367.209,,,,,,,,72,-164,-114,72,169,211,215,172,64,-20,220,-223,20,-66,174,32,-113,27,-211,174,-16,-20,-20,-220,-80,270,180,270,180,180,180,360,180,270,360,360,,,,,,,,,,,367.209,367.2092,,0,9,9,9,1,6,repeated,,,,,,,,,,,,,,,,,,,,,,,,,,,,,,,,,,,,,,,,,,,,,,,,,
,,21,6,${e://Field/PROLIFIC_PID,F,18,2023-11-03_16h41.18.213,MouseEye_CC,2023.2.2,Win32,60.0024001,1.28,,,1920,1080,48.708999999999996,4.84,"95.74, 112.33, 113.19, 121.28, 124.09, 139.19, 140.44",873.41,8.502187576,41.15058787,27.83653633,Failed,137.8544694,,,,,,,,,,,,,,,,,,,,,training,1,11,180,right,s,,,,,367.2097,367.5262,35.84,2,-7,1,0,0,0.3162,fixationPoint,367.5262,367.6264,367.6266,368.9259,35.84,10240,616.96,s,1,1.2714,,368.926,369.1351,,,,,,,,87,75,-164,120,20,73,126,172,64,-213,64,-26,123,-162,114,-216,-224,-74,-124,-168,-29,28,-78,80,-26,180,180,90,90,360,180,90,90,360,90,360,,,,,,,,,,,369.1351,369.1354,,0,10,10,10,1,11,novel,,,,,,,,,,,,,,,,,,,,,,,,,,,,,,,,,,,,,,,,,,,,,,,,,
,,21,6,${e://Field/PROLIFIC_PID,F,18,2023-11-03_16h41.18.213,MouseEye_CC,2023.2.2,Win32,60.0024001,1.28,,,1920,1080,48.708999999999996,4.84,"95.74, 112.33, 113.19, 121.28, 124.09, 139.19, 140.44",873.41,8.502187576,41.15058787,27.83653633,Failed,137.8544694,,,,,,,,,,,,,,,,,,,,,training,1,12,180,right,s,,,,,369.1359,369.2929,35.84,2,-7,1,0,0,0.1569,fixationPoint,369.2931,369.3928,369.3929,372.7099,35.84,10240,616.96,s,1,3.2852,,372.71,372.909,,,,,,,,22,-162,114,119,75,211,215,18,215,-220,-80,-220,-20,-20,-20,112,-125,80,-114,163,-68,-20,220,-73,124,90,180,270,270,90,270,90,180,360,180,270,,,,,,,,,,,372.909,372.9094,,0,11,11,11,1,15,novel,,,,,,,,,,,,,,,,,,,,,,,,,,,,,,,,,,,,,,,,,,,,,,,,,
,,21,6,${e://Field/PROLIFIC_PID,F,18,2023-11-03_16h41.18.213,MouseEye_CC,2023.2.2,Win32,60.0024001,1.28,,,1920,1080,48.708999999999996,4.84,"95.74, 112.33, 113.19, 121.28, 124.09, 139.19, 140.44",873.41,8.502187576,41.15058787,27.83653633,Failed,137.8544694,,,,,,,,,,,,,,,,,,,,,training,1,13,180,right,s,,,,,372.9098,373.226,35.84,2,-7,1,0,0,0.3161,fixationPoint,373.226,373.3257,373.3259,375.2757,35.84,10240,616.96,s,1,1.9337,,375.2758,375.4763,,,,,,,,79,164,-113,21,65,210,120,73,126,-76,73,-161,70,-124,122,-166,-76,-124,-172,-119,-79,112,-70,175,-224,270,360,360,180,360,270,270,270,90,270,90,,,,,,,,,,,375.4765,375.4766,,0,12,12,12,1,7,repeated,,,,,,,,,,,,,,,,,,,,,,,,,,,,,,,,,,,,,,,,,,,,,,,,,
,,21,6,${e://Field/PROLIFIC_PID,F,18,2023-11-03_16h41.18.213,MouseEye_CC,2023.2.2,Win32,60.0024001,1.28,,,1920,1080,48.708999999999996,4.84,"95.74, 112.33, 113.19, 121.28, 124.09, 139.19, 140.44",873.41,8.502187576,41.15058787,27.83653633,Failed,137.8544694,,,,,,,,,,,,,,,,,,,,,training,1,14,0,left,a,,,,,375.4771,375.8265,35.84,2,-7,1,0,0,0.3493,fixationPoint,375.8266,375.9263,375.9263,378.393,35.84,10240,616.96,a,1,2.4393,,378.393,378.5924,,,,,,,,42,-166,31,163,22,32,24,174,222,-167,-167,-20,-20,-17,-216,115,-17,75,-164,112,-125,-26,123,-76,73,360,270,90,180,270,360,90,360,180,90,90,,,,,,,,,,,378.5925,378.5926,,0,13,13,13,1,4,repeated,,,,,,,,,,,,,,,,,,,,,,,,,,,,,,,,,,,,,,,,,,,,,,,,,
,,21,6,${e://Field/PROLIFIC_PID,F,18,2023-11-03_16h41.18.213,MouseEye_CC,2023.2.2,Win32,60.0024001,1.28,,,1920,1080,48.708999999999996,4.84,"95.74, 112.33, 113.19, 121.28, 124.09, 139.19, 140.44",873.41,8.502187576,41.15058787,27.83653633,Failed,137.8544694,,,,,,,,,,,,,,,,,,,,,training,1,15,0,left,a,,,,,378.5932,379.0093,35.84,2,-7,1,0,0,0.4159,fixationPoint,379.0093,379.1093,379.1094,380.7763,35.84,10240,616.96,a,1,1.6483,,380.7764,380.9845,,,,,,,,59,174,-16,76,32,73,71,221,26,-22,165,-213,64,-169,216,-162,-215,-166,-76,-79,-79,115,-17,32,-113,270,180,360,360,270,90,90,360,90,270,180,,,,,,,,,,,380.9846,380.9847,,0,14,14,14,1,12,novel,,,,,,,,,,,,,,,,,,,,,,,,,,,,,,,,,,,,,,,,,,,,,,,,,
,,21,6,${e://Field/PROLIFIC_PID,F,18,2023-11-03_16h41.18.213,MouseEye_CC,2023.2.2,Win32,60.0024001,1.28,,,1920,1080,48.708999999999996,4.84,"95.74, 112.33, 113.19, 121.28, 124.09, 139.19, 140.44",873.41,8.502187576,41.15058787,27.83653633,Failed,137.8544694,,,,,,,,,,,,,,,,,,,,,training,1,16,0,left,a,,,,,380.9852,381.31,35.84,2,-7,1,0,0,0.3247,fixationPoint,381.31,381.4183,381.4183,382.6594,35.84,10240,616.96,a,1,1.2234,,382.6596,382.8598,,,,,,,,52,-168,-29,73,126,116,209,170,112,-222,168,-68,208,-223,117,164,-113,116,-161,220,-120,-216,-168,-220,-128,360,270,180,90,360,270,270,90,90,180,360,,,,,,,,,,,382.8599,386.76,space,0,15,15,15,1,9,novel,3.8597,,,,,,,,,,,,,,,,,,,,,,,,,,,,,,,,,,,,,,,,,,,,,,,,
,,21,6,${e://Field/PROLIFIC_PID,F,18,2023-11-03_16h41.18.213,MouseEye_CC,2023.2.2,Win32,60.0024001,1.28,,,1920,1080,48.708999999999996,4.84,"95.74, 112.33, 113.19, 121.28, 124.09, 139.19, 140.44",873.41,8.502187576,41.15058787,27.83653633,Failed,137.8544694,,,,,,,,,,,,,,,,,,,,,training,2,1,0,left,a,,,,,386.7679,387.7192,35.84,2,-7,1,0,0,0.9511,fixationPoint,387.7193,387.8091,387.8091,389.1359,35.84,10240,616.96,a,1,1.3009,,389.1359,389.3257,,,,,,,,17,72,169,-161,70,-166,31,-223,20,-220,-128,-17,-70,-70,-221,24,-19,80,-26,163,-68,211,215,221,26,180,360,90,180,90,270,90,90,180,270,90,,,,,,,,,,,389.3258,389.3282,,0,16,16,16,1,2,repeated,,,,,,,,,,,,,,,,,,,,,,,,,,,,,,,,,,,,,,,,,,,,,,,,,
,,21,6,${e://Field/PROLIFIC_PID,F,18,2023-11-03_16h41.18.213,MouseEye_CC,2023.2.2,Win32,60.0024001,1.28,,,1920,1080,48.708999999999996,4.84,"95.74, 112.33, 113.19, 121.28, 124.09, 139.19, 140.44",873.41,8.502187576,41.15058787,27.83653633,Failed,137.8544694,,,,,,,,,,,,,,,,,,,,,training,2,2,0,left,a,,,,,389.3285,389.6594,35.84,2,-7,1,0,0,0.3307,fixationPoint,389.6594,389.7589,389.7589,390.9927,35.84,10240,616.96,a,1,1.2174,,390.9928,391.1925,,,,,,,,87,75,-164,213,173,119,75,73,71,-222,168,-120,77,-124,122,-79,-79,-116,-219,-220,-128,175,-224,19,-169,90,270,360,360,360,90,270,360,180,360,90,,,,,,,,,,,391.1926,391.1928,,0,17,17,17,1,11,novel,,,,,,,,,,,,,,,,,,,,,,,,,,,,,,,,,,,,,,,,,,,,,,,,,
,,21,6,${e://Field/PROLIFIC_PID,F,18,2023-11-03_16h41.18.213,MouseEye_CC,2023.2.2,Win32,60.0024001,1.28,,,1920,1080,48.708999999999996,4.84,"95.74, 112.33, 113.19, 121.28, 124.09, 139.19, 140.44",873.41,8.502187576,41.15058787,27.83653633,Failed,137.8544694,,,,,,,,,,,,,,,,,,,,,training,2,3,180,right,s,,,,,391.1933,391.4926,35.84,2,-7,1,0,0,0.2992,fixationPoint,391.4927,391.594,391.594,393.7766,35.84,10240,616.96,s,1,2.1631,,393.7766,393.976,,,,,,,,49,163,22,-127,21,-28,20,-32,72,-162,-215,-17,-216,-17,-70,80,-114,19,-169,221,-172,124,170,210,120,180,180,180,90,180,180,90,180,180,180,270,,,,,,,,,,,393.9761,393.9764,,0,18,18,18,1,1,repeated,,,,,,,,,,,,,,,,,,,,,,,,,,,,,,,,,,,,,,,,,,,,,,,,,
,,21,6,${e://Field/PROLIFIC_PID,F,18,2023-11-03_16h41.18.213,MouseEye_CC,2023.2.2,Win32,60.0024001,1.28,,,1920,1080,48.708999999999996,4.84,"95.74, 112.33, 113.19, 121.28, 124.09, 139.19, 140.44",873.41,8.502187576,41.15058787,27.83653633,Failed,137.8544694,,,,,,,,,,,,,,,,,,,,,training,2,4,0,left,a,,,,,393.9767,394.2429,35.84,2,-7,1,0,0,0.266,fixationPoint,394.243,394.3427,394.3427,396.9848,35.84,10240,616.96,a,1,2.6165,,396.9848,397.1766,,,,,,,,79,164,-113,21,65,210,120,73,126,-76,73,-161,70,-124,122,-166,-76,-124,-172,-119,-79,112,-70,175,-224,90,180,270,270,90,90,180,180,360,360,90,,,,,,,,,,,397.1767,397.1769,,0,19,19,19,1,7,repeated,,,,,,,,,,,,,,,,,,,,,,,,,,,,,,,,,,,,,,,,,,,,,,,,,
,,21,6,${e://Field/PROLIFIC_PID,F,18,2023-11-03_16h41.18.213,MouseEye_CC,2023.2.2,Win32,60.0024001,1.28,,,1920,1080,48.708999999999996,4.84,"95.74, 112.33, 113.19, 121.28, 124.09, 139.19, 140.44",873.41,8.502187576,41.15058787,27.83653633,Failed,137.8544694,,,,,,,,,,,,,,,,,,,,,training,2,5,180,right,s,,,,,397.1774,397.5351,35.84,2,-7,1,0,0,0.3576,fixationPoint,397.5351,397.6302,397.6302,400.8191,35.84,10240,616.96,s,1,3.1674,,400.8192,401.013,,,,,,,,52,-168,-29,32,24,73,71,163,22,-124,122,-174,162,-223,20,120,-221,115,-17,213,-79,-75,-165,-162,-215,90,180,90,180,360,360,270,270,90,180,180,,,,,,,,,,,401.0131,401.0133,,0,20,20,20,1,9,novel,,,,,,,,,,,,,,,,,,,,,,,,,,,,,,,,,,,,,,,,,,,,,,,,,
,,21,6,${e://Field/PROLIFIC_PID,F,18,2023-11-03_16h41.18.213,MouseEye_CC,2023.2.2,Win32,60.0024001,1.28,,,1920,1080,48.708999999999996,4.84,"95.74, 112.33, 113.19, 121.28, 124.09, 139.19, 140.44",873.41,8.502187576,41.15058787,27.83653633,Failed,137.8544694,,,,,,,,,,,,,,,,,,,,,training,2,6,180,right,s,,,,,401.0137,401.3091,35.84,2,-7,1,0,0,0.2951,fixationPoint,401.3091,401.4089,401.409,403.4928,35.84,10240,616.96,s,1,2.0568,,403.493,403.6924,,,,,,,,84,-75,-165,170,112,32,120,73,71,-120,77,-32,72,-66,174,163,-68,24,-19,164,-113,-32,-112,-164,-114,90,270,270,360,360,360,180,270,90,90,180,,,,,,,,,,,403.6925,403.6926,,0,21,21,21,1,10,novel,,,,,,,,,,,,,,,,,,,,,,,,,,,,,,,,,,,,,,,,,,,,,,,,,
,,21,6,${e://Field/PROLIFIC_PID,F,18,2023-11-03_16h41.18.213,MouseEye_CC,2023.2.2,Win32,60.0024001,1.28,,,1920,1080,48.708999999999996,4.84,"95.74, 112.33, 113.19, 121.28, 124.09, 139.19, 140.44",873.41,8.502187576,41.15058787,27.83653633,Failed,137.8544694,,,,,,,,,,,,,,,,,,,,,training,2,7,180,right,s,,,,,403.6944,404.0093,35.84,2,-7,1,0,0,0.3147,fixationPoint,404.0094,404.109,404.109,407.2369,35.84,10240,616.96,s,1,3.1018,,407.237,407.4269,,,,,,,,42,-166,31,163,22,32,24,174,222,-167,-167,-20,-20,-17,-216,115,-17,75,-164,112,-125,-26,123,-76,73,360,270,270,180,360,360,270,180,180,90,180,,,,,,,,,,,407.427,407.4271,,0,22,22,22,1,4,repeated,,,,,,,,,,,,,,,,,,,,,,,,,,,,,,,,,,,,,,,,,,,,,,,,,
,,21,6,${e://Field/PROLIFIC_PID,F,18,2023-11-03_16h41.18.213,MouseEye_CC,2023.2.2,Win32,60.0024001,1.28,,,1920,1080,48.708999999999996,4.84,"95.74, 112.33, 113.19, 121.28, 124.09, 139.19, 140.44",873.41,8.502187576,41.15058787,27.83653633,Failed,137.8544694,,,,,,,,,,,,,,,,,,,,,training,2,8,0,left,a,,,,,407.4277,407.693,35.84,2,-7,1,0,0,0.2652,fixationPoint,407.6932,407.7925,407.7925,409.1929,35.84,10240,616.96,a,1,1.3843,,409.193,409.3923,,,,,,,,97,71,-212,211,215,124,170,32,24,-28,20,-122,219,-223,20,-75,-165,-220,-128,-220,-20,173,-170,112,-125,180,90,270,270,360,180,360,360,360,360,180,,,,,,,,,,,409.3925,409.3928,,0,23,23,23,1,8,repeated,,,,,,,,,,,,,,,,,,,,,,,,,,,,,,,,,,,,,,,,,,,,,,,,,
,,21,6,${e://Field/PROLIFIC_PID,F,18,2023-11-03_16h41.18.213,MouseEye_CC,2023.2.2,Win32,60.0024001,1.28,,,1920,1080,48.708999999999996,4.84,"95.74, 112.33, 113.19, 121.28, 124.09, 139.19, 140.44",873.41,8.502187576,41.15058787,27.83653633,Failed,137.8544694,,,,,,,,,,,,,,,,,,,,,training,2,9,0,left,a,,,,,409.3933,409.7593,35.84,2,-7,1,0,0,0.3657,fixationPoint,409.7594,409.8593,409.8593,411.5934,35.84,10240,616.96,a,1,1.7186,,411.5934,411.8019,,,,,,,,22,-162,114,163,22,160,172,174,222,-124,-172,-162,-215,-216,-168,208,-220,174,-16,75,-164,-22,165,-174,162,90,360,360,270,180,270,180,360,180,90,90,,,,,,,,,,,411.8019,411.8021,,0,24,24,24,1,15,novel,,,,,,,,,,,,,,,,,,,,,,,,,,,,,,,,,,,,,,,,,,,,,,,,,
,,21,6,${e://Field/PROLIFIC_PID,F,18,2023-11-03_16h41.18.213,MouseEye_CC,2023.2.2,Win32,60.0024001,1.28,,,1920,1080,48.708999999999996,4.84,"95.74, 112.33, 113.19, 121.28, 124.09, 139.19, 140.44",873.41,8.502187576,41.15058787,27.83653633,Failed,137.8544694,,,,,,,,,,,,,,,,,,,,,training,2,10,180,right,s,,,,,411.8026,412.1259,35.84,2,-7,1,0,0,0.3231,fixationPoint,412.126,412.2259,412.2259,414.602,35.84,10240,616.96,s,1,2.3505,,414.6021,414.7924,,,,,,,,72,-164,-114,72,169,211,215,172,64,-20,220,-223,20,-66,174,32,-113,27,-211,174,-16,-20,-20,-220,-80,270,270,90,270,90,270,270,360,180,180,360,,,,,,,,,,,414.7924,414.7926,,0,25,25,25,1,6,repeated,,,,,,,,,,,,,,,,,,,,,,,,,,,,,,,,,,,,,,,,,,,,,,,,,
,,21,6,${e://Field/PROLIFIC_PID,F,18,2023-11-03_16h41.18.213,MouseEye_CC,2023.2.2,Win32,60.0024001,1.28,,,1920,1080,48.708999999999996,4.84,"95.74, 112.33, 113.19, 121.28, 124.09, 139.19, 140.44",873.41,8.502187576,41.15058787,27.83653633,Failed,137.8544694,,,,,,,,,,,,,,,,,,,,,training,2,11,180,right,s,,,,,414.7931,415.4929,35.84,2,-7,1,0,0,0.6996,fixationPoint,415.493,415.5924,415.5934,417.5522,35.84,10240,616.96,s,1,1.9339,,417.5523,417.7427,,,,,,,,59,174,-16,18,215,163,22,160,172,-222,168,-174,162,-20,220,-164,-114,-116,-219,-119,-79,208,-28,32,-113,90,180,180,180,180,270,180,270,180,90,180,,,,,,,,,,,417.7428,417.7429,,0,26,26,26,1,12,novel,,,,,,,,,,,,,,,,,,,,,,,,,,,,,,,,,,,,,,,,,,,,,,,,,
,,21,6,${e://Field/PROLIFIC_PID,F,18,2023-11-03_16h41.18.213,MouseEye_CC,2023.2.2,Win32,60.0024001,1.28,,,1920,1080,48.708999999999996,4.84,"95.74, 112.33, 113.19, 121.28, 124.09, 139.19, 140.44",873.41,8.502187576,41.15058787,27.83653633,Failed,137.8544694,,,,,,,,,,,,,,,,,,,,,training,2,12,0,left,a,,,,,417.7433,418.26,35.84,2,-7,1,0,0,0.5165,fixationPoint,418.26,418.359,418.359,420.0189,35.84,10240,616.96,a,1,1.634,,420.0189,420.2092,,,,,,,,14,-66,174,27,172,211,215,160,172,-20,-20,-220,-20,-79,-79,208,-220,80,-26,28,-78,-124,122,-120,77,90,90,360,180,180,270,360,90,90,180,180,,,,,,,,,,,420.2093,420.2095,,0,27,27,27,1,3,repeated,,,,,,,,,,,,,,,,,,,,,,,,,,,,,,,,,,,,,,,,,,,,,,,,,
,,21,6,${e://Field/PROLIFIC_PID,F,18,2023-11-03_16h41.18.213,MouseEye_CC,2023.2.2,Win32,60.0024001,1.28,,,1920,1080,48.708999999999996,4.84,"95.74, 112.33, 113.19, 121.28, 124.09, 139.19, 140.44",873.41,8.502187576,41.15058787,27.83653633,Failed,137.8544694,,,,,,,,,,,,,,,,,,,,,training,2,13,0,left,a,,,,,420.2101,421.0589,35.84,2,-7,1,0,0,0.8487,fixationPoint,421.059,421.1595,421.1596,422.793,35.84,10240,616.96,a,1,1.6022,,422.793,422.9847,,,,,,,,29,170,112,-66,174,-120,77,-219,220,-119,-79,-17,-216,-70,-221,120,-221,19,-169,174,-16,119,75,221,26,360,180,360,360,270,90,180,270,270,270,180,,,,,,,,,,,422.9848,422.985,,0,28,28,28,1,14,novel,,,,,,,,,,,,,,,,,,,,,,,,,,,,,,,,,,,,,,,,,,,,,,,,,
,,21,6,${e://Field/PROLIFIC_PID,F,18,2023-11-03_16h41.18.213,MouseEye_CC,2023.2.2,Win32,60.0024001,1.28,,,1920,1080,48.708999999999996,4.84,"95.74, 112.33, 113.19, 121.28, 124.09, 139.19, 140.44",873.41,8.502187576,41.15058787,27.83653633,Failed,137.8544694,,,,,,,,,,,,,,,,,,,,,training,2,14,0,left,a,,,,,422.9854,424.4828,35.84,2,-7,1,0,0,1.4973,fixationPoint,424.4829,424.5755,424.5756,427.1522,35.84,10240,616.96,a,1,2.5505,,427.1523,427.3428,,,,,,,,4,-68,208,66,211,221,80,213,173,-116,-219,-79,-79,-167,-167,164,-113,163,-68,75,-164,-22,165,-26,123,90,270,360,360,90,180,360,180,180,180,90,,,,,,,,,,,427.3429,427.343,,0,29,29,29,1,16,novel,,,,,,,,,,,,,,,,,,,,,,,,,,,,,,,,,,,,,,,,,,,,,,,,,
,,21,6,${e://Field/PROLIFIC_PID,F,18,2023-11-03_16h41.18.213,MouseEye_CC,2023.2.2,Win32,60.0024001,1.28,,,1920,1080,48.708999999999996,4.84,"95.74, 112.33, 113.19, 121.28, 124.09, 139.19, 140.44",873.41,8.502187576,41.15058787,27.83653633,Failed,137.8544694,,,,,,,,,,,,,,,,,,,,,training,2,15,180,right,s,,,,,427.3435,427.7927,35.84,2,-7,1,0,0,0.4491,fixationPoint,427.7928,427.893,427.893,430.2094,35.84,10240,616.96,s,1,2.2988,,430.2095,430.4087,,,,,,,,94,-70,-221,213,173,27,172,120,20,-122,219,-174,162,-73,124,173,-170,80,-26,213,-79,-74,-124,-116,-219,180,360,180,360,180,270,90,90,360,270,180,,,,,,,,,,,430.4087,430.4089,,0,30,30,30,1,5,repeated,,,,,,,,,,,,,,,,,,,,,,,,,,,,,,,,,,,,,,,,,,,,,,,,,
,,21,6,${e://Field/PROLIFIC_PID,F,18,2023-11-03_16h41.18.213,MouseEye_CC,2023.2.2,Win32,60.0024001,1.28,,,1920,1080,48.708999999999996,4.84,"95.74, 112.33, 113.19, 121.28, 124.09, 139.19, 140.44",873.41,8.502187576,41.15058787,27.83653633,Failed,137.8544694,,,,,,,,,,,,,,,,,,,,,training,2,16,180,right,s,,,,,430.4095,430.7262,35.84,2,-7,1,0,0,0.3165,fixationPoint,430.7264,430.8256,430.8256,432.7523,35.84,10240,616.96,s,1,1.9009,,432.7523,432.9421,,,,,,,,7,66,211,-174,162,-162,114,-66,174,-116,-219,-17,-70,-32,-112,221,-172,213,-79,120,-221,72,169,210,120,270,360,90,360,90,90,90,90,270,360,90,,,,,,,,,,,432.9421,434.452,space,0,31,31,31,1,13,novel,1.4787,,,,,,,,,,,,,,,,,,,,,,,,,,,,,,,,,,,,,,,,,,,,,,,,
,,21,6,${e://Field/PROLIFIC_PID,F,18,2023-11-03_16h41.18.213,MouseEye_CC,2023.2.2,Win32,60.0024001,1.28,,,1920,1080,48.708999999999996,4.84,"95.74, 112.33, 113.19, 121.28, 124.09, 139.19, 140.44",873.41,8.502187576,41.15058787,27.83653633,Failed,137.8544694,,,,,,,,,,,,,,,,,,,,,training,3,1,180,right,s,,,,,434.4524,435.7519,35.84,2,-7,1,0,0,1.2994,fixationPoint,435.7519,435.842,435.8421,437.4521,35.84,10240,616.96,s,1,1.5837,,437.4521,437.6514,,,,,,,,59,174,-16,163,22,116,209,73,71,-213,64,-161,70,-222,168,-20,-20,-167,-167,-116,-219,24,-19,175,-224,90,90,90,90,180,360,270,270,90,360,90,,,,,,,,,,,437.6514,437.6542,,0,32,32,32,1,12,novel,,,,,,,,,,,,,,,,,,,,,,,,,,,,,,,,,,,,,,,,,,,,,,,,,
,,21,6,${e://Field/PROLIFIC_PID,F,18,2023-11-03_16h41.18.213,MouseEye_CC,2023.2.2,Win32,60.0024001,1.28,,,1920,1080,48.708999999999996,4.84,"95.74, 112.33, 113.19, 121.28, 124.09, 139.19, 140.44",873.41,8.502187576,41.15058787,27.83653633,Failed,137.8544694,,,,,,,,,,,,,,,,,,,,,training,3,2,180,right,s,,,,,437.6546,437.9929,35.84,2,-7,1,0,0,0.338,fixationPoint,437.993,438.0918,438.092,440.792,35.84,10240,616.96,s,1,2.6703,,440.792,440.9921,,,,,,,,7,66,211,-222,168,-122,219,-223,20,-116,-219,-79,-79,-32,-172,208,-28,115,-17,208,-220,21,65,32,120,360,90,360,180,180,90,90,90,270,90,180,,,,,,,,,,,440.9921,440.9923,,0,33,33,33,1,13,novel,,,,,,,,,,,,,,,,,,,,,,,,,,,,,,,,,,,,,,,,,,,,,,,,,
,,21,6,${e://Field/PROLIFIC_PID,F,18,2023-11-03_16h41.18.213,MouseEye_CC,2023.2.2,Win32,60.0024001,1.28,,,1920,1080,48.708999999999996,4.84,"95.74, 112.33, 113.19, 121.28, 124.09, 139.19, 140.44",873.41,8.502187576,41.15058787,27.83653633,Failed,137.8544694,,,,,,,,,,,,,,,,,,,,,training,3,3,180,right,s,,,,,440.9928,441.326,35.84,2,-7,1,0,0,0.3329,fixationPoint,441.326,441.4255,441.4256,444.443,35.84,10240,616.96,s,1,2.9909,,444.4431,444.6425,,,,,,,,49,163,22,-127,21,-28,20,-32,72,-162,-215,-17,-216,-17,-70,80,-114,19,-169,221,-172,124,170,210,120,90,180,360,270,90,180,90,90,270,180,180,,,,,,,,,,,444.6426,444.6429,,0,34,34,34,1,1,repeated,,,,,,,,,,,,,,,,,,,,,,,,,,,,,,,,,,,,,,,,,,,,,,,,,
,,21,6,${e://Field/PROLIFIC_PID,F,18,2023-11-03_16h41.18.213,MouseEye_CC,2023.2.2,Win32,60.0024001,1.28,,,1920,1080,48.708999999999996,4.84,"95.74, 112.33, 113.19, 121.28, 124.09, 139.19, 140.44",873.41,8.502187576,41.15058787,27.83653633,Failed,137.8544694,,,,,,,,,,,,,,,,,,,,,training,3,4,0,left,a,,,,,444.6432,444.9756,35.84,2,-7,1,0,0,0.3321,fixationPoint,444.9756,445.0638,445.0638,446.0855,35.84,10240,616.96,a,1,1.0007,,446.0855,446.2848,,,,,,,,4,-68,208,221,26,124,170,172,64,-124,-172,-167,-167,-166,-76,80,-26,28,-78,19,-169,-222,168,-213,64,360,270,180,90,270,180,90,180,360,180,180,,,,,,,,,,,446.2848,446.2851,,0,35,35,35,1,16,novel,,,,,,,,,,,,,,,,,,,,,,,,,,,,,,,,,,,,,,,,,,,,,,,,,
,,21,6,${e://Field/PROLIFIC_PID,F,18,2023-11-03_16h41.18.213,MouseEye_CC,2023.2.2,Win32,60.0024001,1.28,,,1920,1080,48.708999999999996,4.84,"95.74, 112.33, 113.19, 121.28, 124.09, 139.19, 140.44",873.41,8.502187576,41.15058787,27.83653633,Failed,137.8544694,,,,,,,,,,,,,,,,,,,,,training,3,5,180,right,s,,,,,446.2855,446.71,35.84,2,-7,1,0,0,0.4243,fixationPoint,446.71,446.8094,446.8095,448.3101,35.84,10240,616.96,s,1,1.4705,,448.3101,448.5084,,,,,,,,52,-168,-29,221,26,27,172,213,173,-28,20,-222,168,-174,162,32,-113,71,-212,112,-125,-220,-128,-220,-80,90,360,360,90,270,360,270,180,270,270,90,,,,,,,,,,,448.5085,448.5088,,0,36,36,36,1,9,novel,,,,,,,,,,,,,,,,,,,,,,,,,,,,,,,,,,,,,,,,,,,,,,,,,
,,21,6,${e://Field/PROLIFIC_PID,F,18,2023-11-03_16h41.18.213,MouseEye_CC,2023.2.2,Win32,60.0024001,1.28,,,1920,1080,48.708999999999996,4.84,"95.74, 112.33, 113.19, 121.28, 124.09, 139.19, 140.44",873.41,8.502187576,41.15058787,27.83653633,Failed,137.8544694,,,,,,,,,,,,,,,,,,,,,training,3,6,180,right,s,,,,,448.5092,448.8761,35.84,2,-7,1,0,0,0.3667,fixationPoint,448.8762,448.9752,448.9753,450.3089,35.84,10240,616.96,s,1,1.3171,,450.3089,450.5093,,,,,,,,84,-75,-165,221,26,221,80,21,65,-223,117,-122,168,-219,220,71,-212,32,-113,164,-113,-164,-114,-216,-168,90,90,360,90,270,270,90,360,180,360,90,,,,,,,,,,,450.5094,450.5097,,0,37,37,37,1,10,novel,,,,,,,,,,,,,,,,,,,,,,,,,,,,,,,,,,,,,,,,,,,,,,,,,
,,21,6,${e://Field/PROLIFIC_PID,F,18,2023-11-03_16h41.18.213,MouseEye_CC,2023.2.2,Win32,60.0024001,1.28,,,1920,1080,48.708999999999996,4.84,"95.74, 112.33, 113.19, 121.28, 124.09, 139.19, 140.44",873.41,8.502187576,41.15058787,27.83653633,Failed,137.8544694,,,,,,,,,,,,,,,,,,,,,training,3,7,0,left,a,,,,,450.5101,451.6519,35.84,2,-7,1,0,0,1.1416,fixationPoint,451.6519,451.7419,451.7419,453.3853,35.84,10240,616.96,a,1,1.6173,,453.3854,453.5763,,,,,,,,17,72,169,-161,70,-166,31,-223,20,-220,-128,-17,-70,-70,-221,24,-19,80,-26,163,-68,211,215,221,26,270,270,270,180,270,360,180,180,360,360,90,,,,,,,,,,,453.5764,453.5766,,0,38,38,38,1,2,repeated,,,,,,,,,,,,,,,,,,,,,,,,,,,,,,,,,,,,,,,,,,,,,,,,,
,,21,6,${e://Field/PROLIFIC_PID,F,18,2023-11-03_16h41.18.213,MouseEye_CC,2023.2.2,Win32,60.0024001,1.28,,,1920,1080,48.708999999999996,4.84,"95.74, 112.33, 113.19, 121.28, 124.09, 139.19, 140.44",873.41,8.502187576,41.15058787,27.83653633,Failed,137.8544694,,,,,,,,,,,,,,,,,,,,,training,3,8,0,left,a,,,,,453.5771,454.4756,35.84,2,-7,1,0,0,0.8982,fixationPoint,454.4757,454.5752,454.5753,457.2094,35.84,10240,616.96,a,1,2.6075,,457.2095,457.4091,,,,,,,,79,164,-113,21,65,210,120,73,126,-76,73,-161,70,-124,122,-166,-76,-124,-172,-119,-79,112,-70,175,-224,90,180,180,90,180,270,180,180,90,360,270,,,,,,,,,,,457.4092,457.4095,,0,39,39,39,1,7,repeated,,,,,,,,,,,,,,,,,,,,,,,,,,,,,,,,,,,,,,,,,,,,,,,,,
,,21,6,${e://Field/PROLIFIC_PID,F,18,2023-11-03_16h41.18.213,MouseEye_CC,2023.2.2,Win32,60.0024001,1.28,,,1920,1080,48.708999999999996,4.84,"95.74, 112.33, 113.19, 121.28, 124.09, 139.19, 140.44",873.41,8.502187576,41.15058787,27.83653633,Failed,137.8544694,,,,,,,,,,,,,,,,,,,,,training,3,9,0,left,a,,,,,457.4099,457.8258,35.84,2,-7,1,0,0,0.4159,fixationPoint,457.8259,457.9256,457.9256,459.3926,35.84,10240,616.96,a,1,1.4343,,459.3927,459.592,,,,,,,,14,-66,174,27,172,211,215,160,172,-20,-20,-220,-20,-79,-79,208,-220,80,-26,28,-78,-124,122,-120,77,90,360,90,360,360,360,360,270,270,90,90,,,,,,,,,,,459.5921,459.5922,,0,40,40,40,1,3,repeated,,,,,,,,,,,,,,,,,,,,,,,,,,,,,,,,,,,,,,,,,,,,,,,,,
,,21,6,${e://Field/PROLIFIC_PID,F,18,2023-11-03_16h41.18.213,MouseEye_CC,2023.2.2,Win32,60.0024001,1.28,,,1920,1080,48.708999999999996,4.84,"95.74, 112.33, 113.19, 121.28, 124.09, 139.19, 140.44",873.41,8.502187576,41.15058787,27.83653633,Failed,137.8544694,,,,,,,,,,,,,,,,,,,,,training,3,10,180,right,s,,,,,459.5928,459.9428,35.84,2,-7,1,0,0,0.3498,fixationPoint,459.9428,460.0344,460.0345,461.213,35.84,10240,616.96,s,1,1.1617,,461.213,461.4093,,,,,,,,72,-164,-114,72,169,211,215,172,64,-20,220,-223,20,-66,174,32,-113,27,-211,174,-16,-20,-20,-220,-80,180,270,360,360,180,360,90,360,360,270,360,,,,,,,,,,,461.4093,461.4096,,0,41,41,41,1,6,repeated,,,,,,,,,,,,,,,,,,,,,,,,,,,,,,,,,,,,,,,,,,,,,,,,,
,,21,6,${e://Field/PROLIFIC_PID,F,18,2023-11-03_16h41.18.213,MouseEye_CC,2023.2.2,Win32,60.0024001,1.28,,,1920,1080,48.708999999999996,4.84,"95.74, 112.33, 113.19, 121.28, 124.09, 139.19, 140.44",873.41,8.502187576,41.15058787,27.83653633,Failed,137.8544694,,,,,,,,,,,,,,,,,,,,,training,3,11,180,right,s,,,,,461.41,461.8084,35.84,2,-7,1,0,0,0.3983,fixationPoint,461.8085,461.9085,461.9085,463.7589,35.84,10240,616.96,s,1,1.8205,,463.759,463.9512,,,,,,,,42,-166,31,163,22,32,24,174,222,-167,-167,-20,-20,-17,-216,115,-17,75,-164,112,-125,-26,123,-76,73,270,270,360,90,270,90,90,270,90,90,90,,,,,,,,,,,463.9513,463.9515,,0,42,42,42,1,4,repeated,,,,,,,,,,,,,,,,,,,,,,,,,,,,,,,,,,,,,,,,,,,,,,,,,
,,21,6,${e://Field/PROLIFIC_PID,F,18,2023-11-03_16h41.18.213,MouseEye_CC,2023.2.2,Win32,60.0024001,1.28,,,1920,1080,48.708999999999996,4.84,"95.74, 112.33, 113.19, 121.28, 124.09, 139.19, 140.44",873.41,8.502187576,41.15058787,27.83653633,Failed,137.8544694,,,,,,,,,,,,,,,,,,,,,training,3,12,0,left,a,,,,,463.9519,464.3254,35.84,2,-7,1,0,0,0.3734,fixationPoint,464.3256,464.4251,464.4264,465.8761,35.84,10240,616.96,a,1,1.4246,,465.8761,466.0755,,,,,,,,94,-70,-221,213,173,27,172,120,20,-122,219,-174,162,-73,124,173,-170,80,-26,213,-79,-74,-124,-116,-219,360,270,270,180,90,270,180,90,180,360,360,,,,,,,,,,,466.0755,466.0756,,0,43,43,43,1,5,repeated,,,,,,,,,,,,,,,,,,,,,,,,,,,,,,,,,,,,,,,,,,,,,,,,,
,,21,6,${e://Field/PROLIFIC_PID,F,18,2023-11-03_16h41.18.213,MouseEye_CC,2023.2.2,Win32,60.0024001,1.28,,,1920,1080,48.708999999999996,4.84,"95.74, 112.33, 113.19, 121.28, 124.09, 139.19, 140.44",873.41,8.502187576,41.15058787,27.83653633,Failed,137.8544694,,,,,,,,,,,,,,,,,,,,,training,3,13,0,left,a,,,,,466.0761,466.4254,35.84,2,-7,1,0,0,0.3492,fixationPoint,466.4254,466.5256,466.5256,469.3925,35.84,10240,616.96,a,1,2.8377,,469.3926,469.5922,,,,,,,,87,75,-164,210,120,73,126,163,22,-32,72,-26,123,-22,165,-116,-219,-220,-20,-32,-112,24,-19,19,-169,360,90,360,180,270,360,360,270,360,180,360,,,,,,,,,,,469.5922,469.5924,,0,44,44,44,1,11,novel,,,,,,,,,,,,,,,,,,,,,,,,,,,,,,,,,,,,,,,,,,,,,,,,,
,,21,6,${e://Field/PROLIFIC_PID,F,18,2023-11-03_16h41.18.213,MouseEye_CC,2023.2.2,Win32,60.0024001,1.28,,,1920,1080,48.708999999999996,4.84,"95.74, 112.33, 113.19, 121.28, 124.09, 139.19, 140.44",873.41,8.502187576,41.15058787,27.83653633,Failed,137.8544694,,,,,,,,,,,,,,,,,,,,,training,3,14,180,right,s,,,,,469.5928,469.9517,35.84,2,-7,1,0,0,0.3588,fixationPoint,469.9518,470.0417,470.0418,473.6252,35.84,10240,616.96,s,1,3.5571,,473.6252,473.8254,,,,,,,,22,-162,114,27,172,211,215,174,222,-74,-124,-70,-221,-120,-32,221,-172,213,-79,112,-125,-66,174,-120,77,180,90,90,360,180,180,270,270,90,360,360,,,,,,,,,,,473.8255,473.8258,,0,45,45,45,1,15,novel,,,,,,,,,,,,,,,,,,,,,,,,,,,,,,,,,,,,,,,,,,,,,,,,,
,,21,6,${e://Field/PROLIFIC_PID,F,18,2023-11-03_16h41.18.213,MouseEye_CC,2023.2.2,Win32,60.0024001,1.28,,,1920,1080,48.708999999999996,4.84,"95.74, 112.33, 113.19, 121.28, 124.09, 139.19, 140.44",873.41,8.502187576,41.15058787,27.83653633,Failed,137.8544694,,,,,,,,,,,,,,,,,,,,,training,3,15,0,left,a,,,,,473.8262,474.1755,35.84,2,-7,1,0,0,0.3491,fixationPoint,474.1756,474.2754,474.2754,476.9848,35.84,10240,616.96,a,1,2.6939,,476.9848,477.1759,,,,,,,,97,71,-212,211,215,124,170,32,24,-28,20,-122,219,-223,20,-75,-165,-220,-128,-220,-20,173,-170,112,-125,90,180,360,180,90,180,90,270,180,90,90,,,,,,,,,,,477.1759,477.1762,,0,46,46,46,1,8,repeated,,,,,,,,,,,,,,,,,,,,,,,,,,,,,,,,,,,,,,,,,,,,,,,,,
,,21,6,${e://Field/PROLIFIC_PID,F,18,2023-11-03_16h41.18.213,MouseEye_CC,2023.2.2,Win32,60.0024001,1.28,,,1920,1080,48.708999999999996,4.84,"95.74, 112.33, 113.19, 121.28, 124.09, 139.19, 140.44",873.41,8.502187576,41.15058787,27.83653633,Failed,137.8544694,,,,,,,,,,,,,,,,,,,,,training,3,16,0,left,a,,,,,477.1766,477.5001,35.84,2,-7,1,0,0,0.3233,fixationPoint,477.5001,477.5924,477.5925,480.0854,35.84,10240,616.96,s,0,2.4676,,480.0854,484.0757,,,,,,,,29,170,112,-26,123,-223,20,-174,162,-220,-128,-17,-70,-32,-112,120,-221,27,-211,115,-17,21,65,32,24,360,270,270,270,270,360,180,90,90,270,270,,,,,,,,,,,484.0758,486.2749,space,0,47,47,47,1,14,novel,2.1674,,,,,,,,,,,,,,,,,,,,,,,,,,,,,,,,,,,,,,,,,,,,,,,,
,,21,6,${e://Field/PROLIFIC_PID,F,18,2023-11-03_16h41.18.213,MouseEye_CC,2023.2.2,Win32,60.0024001,1.28,,,1920,1080,48.708999999999996,4.84,"95.74, 112.33, 113.19, 121.28, 124.09, 139.19, 140.44",873.41,8.502187576,41.15058787,27.83653633,Failed,137.8544694,,,,,,,,,,,,,,,,,,,,,training,4,1,180,right,s,,,,,486.2753,488.3255,35.84,2,-7,1,0,0,2.0501,fixationPoint,488.3256,488.4257,488.4257,491.1183,35.84,10240,616.96,s,1,2.6672,,491.1185,491.3091,,,,,,,,29,170,112,-20,220,-66,174,-65,27,-220,-128,-32,-112,-74,-124,80,-114,175,-224,220,-120,32,120,120,20,360,90,90,90,270,90,90,270,180,90,180,,,,,,,,,,,491.3092,491.3107,,0,48,48,48,1,14,novel,,,,,,,,,,,,,,,,,,,,,,,,,,,,,,,,,,,,,,,,,,,,,,,,,
,,21,6,${e://Field/PROLIFIC_PID,F,18,2023-11-03_16h41.18.213,MouseEye_CC,2023.2.2,Win32,60.0024001,1.28,,,1920,1080,48.708999999999996,4.84,"95.74, 112.33, 113.19, 121.28, 124.09, 139.19, 140.44",873.41,8.502187576,41.15058787,27.83653633,Failed,137.8544694,,,,,,,,,,,,,,,,,,,,,training,4,2,0,left,a,,,,,491.3113,491.6752,35.84,2,-7,1,0,0,0.3636,fixationPoint,491.6754,491.7844,491.7844,492.6595,35.84,10240,616.96,a,1,0.857,,492.6595,492.8591,,,,,,,,22,-162,114,120,20,21,65,213,173,-32,-172,-17,-70,-220,-128,115,-17,163,-68,112,-125,-174,162,-213,64,90,180,180,180,360,360,270,90,180,90,180,,,,,,,,,,,492.8591,492.8594,,0,49,49,49,1,15,novel,,,,,,,,,,,,,,,,,,,,,,,,,,,,,,,,,,,,,,,,,,,,,,,,,
,,21,6,${e://Field/PROLIFIC_PID,F,18,2023-11-03_16h41.18.213,MouseEye_CC,2023.2.2,Win32,60.0024001,1.28,,,1920,1080,48.708999999999996,4.84,"95.74, 112.33, 113.19, 121.28, 124.09, 139.19, 140.44",873.41,8.502187576,41.15058787,27.83653633,Failed,137.8544694,,,,,,,,,,,,,,,,,,,,,training,4,3,0,left,a,,,,,492.8599,493.2925,35.84,2,-7,1,0,0,0.4322,fixationPoint,493.2926,493.392,493.3921,494.9095,35.84,10240,616.96,a,1,1.4825,,494.9096,495.1082,,,,,,,,17,72,169,-161,70,-166,31,-223,20,-220,-128,-17,-70,-70,-221,24,-19,80,-26,163,-68,211,215,221,26,90,270,270,270,90,270,270,180,90,360,90,,,,,,,,,,,495.1082,495.1086,,0,50,50,50,1,2,repeated,,,,,,,,,,,,,,,,,,,,,,,,,,,,,,,,,,,,,,,,,,,,,,,,,
,,21,6,${e://Field/PROLIFIC_PID,F,18,2023-11-03_16h41.18.213,MouseEye_CC,2023.2.2,Win32,60.0024001,1.28,,,1920,1080,48.708999999999996,4.84,"95.74, 112.33, 113.19, 121.28, 124.09, 139.19, 140.44",873.41,8.502187576,41.15058787,27.83653633,Failed,137.8544694,,,,,,,,,,,,,,,,,,,,,training,4,4,180,right,s,,,,,495.109,495.4416,35.84,2,-7,1,0,0,0.3324,fixationPoint,495.4417,495.5427,495.5429,497.1754,35.84,10240,616.96,s,1,1.617,,497.1755,497.3749,,,,,,,,87,75,-164,116,209,211,215,163,22,-73,124,-76,73,-32,72,-124,-172,-119,-79,-71,-32,173,-170,221,-172,180,180,180,270,180,360,180,180,90,180,360,,,,,,,,,,,497.3749,497.3752,,0,51,51,51,1,11,novel,,,,,,,,,,,,,,,,,,,,,,,,,,,,,,,,,,,,,,,,,,,,,,,,,
,,21,6,${e://Field/PROLIFIC_PID,F,18,2023-11-03_16h41.18.213,MouseEye_CC,2023.2.2,Win32,60.0024001,1.28,,,1920,1080,48.708999999999996,4.84,"95.74, 112.33, 113.19, 121.28, 124.09, 139.19, 140.44",873.41,8.502187576,41.15058787,27.83653633,Failed,137.8544694,,,,,,,,,,,,,,,,,,,,,training,4,5,180,right,s,,,,,497.3757,497.7081,35.84,2,-7,1,0,0,0.3323,fixationPoint,497.7081,497.8088,497.8089,499.276,35.84,10240,616.96,s,1,1.4505,,499.276,499.4757,,,,,,,,79,164,-113,21,65,210,120,73,126,-76,73,-161,70,-124,122,-166,-76,-124,-172,-119,-79,112,-70,175,-224,180,90,90,180,90,90,90,360,270,90,360,,,,,,,,,,,499.4757,499.476,,0,52,52,52,1,7,repeated,,,,,,,,,,,,,,,,,,,,,,,,,,,,,,,,,,,,,,,,,,,,,,,,,
,,21,6,${e://Field/PROLIFIC_PID,F,18,2023-11-03_16h41.18.213,MouseEye_CC,2023.2.2,Win32,60.0024001,1.28,,,1920,1080,48.708999999999996,4.84,"95.74, 112.33, 113.19, 121.28, 124.09, 139.19, 140.44",873.41,8.502187576,41.15058787,27.83653633,Failed,137.8544694,,,,,,,,,,,,,,,,,,,,,training,4,6,0,left,a,,,,,499.4765,499.8257,35.84,2,-7,1,0,0,0.3491,fixationPoint,499.8258,499.9253,499.9253,501.909,35.84,10240,616.96,a,1,1.9677,,501.909,502.1082,,,,,,,,7,66,211,-223,20,-28,20,-223,117,-119,-79,-75,-165,-167,-167,27,-211,32,-113,112,-125,160,172,116,209,180,90,90,180,90,360,270,360,360,180,90,,,,,,,,,,,502.1082,502.1084,,0,53,53,53,1,13,novel,,,,,,,,,,,,,,,,,,,,,,,,,,,,,,,,,,,,,,,,,,,,,,,,,
,,21,6,${e://Field/PROLIFIC_PID,F,18,2023-11-03_16h41.18.213,MouseEye_CC,2023.2.2,Win32,60.0024001,1.28,,,1920,1080,48.708999999999996,4.84,"95.74, 112.33, 113.19, 121.28, 124.09, 139.19, 140.44",873.41,8.502187576,41.15058787,27.83653633,Failed,137.8544694,,,,,,,,,,,,,,,,,,,,,training,4,7,0,left,a,,,,,502.109,502.5755,35.84,2,-7,1,0,0,0.4661,fixationPoint,502.5756,502.6749,502.6749,505.0086,35.84,10240,616.96,a,1,2.3012,,505.0087,505.2004,,,,,,,,49,163,22,-127,21,-28,20,-32,72,-162,-215,-17,-216,-17,-70,80,-114,19,-169,221,-172,124,170,210,120,90,360,360,270,180,360,270,360,270,360,180,,,,,,,,,,,505.2005,505.2007,,0,54,54,54,1,1,repeated,,,,,,,,,,,,,,,,,,,,,,,,,,,,,,,,,,,,,,,,,,,,,,,,,
,,21,6,${e://Field/PROLIFIC_PID,F,18,2023-11-03_16h41.18.213,MouseEye_CC,2023.2.2,Win32,60.0024001,1.28,,,1920,1080,48.708999999999996,4.84,"95.74, 112.33, 113.19, 121.28, 124.09, 139.19, 140.44",873.41,8.502187576,41.15058787,27.83653633,Failed,137.8544694,,,,,,,,,,,,,,,,,,,,,training,4,8,180,right,s,,,,,505.2011,505.5921,35.84,2,-7,1,0,0,0.3909,fixationPoint,505.5921,505.6925,505.6925,507.5592,35.84,10240,616.96,s,1,1.8402,,507.5593,507.7589,,,,,,,,97,71,-212,211,215,124,170,32,24,-28,20,-122,219,-223,20,-75,-165,-220,-128,-220,-20,173,-170,112,-125,270,360,90,270,90,90,360,270,180,180,270,,,,,,,,,,,507.759,507.7592,,0,55,55,55,1,8,repeated,,,,,,,,,,,,,,,,,,,,,,,,,,,,,,,,,,,,,,,,,,,,,,,,,
,,21,6,${e://Field/PROLIFIC_PID,F,18,2023-11-03_16h41.18.213,MouseEye_CC,2023.2.2,Win32,60.0024001,1.28,,,1920,1080,48.708999999999996,4.84,"95.74, 112.33, 113.19, 121.28, 124.09, 139.19, 140.44",873.41,8.502187576,41.15058787,27.83653633,Failed,137.8544694,,,,,,,,,,,,,,,,,,,,,training,4,9,0,left,a,,,,,507.7596,508.3011,35.84,2,-7,1,0,0,0.5415,fixationPoint,508.3012,508.3922,508.3923,509.6021,35.84,10240,616.96,a,1,1.1845,,509.6022,509.7914,,,,,,,,14,-66,174,27,172,211,215,160,172,-20,-20,-220,-20,-79,-79,208,-220,80,-26,28,-78,-124,122,-120,77,270,360,270,270,360,360,90,360,90,360,360,,,,,,,,,,,509.7915,509.7916,,0,56,56,56,1,3,repeated,,,,,,,,,,,,,,,,,,,,,,,,,,,,,,,,,,,,,,,,,,,,,,,,,
,,21,6,${e://Field/PROLIFIC_PID,F,18,2023-11-03_16h41.18.213,MouseEye_CC,2023.2.2,Win32,60.0024001,1.28,,,1920,1080,48.708999999999996,4.84,"95.74, 112.33, 113.19, 121.28, 124.09, 139.19, 140.44",873.41,8.502187576,41.15058787,27.83653633,Failed,137.8544694,,,,,,,,,,,,,,,,,,,,,training,4,10,0,left,a,,,,,509.7921,510.242,35.84,2,-7,1,0,0,0.4496,fixationPoint,510.242,510.3424,510.3424,511.935,35.84,10240,616.96,a,1,1.5673,,511.9351,512.1254,,,,,,,,59,174,-16,112,128,213,173,211,215,-122,219,-73,124,-68,208,-121,-121,-124,-172,-168,-29,208,-220,28,-78,90,270,180,270,180,270,90,360,270,360,360,,,,,,,,,,,512.1255,512.1257,,0,57,57,57,1,12,novel,,,,,,,,,,,,,,,,,,,,,,,,,,,,,,,,,,,,,,,,,,,,,,,,,
,,21,6,${e://Field/PROLIFIC_PID,F,18,2023-11-03_16h41.18.213,MouseEye_CC,2023.2.2,Win32,60.0024001,1.28,,,1920,1080,48.708999999999996,4.84,"95.74, 112.33, 113.19, 121.28, 124.09, 139.19, 140.44",873.41,8.502187576,41.15058787,27.83653633,Failed,137.8544694,,,,,,,,,,,,,,,,,,,,,training,4,11,180,right,s,,,,,512.1261,512.5414,35.84,2,-7,1,0,0,0.4151,fixationPoint,512.5416,512.651,512.651,514.0514,35.84,10240,616.96,s,1,1.3838,,514.0515,514.2414,,,,,,,,4,-68,208,32,24,27,172,72,169,-220,-80,-32,-112,-70,-221,120,-221,221,-172,213,-79,-219,220,-66,174,270,180,270,90,90,360,270,180,90,180,90,,,,,,,,,,,514.2414,514.2416,,0,58,58,58,1,16,novel,,,,,,,,,,,,,,,,,,,,,,,,,,,,,,,,,,,,,,,,,,,,,,,,,
,,21,6,${e://Field/PROLIFIC_PID,F,18,2023-11-03_16h41.18.213,MouseEye_CC,2023.2.2,Win32,60.0024001,1.28,,,1920,1080,48.708999999999996,4.84,"95.74, 112.33, 113.19, 121.28, 124.09, 139.19, 140.44",873.41,8.502187576,41.15058787,27.83653633,Failed,137.8544694,,,,,,,,,,,,,,,,,,,,,training,4,12,0,left,a,,,,,514.242,514.742,35.84,2,-7,1,0,0,0.4998,fixationPoint,514.742,514.8419,514.8419,516.1095,35.84,10240,616.96,a,1,1.2324,,516.1096,516.3083,,,,,,,,52,-168,-29,66,211,210,120,213,173,-122,168,-124,122,-22,165,120,-221,27,-211,173,-170,-17,-216,-216,-224,360,90,180,360,180,90,90,270,360,360,180,,,,,,,,,,,516.3084,516.3086,,0,59,59,59,1,9,novel,,,,,,,,,,,,,,,,,,,,,,,,,,,,,,,,,,,,,,,,,,,,,,,,,
,,21,6,${e://Field/PROLIFIC_PID,F,18,2023-11-03_16h41.18.213,MouseEye_CC,2023.2.2,Win32,60.0024001,1.28,,,1920,1080,48.708999999999996,4.84,"95.74, 112.33, 113.19, 121.28, 124.09, 139.19, 140.44",873.41,8.502187576,41.15058787,27.83653633,Failed,137.8544694,,,,,,,,,,,,,,,,,,,,,training,4,13,0,left,a,,,,,516.309,516.7581,35.84,2,-7,1,0,0,0.4488,fixationPoint,516.7581,516.8591,516.8591,519.1514,35.84,10240,616.96,a,1,2.2777,,519.1515,519.3421,,,,,,,,94,-70,-221,213,173,27,172,120,20,-122,219,-174,162,-73,124,173,-170,80,-26,213,-79,-74,-124,-116,-219,360,360,90,180,360,180,270,270,180,180,270,,,,,,,,,,,519.3421,519.3423,,0,60,60,60,1,5,repeated,,,,,,,,,,,,,,,,,,,,,,,,,,,,,,,,,,,,,,,,,,,,,,,,,
,,21,6,${e://Field/PROLIFIC_PID,F,18,2023-11-03_16h41.18.213,MouseEye_CC,2023.2.2,Win32,60.0024001,1.28,,,1920,1080,48.708999999999996,4.84,"95.74, 112.33, 113.19, 121.28, 124.09, 139.19, 140.44",873.41,8.502187576,41.15058787,27.83653633,Failed,137.8544694,,,,,,,,,,,,,,,,,,,,,training,4,14,180,right,s,,,,,519.3427,519.7847,35.84,2,-7,1,0,0,0.4419,fixationPoint,519.7848,519.8753,519.8754,521.2351,35.84,10240,616.96,s,1,1.3339,,521.2352,521.4257,,,,,,,,72,-164,-114,72,169,211,215,172,64,-20,220,-223,20,-66,174,32,-113,27,-211,174,-16,-20,-20,-220,-80,180,360,360,360,90,180,180,180,270,90,180,,,,,,,,,,,521.4258,521.4259,,0,61,61,61,1,6,repeated,,,,,,,,,,,,,,,,,,,,,,,,,,,,,,,,,,,,,,,,,,,,,,,,,
,,21,6,${e://Field/PROLIFIC_PID,F,18,2023-11-03_16h41.18.213,MouseEye_CC,2023.2.2,Win32,60.0024001,1.28,,,1920,1080,48.708999999999996,4.84,"95.74, 112.33, 113.19, 121.28, 124.09, 139.19, 140.44",873.41,8.502187576,41.15058787,27.83653633,Failed,137.8544694,,,,,,,,,,,,,,,,,,,,,training,4,15,180,right,s,,,,,521.4265,521.7849,35.84,2,-7,1,0,0,0.3583,fixationPoint,521.7849,521.8749,521.875,522.8016,35.84,10240,616.96,s,1,0.9008,,522.8017,522.992,,,,,,,,42,-166,31,163,22,32,24,174,222,-167,-167,-20,-20,-17,-216,115,-17,75,-164,112,-125,-26,123,-76,73,360,360,270,270,180,90,360,180,90,360,270,,,,,,,,,,,522.9921,522.9925,,0,62,62,62,1,4,repeated,,,,,,,,,,,,,,,,,,,,,,,,,,,,,,,,,,,,,,,,,,,,,,,,,
,,21,6,${e://Field/PROLIFIC_PID,F,18,2023-11-03_16h41.18.213,MouseEye_CC,2023.2.2,Win32,60.0024001,1.28,,,1920,1080,48.708999999999996,4.84,"95.74, 112.33, 113.19, 121.28, 124.09, 139.19, 140.44",873.41,8.502187576,41.15058787,27.83653633,Failed,137.8544694,,,,,,,,,,,,,,,,,,,,,training,4,16,180,right,s,,,,,522.9927,523.3513,35.84,2,-7,1,0,0,0.3583,fixationPoint,523.3514,523.4422,523.4422,525.142,35.84,10240,616.96,s,1,1.6716,,525.1422,525.3423,,,,,,,,84,-75,-165,174,222,18,215,213,173,-65,27,-32,72,-223,20,112,-125,115,-17,116,-161,-124,-172,-162,-215,360,90,180,360,90,90,270,90,180,360,360,,,,,,,,,,,525.3423,540.4847,space,0,63,63,63,1,10,novel,15.1051,,,,,,,,,,,,,,,,,,,,,,,,,,,,,,,,,,,,,,,,,,,,,,,,
,,21,6,${e://Field/PROLIFIC_PID,F,18,2023-11-03_16h41.18.213,MouseEye_CC,2023.2.2,Win32,60.0024001,1.28,,,1920,1080,48.708999999999996,4.84,"95.74, 112.33, 113.19, 121.28, 124.09, 139.19, 140.44",873.41,8.502187576,41.15058787,27.83653633,Failed,137.8544694,,,,,,,,,,,,,,,,,,,,,training,5,1,180,right,s,,,,,540.4934,541.8919,35.84,2,-7,1,0,0,1.3981,fixationPoint,541.8919,542.0014,542.0015,543.9921,35.84,10240,616.96,s,1,1.9739,,543.9921,544.1841,,,,,,,,29,170,112,-219,220,-22,165,-161,70,-216,-168,-20,-20,-166,-76,115,-17,175,-224,163,-68,160,172,32,24,360,270,360,270,180,90,270,270,270,360,270,,,,,,,,,,,544.1842,544.1873,,0,64,64,64,1,14,novel,,,,,,,,,,,,,,,,,,,,,,,,,,,,,,,,,,,,,,,,,,,,,,,,,
,,21,6,${e://Field/PROLIFIC_PID,F,18,2023-11-03_16h41.18.213,MouseEye_CC,2023.2.2,Win32,60.0024001,1.28,,,1920,1080,48.708999999999996,4.84,"95.74, 112.33, 113.19, 121.28, 124.09, 139.19, 140.44",873.41,8.502187576,41.15058787,27.83653633,Failed,137.8544694,,,,,,,,,,,,,,,,,,,,,training,5,2,180,right,s,,,,,544.1876,544.6086,35.84,2,-7,1,0,0,0.4209,fixationPoint,544.6088,544.7087,544.7088,546.1179,35.84,10240,616.96,s,1,1.3839,,546.1179,546.3084,,,,,,,,84,-75,-165,73,71,163,22,174,222,-127,21,-222,168,-223,20,75,-71,75,-164,24,-19,-70,-221,-119,-79,270,90,360,360,270,180,360,360,90,270,90,,,,,,,,,,,546.3085,546.3087,,0,65,65,65,1,10,novel,,,,,,,,,,,,,,,,,,,,,,,,,,,,,,,,,,,,,,,,,,,,,,,,,
,,21,6,${e://Field/PROLIFIC_PID,F,18,2023-11-03_16h41.18.213,MouseEye_CC,2023.2.2,Win32,60.0024001,1.28,,,1920,1080,48.708999999999996,4.84,"95.74, 112.33, 113.19, 121.28, 124.09, 139.19, 140.44",873.41,8.502187576,41.15058787,27.83653633,Failed,137.8544694,,,,,,,,,,,,,,,,,,,,,training,5,3,0,left,a,,,,,546.3091,546.6092,35.84,2,-7,1,0,0,0.2999,fixationPoint,546.6093,546.7087,546.7088,551.485,35.84,10240,616.96,a,1,4.7509,,551.485,551.6749,,,,,,,,79,164,-113,21,65,210,120,73,126,-76,73,-161,70,-124,122,-166,-76,-124,-172,-119,-79,112,-70,175,-224,270,90,360,180,90,180,360,270,90,360,180,,,,,,,,,,,551.6749,551.6751,,0,66,66,66,1,7,repeated,,,,,,,,,,,,,,,,,,,,,,,,,,,,,,,,,,,,,,,,,,,,,,,,,
,,21,6,${e://Field/PROLIFIC_PID,F,18,2023-11-03_16h41.18.213,MouseEye_CC,2023.2.2,Win32,60.0024001,1.28,,,1920,1080,48.708999999999996,4.84,"95.74, 112.33, 113.19, 121.28, 124.09, 139.19, 140.44",873.41,8.502187576,41.15058787,27.83653633,Failed,137.8544694,,,,,,,,,,,,,,,,,,,,,training,5,4,180,right,s,,,,,551.6756,552.0583,35.84,2,-7,1,0,0,0.3826,fixationPoint,552.0583,552.1581,552.1581,554.3505,35.84,10240,616.96,s,1,2.1663,,554.3506,554.542,,,,,,,,17,72,169,-161,70,-166,31,-223,20,-220,-128,-17,-70,-70,-221,24,-19,80,-26,163,-68,211,215,221,26,180,180,180,90,180,360,90,360,90,90,180,,,,,,,,,,,554.5421,554.5424,,0,67,67,67,1,2,repeated,,,,,,,,,,,,,,,,,,,,,,,,,,,,,,,,,,,,,,,,,,,,,,,,,
,,21,6,${e://Field/PROLIFIC_PID,F,18,2023-11-03_16h41.18.213,MouseEye_CC,2023.2.2,Win32,60.0024001,1.28,,,1920,1080,48.708999999999996,4.84,"95.74, 112.33, 113.19, 121.28, 124.09, 139.19, 140.44",873.41,8.502187576,41.15058787,27.83653633,Failed,137.8544694,,,,,,,,,,,,,,,,,,,,,training,5,5,180,right,s,,,,,554.5427,554.8579,35.84,2,-7,1,0,0,0.3151,fixationPoint,554.858,554.9587,554.9588,556.4014,35.84,10240,616.96,s,1,1.4172,,556.4015,556.5917,,,,,,,,14,-66,174,27,172,211,215,160,172,-20,-20,-220,-20,-79,-79,208,-220,80,-26,28,-78,-124,122,-120,77,270,180,90,360,360,180,180,180,270,90,270,,,,,,,,,,,556.5918,556.5921,,0,68,68,68,1,3,repeated,,,,,,,,,,,,,,,,,,,,,,,,,,,,,,,,,,,,,,,,,,,,,,,,,
,,21,6,${e://Field/PROLIFIC_PID,F,18,2023-11-03_16h41.18.213,MouseEye_CC,2023.2.2,Win32,60.0024001,1.28,,,1920,1080,48.708999999999996,4.84,"95.74, 112.33, 113.19, 121.28, 124.09, 139.19, 140.44",873.41,8.502187576,41.15058787,27.83653633,Failed,137.8544694,,,,,,,,,,,,,,,,,,,,,training,5,6,180,right,s,,,,,556.5925,556.9082,35.84,2,-7,1,0,0,0.3155,fixationPoint,556.9083,557.0005,557.0005,559.6454,35.84,10240,616.96,s,1,2.628,,559.6454,559.8424,,,,,,,,49,163,22,-127,21,-28,20,-32,72,-162,-215,-17,-216,-17,-70,80,-114,19,-169,221,-172,124,170,210,120,360,360,180,180,180,360,90,360,180,90,180,,,,,,,,,,,559.8425,559.8426,,0,69,69,69,1,1,repeated,,,,,,,,,,,,,,,,,,,,,,,,,,,,,,,,,,,,,,,,,,,,,,,,,
,,21,6,${e://Field/PROLIFIC_PID,F,18,2023-11-03_16h41.18.213,MouseEye_CC,2023.2.2,Win32,60.0024001,1.28,,,1920,1080,48.708999999999996,4.84,"95.74, 112.33, 113.19, 121.28, 124.09, 139.19, 140.44",873.41,8.502187576,41.15058787,27.83653633,Failed,137.8544694,,,,,,,,,,,,,,,,,,,,,training,5,7,0,left,a,,,,,559.8431,560.1414,35.84,2,-7,1,0,0,0.2982,fixationPoint,560.1415,560.2416,560.2416,561.2089,35.84,10240,616.96,a,1,0.9507,,561.209,561.4083,,,,,,,,22,-162,114,221,80,210,120,221,26,-166,-76,-32,-112,-119,-79,80,-114,24,-19,112,-125,-73,124,-161,70,270,360,270,90,360,360,90,90,90,360,360,,,,,,,,,,,561.4085,561.4086,,0,70,70,70,1,15,novel,,,,,,,,,,,,,,,,,,,,,,,,,,,,,,,,,,,,,,,,,,,,,,,,,
,,21,6,${e://Field/PROLIFIC_PID,F,18,2023-11-03_16h41.18.213,MouseEye_CC,2023.2.2,Win32,60.0024001,1.28,,,1920,1080,48.708999999999996,4.84,"95.74, 112.33, 113.19, 121.28, 124.09, 139.19, 140.44",873.41,8.502187576,41.15058787,27.83653633,Failed,137.8544694,,,,,,,,,,,,,,,,,,,,,training,5,8,0,left,a,,,,,561.4092,561.8756,35.84,2,-7,1,0,0,0.4662,fixationPoint,561.8757,561.9747,561.9748,565.1014,35.84,10240,616.96,a,1,3.1006,,565.1015,565.2919,,,,,,,,94,-70,-221,213,173,27,172,120,20,-122,219,-174,162,-73,124,173,-170,80,-26,213,-79,-74,-124,-116,-219,90,180,180,360,180,90,90,360,360,360,270,,,,,,,,,,,565.292,565.2923,,0,71,71,71,1,5,repeated,,,,,,,,,,,,,,,,,,,,,,,,,,,,,,,,,,,,,,,,,,,,,,,,,
,,21,6,${e://Field/PROLIFIC_PID,F,18,2023-11-03_16h41.18.213,MouseEye_CC,2023.2.2,Win32,60.0024001,1.28,,,1920,1080,48.708999999999996,4.84,"95.74, 112.33, 113.19, 121.28, 124.09, 139.19, 140.44",873.41,8.502187576,41.15058787,27.83653633,Failed,137.8544694,,,,,,,,,,,,,,,,,,,,,training,5,9,0,left,a,,,,,565.2927,565.6681,35.84,2,-7,1,0,0,0.3752,fixationPoint,565.6682,565.7581,565.7582,566.7583,35.84,10240,616.96,a,1,0.972,,566.7584,566.9581,,,,,,,,52,-168,-29,27,172,72,169,174,222,-26,123,-76,73,-223,117,27,-211,28,-78,19,-169,-32,-172,-166,-76,180,90,270,90,90,360,90,270,360,360,90,,,,,,,,,,,566.9582,566.9585,,0,72,72,72,1,9,novel,,,,,,,,,,,,,,,,,,,,,,,,,,,,,,,,,,,,,,,,,,,,,,,,,
,,21,6,${e://Field/PROLIFIC_PID,F,18,2023-11-03_16h41.18.213,MouseEye_CC,2023.2.2,Win32,60.0024001,1.28,,,1920,1080,48.708999999999996,4.84,"95.74, 112.33, 113.19, 121.28, 124.09, 139.19, 140.44",873.41,8.502187576,41.15058787,27.83653633,Failed,137.8544694,,,,,,,,,,,,,,,,,,,,,training,5,10,0,left,a,,,,,566.959,568.0013,35.84,2,-7,1,0,0,1.0422,fixationPoint,568.0013,568.1006,568.1007,569.3252,35.84,10240,616.96,a,1,1.2045,,569.3253,569.5253,,,,,,,,42,-166,31,163,22,32,24,174,222,-167,-167,-20,-20,-17,-216,115,-17,75,-164,112,-125,-26,123,-76,73,270,180,270,180,360,360,180,270,90,180,270,,,,,,,,,,,569.5254,569.5256,,0,73,73,73,1,4,repeated,,,,,,,,,,,,,,,,,,,,,,,,,,,,,,,,,,,,,,,,,,,,,,,,,
,,21,6,${e://Field/PROLIFIC_PID,F,18,2023-11-03_16h41.18.213,MouseEye_CC,2023.2.2,Win32,60.0024001,1.28,,,1920,1080,48.708999999999996,4.84,"95.74, 112.33, 113.19, 121.28, 124.09, 139.19, 140.44",873.41,8.502187576,41.15058787,27.83653633,Failed,137.8544694,,,,,,,,,,,,,,,,,,,,,training,5,11,180,right,s,,,,,569.526,569.8911,35.84,2,-7,1,0,0,0.3649,fixationPoint,569.8911,569.9912,569.9913,572.4417,35.84,10240,616.96,s,1,2.4233,,572.4418,572.642,,,,,,,,7,66,211,-76,73,-174,162,-122,168,-20,-20,-70,-221,-167,-167,71,-212,163,-68,32,-113,124,170,27,172,360,90,180,360,180,90,270,180,360,90,270,,,,,,,,,,,572.6421,572.6423,,0,74,74,74,1,13,novel,,,,,,,,,,,,,,,,,,,,,,,,,,,,,,,,,,,,,,,,,,,,,,,,,
,,21,6,${e://Field/PROLIFIC_PID,F,18,2023-11-03_16h41.18.213,MouseEye_CC,2023.2.2,Win32,60.0024001,1.28,,,1920,1080,48.708999999999996,4.84,"95.74, 112.33, 113.19, 121.28, 124.09, 139.19, 140.44",873.41,8.502187576,41.15058787,27.83653633,Failed,137.8544694,,,,,,,,,,,,,,,,,,,,,training,5,12,180,right,s,,,,,572.6426,573.0587,35.84,2,-7,1,0,0,0.416,fixationPoint,573.0588,573.1587,573.1588,575.4256,35.84,10240,616.96,s,1,2.2405,,575.4257,575.6249,,,,,,,,4,-68,208,32,24,174,222,221,26,-116,-219,-220,-128,-124,-172,221,-172,80,-114,173,-170,-223,20,-28,20,360,90,180,270,270,270,360,90,90,90,90,,,,,,,,,,,575.6249,575.6252,,0,75,75,75,1,16,novel,,,,,,,,,,,,,,,,,,,,,,,,,,,,,,,,,,,,,,,,,,,,,,,,,
,,21,6,${e://Field/PROLIFIC_PID,F,18,2023-11-03_16h41.18.213,MouseEye_CC,2023.2.2,Win32,60.0024001,1.28,,,1920,1080,48.708999999999996,4.84,"95.74, 112.33, 113.19, 121.28, 124.09, 139.19, 140.44",873.41,8.502187576,41.15058787,27.83653633,Failed,137.8544694,,,,,,,,,,,,,,,,,,,,,training,5,13,0,left,a,,,,,575.6256,575.9674,35.84,2,-7,1,0,0,0.3418,fixationPoint,575.9675,576.0585,576.0586,577.8088,35.84,10240,616.96,a,1,1.7198,,577.8089,577.9966,,,,,,,,72,-164,-114,72,169,211,215,172,64,-20,220,-223,20,-66,174,32,-113,27,-211,174,-16,-20,-20,-220,-80,180,270,90,90,270,90,270,180,90,270,270,,,,,,,,,,,577.9967,577.997,,0,76,76,76,1,6,repeated,,,,,,,,,,,,,,,,,,,,,,,,,,,,,,,,,,,,,,,,,,,,,,,,,
,,21,6,${e://Field/PROLIFIC_PID,F,18,2023-11-03_16h41.18.213,MouseEye_CC,2023.2.2,Win32,60.0024001,1.28,,,1920,1080,48.708999999999996,4.84,"95.74, 112.33, 113.19, 121.28, 124.09, 139.19, 140.44",873.41,8.502187576,41.15058787,27.83653633,Failed,137.8544694,,,,,,,,,,,,,,,,,,,,,training,5,14,0,left,a,,,,,577.9974,578.3683,35.84,2,-7,1,0,0,0.3709,fixationPoint,578.3684,578.4586,578.4587,579.7591,35.84,10240,616.96,a,1,1.2746,,579.7593,579.9582,,,,,,,,59,174,-16,163,22,210,120,213,173,-219,220,-65,27,-127,21,-116,-219,-71,-32,-216,-224,28,-78,80,-114,90,360,90,90,180,90,270,90,360,90,90,,,,,,,,,,,579.9582,579.9585,,0,77,77,77,1,12,novel,,,,,,,,,,,,,,,,,,,,,,,,,,,,,,,,,,,,,,,,,,,,,,,,,
,,21,6,${e://Field/PROLIFIC_PID,F,18,2023-11-03_16h41.18.213,MouseEye_CC,2023.2.2,Win32,60.0024001,1.28,,,1920,1080,48.708999999999996,4.84,"95.74, 112.33, 113.19, 121.28, 124.09, 139.19, 140.44",873.41,8.502187576,41.15058787,27.83653633,Failed,137.8544694,,,,,,,,,,,,,,,,,,,,,training,5,15,180,right,s,,,,,579.959,580.2958,35.84,2,-7,1,0,0,0.3368,fixationPoint,580.296,580.3916,580.3916,581.6419,35.84,10240,616.96,s,1,1.2226,,581.642,581.8419,,,,,,,,87,75,-164,72,169,124,170,73,71,-122,219,-76,73,-26,123,-216,-224,-166,-76,-32,-112,208,-28,71,-212,270,90,270,90,90,90,180,270,360,90,360,,,,,,,,,,,581.8419,581.8422,,0,78,78,78,1,11,novel,,,,,,,,,,,,,,,,,,,,,,,,,,,,,,,,,,,,,,,,,,,,,,,,,
,,21,6,${e://Field/PROLIFIC_PID,F,18,2023-11-03_16h41.18.213,MouseEye_CC,2023.2.2,Win32,60.0024001,1.28,,,1920,1080,48.708999999999996,4.84,"95.74, 112.33, 113.19, 121.28, 124.09, 139.19, 140.44",873.41,8.502187576,41.15058787,27.83653633,Failed,137.8544694,,,,,,,,,,,,,,,,,,,,,training,5,16,0,left,a,,,,,581.8427,582.2347,35.84,2,-7,1,0,0,0.392,fixationPoint,582.2348,582.3248,582.3249,583.8348,35.84,10240,616.96,a,1,1.484,,583.8348,584.0339,,,,,,,,97,71,-212,211,215,124,170,32,24,-28,20,-122,219,-223,20,-75,-165,-220,-128,-220,-20,173,-170,112,-125,270,360,90,90,90,360,90,90,360,180,360,,,,,,,,,,,584.034,585.8417,space,0,79,79,79,1,8,repeated,1.7847,,,,,,,,,,,,,,,,,,,,,,,,,,,,,,,,,,,,,,,,,,,,,,,,
,,21,6,${e://Field/PROLIFIC_PID,F,18,2023-11-03_16h41.18.213,MouseEye_CC,2023.2.2,Win32,60.0024001,1.28,,,1920,1080,48.708999999999996,4.84,"95.74, 112.33, 113.19, 121.28, 124.09, 139.19, 140.44",873.41,8.502187576,41.15058787,27.83653633,Failed,137.8544694,,,,,,,,,,,,,,,,,,,,,training,6,1,180,right,s,,,,,585.8421,586.7744,35.84,2,-7,1,0,0,0.9322,fixationPoint,586.7744,586.8751,586.8752,589.5178,35.84,10240,616.96,s,1,2.6174,,589.5179,589.7172,,,,,,,,49,163,22,-127,21,-28,20,-32,72,-162,-215,-17,-216,-17,-70,80,-114,19,-169,221,-172,124,170,210,120,90,180,90,360,360,180,90,360,180,360,90,,,,,,,,,,,589.7174,589.7206,,0,80,80,80,1,1,repeated,,,,,,,,,,,,,,,,,,,,,,,,,,,,,,,,,,,,,,,,,,,,,,,,,
,,21,6,${e://Field/PROLIFIC_PID,F,18,2023-11-03_16h41.18.213,MouseEye_CC,2023.2.2,Win32,60.0024001,1.28,,,1920,1080,48.708999999999996,4.84,"95.74, 112.33, 113.19, 121.28, 124.09, 139.19, 140.44",873.41,8.502187576,41.15058787,27.83653633,Failed,137.8544694,,,,,,,,,,,,,,,,,,,,,training,6,2,0,left,a,,,,,589.7209,590.0087,35.84,2,-7,1,0,0,0.2878,fixationPoint,590.0089,590.1082,590.1083,590.9746,35.84,10240,616.96,a,1,0.8374,,590.9747,591.1667,,,,,,,,4,-68,208,221,26,170,112,116,209,-116,-219,-167,-167,-74,-124,213,-79,75,-164,173,-170,-223,117,-219,220,180,270,270,270,180,270,90,90,90,360,180,,,,,,,,,,,591.1668,591.1669,,0,81,81,81,1,16,novel,,,,,,,,,,,,,,,,,,,,,,,,,,,,,,,,,,,,,,,,,,,,,,,,,
,,21,6,${e://Field/PROLIFIC_PID,F,18,2023-11-03_16h41.18.213,MouseEye_CC,2023.2.2,Win32,60.0024001,1.28,,,1920,1080,48.708999999999996,4.84,"95.74, 112.33, 113.19, 121.28, 124.09, 139.19, 140.44",873.41,8.502187576,41.15058787,27.83653633,Failed,137.8544694,,,,,,,,,,,,,,,,,,,,,training,6,3,0,left,a,,,,,591.1673,591.4582,35.84,2,-7,1,0,0,0.2908,fixationPoint,591.4582,591.5503,591.5504,592.6753,35.84,10240,616.96,a,1,1.1028,,592.6754,592.8837,,,,,,,,42,-166,31,163,22,32,24,174,222,-167,-167,-20,-20,-17,-216,115,-17,75,-164,112,-125,-26,123,-76,73,180,180,180,270,90,90,180,90,180,270,180,,,,,,,,,,,592.8838,592.8839,,0,82,82,82,1,4,repeated,,,,,,,,,,,,,,,,,,,,,,,,,,,,,,,,,,,,,,,,,,,,,,,,,
,,21,6,${e://Field/PROLIFIC_PID,F,18,2023-11-03_16h41.18.213,MouseEye_CC,2023.2.2,Win32,60.0024001,1.28,,,1920,1080,48.708999999999996,4.84,"95.74, 112.33, 113.19, 121.28, 124.09, 139.19, 140.44",873.41,8.502187576,41.15058787,27.83653633,Failed,137.8544694,,,,,,,,,,,,,,,,,,,,,training,6,4,0,left,a,,,,,592.8843,593.1845,35.84,2,-7,1,0,0,0.3001,fixationPoint,593.1845,593.2753,593.2753,594.1348,35.84,10240,616.96,a,1,0.8343,,594.1349,594.3243,,,,,,,,52,-168,-29,211,215,72,169,32,24,-127,21,-20,220,-66,174,19,-169,213,-79,24,-19,-71,-32,-75,-165,180,270,90,360,180,270,180,270,180,90,270,,,,,,,,,,,594.3245,594.3246,,0,83,83,83,1,9,novel,,,,,,,,,,,,,,,,,,,,,,,,,,,,,,,,,,,,,,,,,,,,,,,,,
,,21,6,${e://Field/PROLIFIC_PID,F,18,2023-11-03_16h41.18.213,MouseEye_CC,2023.2.2,Win32,60.0024001,1.28,,,1920,1080,48.708999999999996,4.84,"95.74, 112.33, 113.19, 121.28, 124.09, 139.19, 140.44",873.41,8.502187576,41.15058787,27.83653633,Failed,137.8544694,,,,,,,,,,,,,,,,,,,,,training,6,5,0,left,a,,,,,594.3251,594.691,35.84,2,-7,1,0,0,0.3658,fixationPoint,594.6912,594.7909,594.791,596.2015,35.84,10240,616.96,a,1,1.3842,,596.2015,596.3913,,,,,,,,87,75,-164,170,112,21,65,221,26,-66,174,-76,73,-219,220,-71,-32,-121,-121,-220,-20,112,-70,173,-170,90,90,270,180,90,360,180,90,90,90,360,,,,,,,,,,,596.3914,596.3916,,0,84,84,84,1,11,novel,,,,,,,,,,,,,,,,,,,,,,,,,,,,,,,,,,,,,,,,,,,,,,,,,
,,21,6,${e://Field/PROLIFIC_PID,F,18,2023-11-03_16h41.18.213,MouseEye_CC,2023.2.2,Win32,60.0024001,1.28,,,1920,1080,48.708999999999996,4.84,"95.74, 112.33, 113.19, 121.28, 124.09, 139.19, 140.44",873.41,8.502187576,41.15058787,27.83653633,Failed,137.8544694,,,,,,,,,,,,,,,,,,,,,training,6,6,180,right,s,,,,,596.392,596.7415,35.84,2,-7,1,0,0,0.3493,fixationPoint,596.7416,596.8417,596.8418,597.7183,35.84,10240,616.96,s,1,0.851,,597.7184,597.917,,,,,,,,72,-164,-114,72,169,211,215,172,64,-20,220,-223,20,-66,174,32,-113,27,-211,174,-16,-20,-20,-220,-80,360,90,360,90,90,360,90,180,360,270,180,,,,,,,,,,,597.917,597.9172,,0,85,85,85,1,6,repeated,,,,,,,,,,,,,,,,,,,,,,,,,,,,,,,,,,,,,,,,,,,,,,,,,
,,21,6,${e://Field/PROLIFIC_PID,F,18,2023-11-03_16h41.18.213,MouseEye_CC,2023.2.2,Win32,60.0024001,1.28,,,1920,1080,48.708999999999996,4.84,"95.74, 112.33, 113.19, 121.28, 124.09, 139.19, 140.44",873.41,8.502187576,41.15058787,27.83653633,Failed,137.8544694,,,,,,,,,,,,,,,,,,,,,training,6,7,180,right,s,,,,,597.9177,598.2593,35.84,2,-7,1,0,0,0.3415,fixationPoint,598.2594,598.3584,598.3586,599.9495,35.84,10240,616.96,s,1,1.5656,,599.9496,600.1421,,,,,,,,7,66,211,-122,168,-219,220,-20,220,-79,-79,-164,-114,-166,-76,75,-164,115,-17,75,-71,76,32,32,120,180,360,270,360,90,90,270,270,270,180,270,,,,,,,,,,,600.1421,600.1423,,0,86,86,86,1,13,novel,,,,,,,,,,,,,,,,,,,,,,,,,,,,,,,,,,,,,,,,,,,,,,,,,
,,21,6,${e://Field/PROLIFIC_PID,F,18,2023-11-03_16h41.18.213,MouseEye_CC,2023.2.2,Win32,60.0024001,1.28,,,1920,1080,48.708999999999996,4.84,"95.74, 112.33, 113.19, 121.28, 124.09, 139.19, 140.44",873.41,8.502187576,41.15058787,27.83653633,Failed,137.8544694,,,,,,,,,,,,,,,,,,,,,training,6,8,0,left,a,,,,,600.1427,600.4586,35.84,2,-7,1,0,0,0.3157,fixationPoint,600.4586,600.5581,600.5582,602.8678,35.84,10240,616.96,a,1,2.284,,602.8679,603.0669,,,,,,,,97,71,-212,211,215,124,170,32,24,-28,20,-122,219,-223,20,-75,-165,-220,-128,-220,-20,173,-170,112,-125,360,90,360,270,360,270,270,90,270,360,270,,,,,,,,,,,603.067,603.0672,,0,87,87,87,1,8,repeated,,,,,,,,,,,,,,,,,,,,,,,,,,,,,,,,,,,,,,,,,,,,,,,,,
,,21,6,${e://Field/PROLIFIC_PID,F,18,2023-11-03_16h41.18.213,MouseEye_CC,2023.2.2,Win32,60.0024001,1.28,,,1920,1080,48.708999999999996,4.84,"95.74, 112.33, 113.19, 121.28, 124.09, 139.19, 140.44",873.41,8.502187576,41.15058787,27.83653633,Failed,137.8544694,,,,,,,,,,,,,,,,,,,,,training,6,9,0,left,a,,,,,603.0675,603.5506,35.84,2,-7,1,0,0,0.483,fixationPoint,603.5506,603.6417,603.6417,604.5512,35.84,10240,616.96,a,1,0.8841,,604.5512,604.7419,,,,,,,,22,-162,114,21,65,112,128,160,172,-167,-167,-71,-32,-75,-165,112,-125,173,-170,75,-71,-20,220,-73,124,270,360,360,360,180,180,360,90,180,180,360,,,,,,,,,,,604.742,604.7422,,0,88,88,88,1,15,novel,,,,,,,,,,,,,,,,,,,,,,,,,,,,,,,,,,,,,,,,,,,,,,,,,
,,21,6,${e://Field/PROLIFIC_PID,F,18,2023-11-03_16h41.18.213,MouseEye_CC,2023.2.2,Win32,60.0024001,1.28,,,1920,1080,48.708999999999996,4.84,"95.74, 112.33, 113.19, 121.28, 124.09, 139.19, 140.44",873.41,8.502187576,41.15058787,27.83653633,Failed,137.8544694,,,,,,,,,,,,,,,,,,,,,training,6,10,180,right,s,,,,,604.7426,605.2083,35.84,2,-7,1,0,0,0.4655,fixationPoint,605.2084,605.3084,605.3085,606.9013,35.84,10240,616.96,s,1,1.5674,,606.9013,607.0916,,,,,,,,29,170,112,-32,72,-166,31,-76,73,-162,-215,-17,-70,-166,-76,75,-164,24,-19,115,-17,72,169,66,211,360,90,360,90,270,180,180,180,180,180,270,,,,,,,,,,,607.0916,607.0919,,0,89,89,89,1,14,novel,,,,,,,,,,,,,,,,,,,,,,,,,,,,,,,,,,,,,,,,,,,,,,,,,
,,21,6,${e://Field/PROLIFIC_PID,F,18,2023-11-03_16h41.18.213,MouseEye_CC,2023.2.2,Win32,60.0024001,1.28,,,1920,1080,48.708999999999996,4.84,"95.74, 112.33, 113.19, 121.28, 124.09, 139.19, 140.44",873.41,8.502187576,41.15058787,27.83653633,Failed,137.8544694,,,,,,,,,,,,,,,,,,,,,training,6,11,180,right,s,,,,,607.0923,607.4581,35.84,2,-7,1,0,0,0.3657,fixationPoint,607.4582,607.5582,607.5582,608.9916,35.84,10240,616.96,s,1,1.4042,,608.9917,609.1919,,,,,,,,59,174,-16,210,120,163,22,112,128,-73,124,-127,21,-162,114,-17,-216,-121,-121,-20,-20,173,-170,71,-212,360,270,180,360,270,90,270,360,270,90,270,,,,,,,,,,,609.192,609.1923,,0,90,90,90,1,12,novel,,,,,,,,,,,,,,,,,,,,,,,,,,,,,,,,,,,,,,,,,,,,,,,,,
,,21,6,${e://Field/PROLIFIC_PID,F,18,2023-11-03_16h41.18.213,MouseEye_CC,2023.2.2,Win32,60.0024001,1.28,,,1920,1080,48.708999999999996,4.84,"95.74, 112.33, 113.19, 121.28, 124.09, 139.19, 140.44",873.41,8.502187576,41.15058787,27.83653633,Failed,137.8544694,,,,,,,,,,,,,,,,,,,,,training,6,12,180,right,s,,,,,609.1927,609.6413,35.84,2,-7,1,0,0,0.4484,fixationPoint,609.6414,609.7411,609.7411,611.1346,35.84,10240,616.96,s,1,1.3674,,611.1347,611.3246,,,,,,,,79,164,-113,21,65,210,120,73,126,-76,73,-161,70,-124,122,-166,-76,-124,-172,-119,-79,112,-70,175,-224,270,270,180,360,180,360,90,270,360,360,360,,,,,,,,,,,611.3248,611.3251,,0,91,91,91,1,7,repeated,,,,,,,,,,,,,,,,,,,,,,,,,,,,,,,,,,,,,,,,,,,,,,,,,
,,21,6,${e://Field/PROLIFIC_PID,F,18,2023-11-03_16h41.18.213,MouseEye_CC,2023.2.2,Win32,60.0024001,1.28,,,1920,1080,48.708999999999996,4.84,"95.74, 112.33, 113.19, 121.28, 124.09, 139.19, 140.44",873.41,8.502187576,41.15058787,27.83653633,Failed,137.8544694,,,,,,,,,,,,,,,,,,,,,training,6,13,180,right,s,,,,,611.3255,611.7252,35.84,2,-7,1,0,0,0.3995,fixationPoint,611.7253,611.8247,611.8247,612.9413,35.84,10240,616.96,s,1,1.0894,,612.9413,613.1338,,,,,,,,14,-66,174,27,172,211,215,160,172,-20,-20,-220,-20,-79,-79,208,-220,80,-26,28,-78,-124,122,-120,77,270,180,90,270,90,270,180,360,360,270,360,,,,,,,,,,,613.1338,613.134,,0,92,92,92,1,3,repeated,,,,,,,,,,,,,,,,,,,,,,,,,,,,,,,,,,,,,,,,,,,,,,,,,
,,21,6,${e://Field/PROLIFIC_PID,F,18,2023-11-03_16h41.18.213,MouseEye_CC,2023.2.2,Win32,60.0024001,1.28,,,1920,1080,48.708999999999996,4.84,"95.74, 112.33, 113.19, 121.28, 124.09, 139.19, 140.44",873.41,8.502187576,41.15058787,27.83653633,Failed,137.8544694,,,,,,,,,,,,,,,,,,,,,training,6,14,180,right,s,,,,,613.1344,613.4919,35.84,2,-7,1,0,0,0.3572,fixationPoint,613.492,613.5911,613.5911,615.2744,35.84,10240,616.96,s,1,1.6512,,615.2745,615.4751,,,,,,,,94,-70,-221,213,173,27,172,120,20,-122,219,-174,162,-73,124,173,-170,80,-26,213,-79,-74,-124,-116,-219,90,270,270,270,360,180,360,90,270,270,270,,,,,,,,,,,615.4752,615.4754,,0,93,93,93,1,5,repeated,,,,,,,,,,,,,,,,,,,,,,,,,,,,,,,,,,,,,,,,,,,,,,,,,
,,21,6,${e://Field/PROLIFIC_PID,F,18,2023-11-03_16h41.18.213,MouseEye_CC,2023.2.2,Win32,60.0024001,1.28,,,1920,1080,48.708999999999996,4.84,"95.74, 112.33, 113.19, 121.28, 124.09, 139.19, 140.44",873.41,8.502187576,41.15058787,27.83653633,Failed,137.8544694,,,,,,,,,,,,,,,,,,,,,training,6,15,0,left,a,,,,,615.4758,615.8174,35.84,2,-7,1,0,0,0.3414,fixationPoint,615.8175,615.9078,615.9079,617.0847,35.84,10240,616.96,a,1,1.1508,,617.0847,617.2838,,,,,,,,84,-75,-165,116,209,221,80,76,32,-76,73,-127,21,-73,124,213,-79,28,-78,220,-120,-79,-79,-216,-224,270,90,180,90,90,90,270,360,90,180,90,,,,,,,,,,,617.2838,617.284,,0,94,94,94,1,10,novel,,,,,,,,,,,,,,,,,,,,,,,,,,,,,,,,,,,,,,,,,,,,,,,,,
,,21,6,${e://Field/PROLIFIC_PID,F,18,2023-11-03_16h41.18.213,MouseEye_CC,2023.2.2,Win32,60.0024001,1.28,,,1920,1080,48.708999999999996,4.84,"95.74, 112.33, 113.19, 121.28, 124.09, 139.19, 140.44",873.41,8.502187576,41.15058787,27.83653633,Failed,137.8544694,,,,,,,,,,,,,,,,,,,,,training,6,16,0,left,a,,,,,617.2845,617.6676,35.84,2,-7,1,0,0,0.383,fixationPoint,617.6676,617.7576,617.7577,619.3845,35.84,10240,616.96,a,1,1.6008,,619.3846,619.5835,,,,,,,,17,72,169,-161,70,-166,31,-223,20,-220,-128,-17,-70,-70,-221,24,-19,80,-26,163,-68,211,215,221,26,270,90,90,270,180,360,180,90,360,180,90,,,,,,,,,,,619.5835,620.7251,space,0,95,95,95,1,2,repeated,1.1177,,,,,,,,,,,,,,,,,,,,,,,,,,,,,,,,,,,,,,,,,,,,,,,,
,,21,6,${e://Field/PROLIFIC_PID,F,18,2023-11-03_16h41.18.213,MouseEye_CC,2023.2.2,Win32,60.0024001,1.28,,,1920,1080,48.708999999999996,4.84,"95.74, 112.33, 113.19, 121.28, 124.09, 139.19, 140.44",873.41,8.502187576,41.15058787,27.83653633,Failed,137.8544694,,,,,,,,,,,,,,,,,,,,,training,7,1,180,right,s,,,,,620.7255,621.7916,35.84,2,-7,1,0,0,1.0661,fixationPoint,621.7917,621.8918,621.8918,624.4079,35.84,10240,616.96,s,1,2.4875,,624.408,624.617,,,,,,,,87,75,-164,73,126,213,173,124,170,-161,70,-76,73,-68,208,-32,-112,-32,-172,-124,-172,71,-212,115,-17,360,270,360,180,360,270,180,180,180,360,90,,,,,,,,,,,624.617,624.6199,,0,96,96,96,1,11,novel,,,,,,,,,,,,,,,,,,,,,,,,,,,,,,,,,,,,,,,,,,,,,,,,,
,,21,6,${e://Field/PROLIFIC_PID,F,18,2023-11-03_16h41.18.213,MouseEye_CC,2023.2.2,Win32,60.0024001,1.28,,,1920,1080,48.708999999999996,4.84,"95.74, 112.33, 113.19, 121.28, 124.09, 139.19, 140.44",873.41,8.502187576,41.15058787,27.83653633,Failed,137.8544694,,,,,,,,,,,,,,,,,,,,,training,7,2,180,right,s,,,,,624.6202,624.925,35.84,2,-7,1,0,0,0.3047,fixationPoint,624.9251,625.025,625.0251,626.1512,35.84,10240,616.96,s,1,1.1006,,626.1512,626.3503,,,,,,,,49,163,22,-127,21,-28,20,-32,72,-162,-215,-17,-216,-17,-70,80,-114,19,-169,221,-172,124,170,210,120,270,360,180,90,360,90,180,90,270,270,360,,,,,,,,,,,626.3504,626.3506,,0,97,97,97,1,1,repeated,,,,,,,,,,,,,,,,,,,,,,,,,,,,,,,,,,,,,,,,,,,,,,,,,
,,21,6,${e://Field/PROLIFIC_PID,F,18,2023-11-03_16h41.18.213,MouseEye_CC,2023.2.2,Win32,60.0024001,1.28,,,1920,1080,48.708999999999996,4.84,"95.74, 112.33, 113.19, 121.28, 124.09, 139.19, 140.44",873.41,8.502187576,41.15058787,27.83653633,Failed,137.8544694,,,,,,,,,,,,,,,,,,,,,training,7,3,0,left,a,,,,,626.3509,626.6245,35.84,2,-7,1,0,0,0.2733,fixationPoint,626.6245,626.7243,626.7244,628.5343,35.84,10240,616.96,a,1,1.7839,,628.5344,628.7244,,,,,,,,59,174,-16,124,170,119,75,160,172,-213,64,-127,21,-219,220,-79,-79,-32,-172,-32,-112,28,-78,32,-113,180,180,270,270,270,360,360,180,360,180,90,,,,,,,,,,,628.7244,628.7246,,0,98,98,98,1,12,novel,,,,,,,,,,,,,,,,,,,,,,,,,,,,,,,,,,,,,,,,,,,,,,,,,
,,21,6,${e://Field/PROLIFIC_PID,F,18,2023-11-03_16h41.18.213,MouseEye_CC,2023.2.2,Win32,60.0024001,1.28,,,1920,1080,48.708999999999996,4.84,"95.74, 112.33, 113.19, 121.28, 124.09, 139.19, 140.44",873.41,8.502187576,41.15058787,27.83653633,Failed,137.8544694,,,,,,,,,,,,,,,,,,,,,training,7,4,180,right,s,,,,,628.725,628.9908,35.84,2,-7,1,0,0,0.2656,fixationPoint,628.9909,629.0836,629.0836,629.9584,35.84,10240,616.96,s,1,0.8568,,629.9584,630.1668,,,,,,,,29,170,112,-120,77,-219,220,-169,216,-119,-79,-220,-20,-32,-172,115,-17,163,-68,208,-28,72,169,163,22,360,270,360,90,180,270,90,90,180,270,90,,,,,,,,,,,630.1668,630.1671,,0,99,99,99,1,14,novel,,,,,,,,,,,,,,,,,,,,,,,,,,,,,,,,,,,,,,,,,,,,,,,,,
,,21,6,${e://Field/PROLIFIC_PID,F,18,2023-11-03_16h41.18.213,MouseEye_CC,2023.2.2,Win32,60.0024001,1.28,,,1920,1080,48.708999999999996,4.84,"95.74, 112.33, 113.19, 121.28, 124.09, 139.19, 140.44",873.41,8.502187576,41.15058787,27.83653633,Failed,137.8544694,,,,,,,,,,,,,,,,,,,,,training,7,5,0,left,a,,,,,630.1675,630.5415,35.84,2,-7,1,0,0,0.374,fixationPoint,630.5416,630.6334,630.6334,631.4509,35.84,10240,616.96,a,1,0.8007,,631.451,631.6411,,,,,,,,14,-66,174,27,172,211,215,160,172,-20,-20,-220,-20,-79,-79,208,-220,80,-26,28,-78,-124,122,-120,77,270,360,270,360,90,90,270,180,180,270,90,,,,,,,,,,,631.6412,631.6414,,0,100,100,100,1,3,repeated,,,,,,,,,,,,,,,,,,,,,,,,,,,,,,,,,,,,,,,,,,,,,,,,,
,,21,6,${e://Field/PROLIFIC_PID,F,18,2023-11-03_16h41.18.213,MouseEye_CC,2023.2.2,Win32,60.0024001,1.28,,,1920,1080,48.708999999999996,4.84,"95.74, 112.33, 113.19, 121.28, 124.09, 139.19, 140.44",873.41,8.502187576,41.15058787,27.83653633,Failed,137.8544694,,,,,,,,,,,,,,,,,,,,,training,7,6,0,left,a,,,,,631.6421,632.0175,35.84,2,-7,1,0,0,0.3753,fixationPoint,632.0175,632.1117,632.1117,632.9176,35.84,10240,616.96,a,1,0.7842,,632.9176,633.1168,,,,,,,,4,-68,208,116,209,76,32,27,172,-79,-79,-74,-124,-220,-80,19,-169,175,-224,208,-28,-73,124,-127,21,360,180,270,270,270,180,180,270,180,360,270,,,,,,,,,,,633.1168,633.117,,0,101,101,101,1,16,novel,,,,,,,,,,,,,,,,,,,,,,,,,,,,,,,,,,,,,,,,,,,,,,,,,
,,21,6,${e://Field/PROLIFIC_PID,F,18,2023-11-03_16h41.18.213,MouseEye_CC,2023.2.2,Win32,60.0024001,1.28,,,1920,1080,48.708999999999996,4.84,"95.74, 112.33, 113.19, 121.28, 124.09, 139.19, 140.44",873.41,8.502187576,41.15058787,27.83653633,Failed,137.8544694,,,,,,,,,,,,,,,,,,,,,training,7,7,180,right,s,,,,,633.1174,633.5581,35.84,2,-7,1,0,0,0.4404,fixationPoint,633.5582,633.6583,633.6585,634.525,35.84,10240,616.96,s,1,0.8402,,634.5251,634.7165,,,,,,,,7,66,211,-213,64,-32,72,-223,117,-167,-167,-220,-128,-168,-29,213,-79,112,-125,24,-19,213,173,76,32,270,270,270,270,180,90,270,180,270,90,270,,,,,,,,,,,634.7166,634.7167,,0,102,102,102,1,13,novel,,,,,,,,,,,,,,,,,,,,,,,,,,,,,,,,,,,,,,,,,,,,,,,,,
,,21,6,${e://Field/PROLIFIC_PID,F,18,2023-11-03_16h41.18.213,MouseEye_CC,2023.2.2,Win32,60.0024001,1.28,,,1920,1080,48.708999999999996,4.84,"95.74, 112.33, 113.19, 121.28, 124.09, 139.19, 140.44",873.41,8.502187576,41.15058787,27.83653633,Failed,137.8544694,,,,,,,,,,,,,,,,,,,,,training,7,8,180,right,s,,,,,634.7171,635.1826,35.84,2,-7,1,0,0,0.4652,fixationPoint,635.1826,635.2747,635.2748,636.8582,35.84,10240,616.96,s,1,1.5522,,636.8583,637.0501,,,,,,,,84,-75,-165,18,215,76,32,116,209,-73,124,-66,174,-223,20,164,-113,80,-114,27,-211,-71,-32,-32,-172,180,270,90,90,360,360,270,360,270,360,270,,,,,,,,,,,637.0502,637.0504,,0,103,103,103,1,10,novel,,,,,,,,,,,,,,,,,,,,,,,,,,,,,,,,,,,,,,,,,,,,,,,,,
,,21,6,${e://Field/PROLIFIC_PID,F,18,2023-11-03_16h41.18.213,MouseEye_CC,2023.2.2,Win32,60.0024001,1.28,,,1920,1080,48.708999999999996,4.84,"95.74, 112.33, 113.19, 121.28, 124.09, 139.19, 140.44",873.41,8.502187576,41.15058787,27.83653633,Failed,137.8544694,,,,,,,,,,,,,,,,,,,,,training,7,9,0,left,a,,,,,637.0507,637.4178,35.84,2,-7,1,0,0,0.367,fixationPoint,637.4178,637.5074,637.5074,638.3508,35.84,10240,616.96,a,1,0.8173,,638.3509,638.5503,,,,,,,,22,-162,114,174,222,73,71,172,64,-32,-172,-220,-128,-124,-172,173,-170,28,-78,164,-113,-222,168,-76,73,270,270,180,90,180,270,90,270,270,90,360,,,,,,,,,,,638.5503,638.5505,,0,104,104,104,1,15,novel,,,,,,,,,,,,,,,,,,,,,,,,,,,,,,,,,,,,,,,,,,,,,,,,,
,,21,6,${e://Field/PROLIFIC_PID,F,18,2023-11-03_16h41.18.213,MouseEye_CC,2023.2.2,Win32,60.0024001,1.28,,,1920,1080,48.708999999999996,4.84,"95.74, 112.33, 113.19, 121.28, 124.09, 139.19, 140.44",873.41,8.502187576,41.15058787,27.83653633,Failed,137.8544694,,,,,,,,,,,,,,,,,,,,,training,7,10,0,left,a,,,,,638.5508,639.1509,35.84,2,-7,1,0,0,0.5999,fixationPoint,639.1509,639.2502,639.2502,640.6008,35.84,10240,616.96,a,1,1.3338,,640.6009,640.7917,,,,,,,,94,-70,-221,213,173,27,172,120,20,-122,219,-174,162,-73,124,173,-170,80,-26,213,-79,-74,-124,-116,-219,360,180,360,90,180,270,180,90,360,90,180,,,,,,,,,,,640.7917,640.792,,0,105,105,105,1,5,repeated,,,,,,,,,,,,,,,,,,,,,,,,,,,,,,,,,,,,,,,,,,,,,,,,,
,,21,6,${e://Field/PROLIFIC_PID,F,18,2023-11-03_16h41.18.213,MouseEye_CC,2023.2.2,Win32,60.0024001,1.28,,,1920,1080,48.708999999999996,4.84,"95.74, 112.33, 113.19, 121.28, 124.09, 139.19, 140.44",873.41,8.502187576,41.15058787,27.83653633,Failed,137.8544694,,,,,,,,,,,,,,,,,,,,,training,7,11,180,right,s,,,,,640.7924,641.384,35.84,2,-7,1,0,0,0.5915,fixationPoint,641.384,641.4749,641.475,642.7677,35.84,10240,616.96,s,1,1.2674,,642.7677,642.9665,,,,,,,,17,72,169,-161,70,-166,31,-223,20,-220,-128,-17,-70,-70,-221,24,-19,80,-26,163,-68,211,215,221,26,90,360,270,90,360,270,180,90,270,90,90,,,,,,,,,,,642.9666,642.9668,,0,106,106,106,1,2,repeated,,,,,,,,,,,,,,,,,,,,,,,,,,,,,,,,,,,,,,,,,,,,,,,,,
,,21,6,${e://Field/PROLIFIC_PID,F,18,2023-11-03_16h41.18.213,MouseEye_CC,2023.2.2,Win32,60.0024001,1.28,,,1920,1080,48.708999999999996,4.84,"95.74, 112.33, 113.19, 121.28, 124.09, 139.19, 140.44",873.41,8.502187576,41.15058787,27.83653633,Failed,137.8544694,,,,,,,,,,,,,,,,,,,,,training,7,12,0,left,a,,,,,642.9672,643.4416,35.84,2,-7,1,0,0,0.4742,fixationPoint,643.4416,643.5418,643.5418,644.7077,35.84,10240,616.96,a,1,1.1391,,644.7077,644.917,,,,,,,,79,164,-113,21,65,210,120,73,126,-76,73,-161,70,-124,122,-166,-76,-124,-172,-119,-79,112,-70,175,-224,180,180,270,270,180,360,180,180,360,270,90,,,,,,,,,,,644.917,644.9171,,0,107,107,107,1,7,repeated,,,,,,,,,,,,,,,,,,,,,,,,,,,,,,,,,,,,,,,,,,,,,,,,,
,,21,6,${e://Field/PROLIFIC_PID,F,18,2023-11-03_16h41.18.213,MouseEye_CC,2023.2.2,Win32,60.0024001,1.28,,,1920,1080,48.708999999999996,4.84,"95.74, 112.33, 113.19, 121.28, 124.09, 139.19, 140.44",873.41,8.502187576,41.15058787,27.83653633,Failed,137.8544694,,,,,,,,,,,,,,,,,,,,,training,7,13,180,right,s,,,,,644.9176,645.5342,35.84,2,-7,1,0,0,0.6164,fixationPoint,645.5342,645.6243,645.6245,647.4177,35.84,10240,616.96,s,1,1.7675,,647.4178,647.6168,,,,,,,,52,-168,-29,172,64,213,173,124,170,-223,20,-66,174,-28,20,75,-164,28,-78,112,-70,-20,-20,-166,-76,270,90,270,270,90,180,270,270,90,180,360,,,,,,,,,,,647.6168,647.6171,,0,108,108,108,1,9,novel,,,,,,,,,,,,,,,,,,,,,,,,,,,,,,,,,,,,,,,,,,,,,,,,,
,,21,6,${e://Field/PROLIFIC_PID,F,18,2023-11-03_16h41.18.213,MouseEye_CC,2023.2.2,Win32,60.0024001,1.28,,,1920,1080,48.708999999999996,4.84,"95.74, 112.33, 113.19, 121.28, 124.09, 139.19, 140.44",873.41,8.502187576,41.15058787,27.83653633,Failed,137.8544694,,,,,,,,,,,,,,,,,,,,,training,7,14,0,left,a,,,,,647.6176,648.1086,35.84,2,-7,1,0,0,0.4909,fixationPoint,648.1086,648.2076,648.2076,649.8622,35.84,10240,616.96,a,1,1.6287,,649.8623,650.0581,,,,,,,,97,71,-212,211,215,124,170,32,24,-28,20,-122,219,-223,20,-75,-165,-220,-128,-220,-20,173,-170,112,-125,360,360,180,270,270,270,90,90,90,360,180,,,,,,,,,,,650.0582,650.0584,,0,109,109,109,1,8,repeated,,,,,,,,,,,,,,,,,,,,,,,,,,,,,,,,,,,,,,,,,,,,,,,,,
,,21,6,${e://Field/PROLIFIC_PID,F,18,2023-11-03_16h41.18.213,MouseEye_CC,2023.2.2,Win32,60.0024001,1.28,,,1920,1080,48.708999999999996,4.84,"95.74, 112.33, 113.19, 121.28, 124.09, 139.19, 140.44",873.41,8.502187576,41.15058787,27.83653633,Failed,137.8544694,,,,,,,,,,,,,,,,,,,,,training,7,15,0,left,a,,,,,650.0588,650.474,35.84,2,-7,1,0,0,0.4149,fixationPoint,650.4741,650.5744,650.5745,651.4249,35.84,10240,616.96,a,1,0.8214,,651.4249,651.6282,,,,,,,,42,-166,31,163,22,32,24,174,222,-167,-167,-20,-20,-17,-216,115,-17,75,-164,112,-125,-26,123,-76,73,270,270,360,360,180,270,270,180,180,90,180,,,,,,,,,,,651.6282,651.6285,,0,110,110,110,1,4,repeated,,,,,,,,,,,,,,,,,,,,,,,,,,,,,,,,,,,,,,,,,,,,,,,,,
,,21,6,${e://Field/PROLIFIC_PID,F,18,2023-11-03_16h41.18.213,MouseEye_CC,2023.2.2,Win32,60.0024001,1.28,,,1920,1080,48.708999999999996,4.84,"95.74, 112.33, 113.19, 121.28, 124.09, 139.19, 140.44",873.41,8.502187576,41.15058787,27.83653633,Failed,137.8544694,,,,,,,,,,,,,,,,,,,,,training,7,16,180,right,s,,,,,651.6289,652.158,35.84,2,-7,1,0,0,0.529,fixationPoint,652.158,652.2584,652.2585,653.4676,35.84,10240,616.96,s,1,1.1838,,653.4676,653.6574,,,,,,,,72,-164,-114,72,169,211,215,172,64,-20,220,-223,20,-66,174,32,-113,27,-211,174,-16,-20,-20,-220,-80,180,360,180,270,270,180,90,180,360,360,90,,,,,,,,,,,653.6574,661.8755,space,0,111,111,111,1,6,repeated,8.1864,,,,,,,,,,,,,,,,,,,,,,,,,,,,,,,,,,,,,,,,,,,,,,,,
,,21,6,${e://Field/PROLIFIC_PID,F,18,2023-11-03_16h41.18.213,MouseEye_CC,2023.2.2,Win32,60.0024001,1.28,,,1920,1080,48.708999999999996,4.84,"95.74, 112.33, 113.19, 121.28, 124.09, 139.19, 140.44",873.41,8.502187576,41.15058787,27.83653633,Failed,137.8544694,,,,,,,,,,,,,,,,,,,,,training,8,1,180,right,s,,,,,661.8836,663.2339,35.84,2,-7,1,0,0,1.3502,fixationPoint,663.234,663.3253,663.3254,664.9745,35.84,10240,616.96,s,1,1.6214,,664.9747,665.1748,,,,,,,,49,163,22,-127,21,-28,20,-32,72,-162,-215,-17,-216,-17,-70,80,-114,19,-169,221,-172,124,170,210,120,360,270,90,360,90,90,90,360,180,180,360,,,,,,,,,,,665.1749,665.178,,0,112,112,112,1,1,repeated,,,,,,,,,,,,,,,,,,,,,,,,,,,,,,,,,,,,,,,,,,,,,,,,,
,,21,6,${e://Field/PROLIFIC_PID,F,18,2023-11-03_16h41.18.213,MouseEye_CC,2023.2.2,Win32,60.0024001,1.28,,,1920,1080,48.708999999999996,4.84,"95.74, 112.33, 113.19, 121.28, 124.09, 139.19, 140.44",873.41,8.502187576,41.15058787,27.83653633,Failed,137.8544694,,,,,,,,,,,,,,,,,,,,,training,8,2,0,left,a,,,,,665.1784,665.541,35.84,2,-7,1,0,0,0.3624,fixationPoint,665.5411,665.6413,665.6414,667.2333,35.84,10240,616.96,a,1,1.5665,,667.2334,667.4239,,,,,,,,94,-70,-221,213,173,27,172,120,20,-122,219,-174,162,-73,124,173,-170,80,-26,213,-79,-74,-124,-116,-219,360,90,180,360,180,180,180,360,270,180,180,,,,,,,,,,,667.4239,667.4242,,0,113,113,113,1,5,repeated,,,,,,,,,,,,,,,,,,,,,,,,,,,,,,,,,,,,,,,,,,,,,,,,,
,,21,6,${e://Field/PROLIFIC_PID,F,18,2023-11-03_16h41.18.213,MouseEye_CC,2023.2.2,Win32,60.0024001,1.28,,,1920,1080,48.708999999999996,4.84,"95.74, 112.33, 113.19, 121.28, 124.09, 139.19, 140.44",873.41,8.502187576,41.15058787,27.83653633,Failed,137.8544694,,,,,,,,,,,,,,,,,,,,,training,8,3,0,left,a,,,,,667.4251,667.7741,35.84,2,-7,1,0,0,0.3489,fixationPoint,667.7743,667.8744,667.8744,668.758,35.84,10240,616.96,a,1,0.8566,,668.758,668.95,,,,,,,,29,170,112,-162,114,-166,31,-65,27,-17,-70,-220,-128,-119,-79,112,-70,175,-224,32,-113,120,20,32,120,360,360,270,360,270,270,360,90,180,270,90,,,,,,,,,,,668.95,668.9502,,0,114,114,114,1,14,novel,,,,,,,,,,,,,,,,,,,,,,,,,,,,,,,,,,,,,,,,,,,,,,,,,
,,21,6,${e://Field/PROLIFIC_PID,F,18,2023-11-03_16h41.18.213,MouseEye_CC,2023.2.2,Win32,60.0024001,1.28,,,1920,1080,48.708999999999996,4.84,"95.74, 112.33, 113.19, 121.28, 124.09, 139.19, 140.44",873.41,8.502187576,41.15058787,27.83653633,Failed,137.8544694,,,,,,,,,,,,,,,,,,,,,training,8,4,0,left,a,,,,,668.9506,669.374,35.84,2,-7,1,0,0,0.4233,fixationPoint,669.3742,669.4666,669.4667,671.3513,35.84,10240,616.96,a,1,1.8677,,671.3513,671.5416,,,,,,,,72,-164,-114,72,169,211,215,172,64,-20,220,-223,20,-66,174,32,-113,27,-211,174,-16,-20,-20,-220,-80,180,90,180,180,90,90,180,180,180,360,180,,,,,,,,,,,671.5416,671.5419,,0,115,115,115,1,6,repeated,,,,,,,,,,,,,,,,,,,,,,,,,,,,,,,,,,,,,,,,,,,,,,,,,
,,21,6,${e://Field/PROLIFIC_PID,F,18,2023-11-03_16h41.18.213,MouseEye_CC,2023.2.2,Win32,60.0024001,1.28,,,1920,1080,48.708999999999996,4.84,"95.74, 112.33, 113.19, 121.28, 124.09, 139.19, 140.44",873.41,8.502187576,41.15058787,27.83653633,Failed,137.8544694,,,,,,,,,,,,,,,,,,,,,training,8,5,180,right,s,,,,,671.5423,671.9006,35.84,2,-7,1,0,0,0.3583,fixationPoint,671.9007,671.9914,671.9915,673.7748,35.84,10240,616.96,s,1,1.757,,673.7749,673.9834,,,,,,,,97,71,-212,211,215,124,170,32,24,-28,20,-122,219,-223,20,-75,-165,-220,-128,-220,-20,173,-170,112,-125,270,180,90,90,360,180,180,270,270,360,180,,,,,,,,,,,673.9834,673.9837,,0,116,116,116,1,8,repeated,,,,,,,,,,,,,,,,,,,,,,,,,,,,,,,,,,,,,,,,,,,,,,,,,
