InstrStartPage.started,InstrStartPage.stopped,participant,designid,prolificid,Gender,Age,date,expName,psychopyVersion,OS,frameRate,ratio_monitor2CRT,VirtualChinrest.started,VirtualChinrest.stopped,xRes,yRes,viewingdistance_cm,pixeldensity_px2mm,BallPos,squarePos,mm2degree,px2degree,CRT_px2degree,PassVirtualChinrest,foveaRadius_inPixel,InstrRedo.started,InstrRedo.stopped,VirtualChinrest_Redo.started,VirtualChinrest_Redo.stopped,Instruction1.started,Instruction1.stopped,keyPractice.started,keyPractice.stopped,key_keyprac.keys,key_keyprac.corr,key_keyprac.rt,key_keyprac.duration,keyPracFeedback.started,keyPracFeedback.stopped,keyPracLoop.thisRepN,keyPracLoop.thisTrialN,keyPracLoop.thisN,keyPracLoop.thisIndex,keyPracLoop.ran,phase,block,trial,targOrientdeg,targOrient,corrAnswer,Instruction2.started,Instruction2.stopped,Instruction3.started,Instruction3.stopped,fixation.started,fixation.stopped,fixationSize,mouseintial.x,mouseintial.y,mouseintial.leftButton,mouseintial.midButton,mouseintial.rightButton,mouseintial.time,mouseintial.clicked_name,greenFixation.started,greenFixation.stopped,trial.started,trial.stopped,letterSize,apertureSize,searchsize,key_respMain.keys,key_respMain.corr,key_respMain.rt,key_respMain.duration,trialFeedback.started,trialFeedback.stopped,trialsPractice.thisRepN,trialsPractice.thisTrialN,trialsPractice.thisN,trialsPractice.thisIndex,trialsPractice.ran,targetQuad,Tcondition,targcell,tlocx,tlocy,d1x,d1y,d2x,d2y,d3x,d3y,d4x,d4y,d5x,d5y,d6x,d6y,d7x,d7y,d8x,d8y,d9x,d9y,d10x,d10y,d11x,d11y,d1Orient,d2Orient,d3Orient,d4Orient,d5Orient,d6Orient,d7Orient,d8Orient,d9Orient,d10Orient,d11Orient,CheckInstr.started,CheckInstr.stopped,key_checkInstr.keys,key_checkInstr.corr,key_checkInstr.rt,key_checkInstr.duration,CheckInstr_FB.started,CheckInstr_FB.stopped,Instruction_MainExp.started,Instruction_MainExp.stopped,TakeABreak.started,TakeABreak.stopped,key_respBreak.keys,trials.thisRepN,trials.thisTrialN,trials.thisN,trials.thisIndex,trials.ran,configurationNumber,CCCondition,key_respBreak.rt,key_respBreak.duration,displayTestingPhase.started,displayTestingPhase.stopped,key_respTesting.keys,key_respTesting.corr,key_respTesting.rt,key_respTesting.duration,TakeABreak2.started,TakeABreak2.stopped,key_RespBreak.keys,Testingtrials.thisRepN,Testingtrials.thisTrialN,Testingtrials.thisN,Testingtrials.thisIndex,Testingtrials.ran,key_RespBreak.rt,key_RespBreak.duration,RecogQuestion.started,RecogQuestion.stopped,key_AnswerQues.keys,key_AnswerQues.rt,key_AnswerQues.duration,Disclose.started,Disclose.stopped,InstrRT.started,InstrRT.stopped,fixation_RT.started,fixation_RT.stopped,mouseInitial.x,mouseInitial.y,mouseInitial.leftButton,mouseInitial.midButton,mouseInitial.rightButton,mouseInitial.time,mouseInitial.clicked_name,displayRT.started,displayRT.stopped,key_respRT.keys,key_respRT.corr,key_respRT.rt,key_respRT.duration,RTtrials.thisRepN,RTtrials.thisTrialN,RTtrials.thisN,RTtrials.thisIndex,RTtrials.ran,EndOfExperiment.started,EndOfExperiment.stopped
0.0003,8.4629,22,8,${e://Field/PROLIFIC_PID,F,18,2023-11-03_23h00.46.245,MouseEye_CC,2023.2.2,Win32,162.8664495,1,,,,,,,,,,,,,,,,,,,,,,,,,,,,,,,,,,,,,,,,,,,,,,,,,,,,,,,,,,,,,,,,,,,,,,,,,,,,,,,,,,,,,,,,,,,,,,,,,,,,,,,,,,,,,,,,,,,,,,,,,,,,,,,,,,,,,,,,,,,,,,,,,,,,,,,,,,,,,,,,,,,,,,,,,,,,,,,,,
,,22,8,${e://Field/PROLIFIC_PID,F,18,2023-11-03_23h00.46.245,MouseEye_CC,2023.2.2,Win32,162.8664495,1.099572844,8.4632,127.1288,1920,1080,49.119,3.57,"232.36, 305.93, 194.91, 205.56, 173.29, 131.21, 109.04",608.46,8.573753342,30.60829943,27.83653633,Passed,102.5378031,,,,,,,,,,,,,,,,,,,,,,,,,,,,,,,,,,,,,,,,,,,,,,,,,,,,,,,,,,,,,,,,,,,,,,,,,,,,,,,,,,,,,,,,,,,,,,,,,,,,,,,,,,,,,,,,,,,,,,,,,,,,,,,,,,,,,,,,,,,,,,,,,,,,,,,,,,,,,,,,,,,,
,,22,8,${e://Field/PROLIFIC_PID,F,18,2023-11-03_23h00.46.245,MouseEye_CC,2023.2.2,Win32,162.8664495,1.099572844,,,1920,1080,49.119,3.57,"232.36, 305.93, 194.91, 205.56, 173.29, 131.21, 109.04",608.46,8.573753342,30.60829943,27.83653633,Passed,102.5378031,127.1291,127.131,,,,,,,,,,,,,,,,,,,,,,,,,,,,,,,,,,,,,,,,,,,,,,,,,,,,,,,,,,,,,,,,,,,,,,,,,,,,,,,,,,,,,,,,,,,,,,,,,,,,,,,,,,,,,,,,,,,,,,,,,,,,,,,,,,,,,,,,,,,,,,,,,,,,,,,,,,,,,,,,,,
,,22,8,${e://Field/PROLIFIC_PID,F,18,2023-11-03_23h00.46.245,MouseEye_CC,2023.2.2,Win32,162.8664495,1.023982319,,,1920,1080,44.375,3.68,"232.36, 305.93, 194.91, 205.56, 173.29, 131.21, 109.04",608.46,7.745685062,28.50412103,27.83653633,Passed,95.48880544,,,127.1311,168.0569,,,,,,,,,,,,,,,,,,,,,,,,,,,,,,,,,,,,,,,,,,,,,,,,,,,,,,,,,,,,,,,,,,,,,,,,,,,,,,,,,,,,,,,,,,,,,,,,,,,,,,,,,,,,,,,,,,,,,,,,,,,,,,,,,,,,,,,,,,,,,,,,,,,,,,,,,,,,,,,,
,,22,8,${e://Field/PROLIFIC_PID,F,18,2023-11-03_23h00.46.245,MouseEye_CC,2023.2.2,Win32,162.8664495,1.023982319,,,1920,1080,44.375,3.68,"232.36, 305.93, 194.91, 205.56, 173.29, 131.21, 109.04",608.46,7.745685062,28.50412103,27.83653633,Passed,95.48880544,,,,,168.057,192.6252,,,,,,,,,,,,,,,,,,,,,,,,,,,,,,,,,,,,,,,,,,,,,,,,,,,,,,,,,,,,,,,,,,,,,,,,,,,,,,,,,,,,,,,,,,,,,,,,,,,,,,,,,,,,,,,,,,,,,,,,,,,,,,,,,,,,,,,,,,,,,,,,,,,,,,,,,,,,,,
,,22,8,${e://Field/PROLIFIC_PID,F,18,2023-11-03_23h00.46.245,MouseEye_CC,2023.2.2,Win32,162.8664495,1.023982319,,,1920,1080,44.375,3.68,"232.36, 305.93, 194.91, 205.56, 173.29, 131.21, 109.04",608.46,7.745685062,28.50412103,27.83653633,Passed,95.48880544,,,,,,,192.6745,193.7816,a,1,0.5928,,193.7819,194.2784,0,0,0,0,1,practice,1,1,0,left,a,,,,,,,,,,,,,,,,,,,,,,,,,,,,,,,,,,,,,,,,,,,,,,,,,,,,,,,,,,,,,,,,,,,,,,,,,,,,,,,,,,,,,,,,,,,,,,,,,,,,,,,,,,,,,,,,,,,,,,,,,,,,,,,,,,,,,,,,,,,
,,22,8,${e://Field/PROLIFIC_PID,F,18,2023-11-03_23h00.46.245,MouseEye_CC,2023.2.2,Win32,162.8664495,1.023982319,,,1920,1080,44.375,3.68,"232.36, 305.93, 194.91, 205.56, 173.29, 131.21, 109.04",608.46,7.745685062,28.50412103,27.83653633,Passed,95.48880544,,,,,,,194.2794,195.3024,a,1,0.5167,,195.3027,195.7994,0,1,1,1,1,practice,1,2,0,left,a,,,,,,,,,,,,,,,,,,,,,,,,,,,,,,,,,,,,,,,,,,,,,,,,,,,,,,,,,,,,,,,,,,,,,,,,,,,,,,,,,,,,,,,,,,,,,,,,,,,,,,,,,,,,,,,,,,,,,,,,,,,,,,,,,,,,,,,,,,,
,,22,8,${e://Field/PROLIFIC_PID,F,18,2023-11-03_23h00.46.245,MouseEye_CC,2023.2.2,Win32,162.8664495,1.023982319,,,1920,1080,44.375,3.68,"232.36, 305.93, 194.91, 205.56, 173.29, 131.21, 109.04",608.46,7.745685062,28.50412103,27.83653633,Passed,95.48880544,,,,,,,195.8001,196.7567,a,1,0.4512,,196.7567,197.2542,0,2,2,2,1,practice,1,3,0,left,a,,,,,,,,,,,,,,,,,,,,,,,,,,,,,,,,,,,,,,,,,,,,,,,,,,,,,,,,,,,,,,,,,,,,,,,,,,,,,,,,,,,,,,,,,,,,,,,,,,,,,,,,,,,,,,,,,,,,,,,,,,,,,,,,,,,,,,,,,,,
,,22,8,${e://Field/PROLIFIC_PID,F,18,2023-11-03_23h00.46.245,MouseEye_CC,2023.2.2,Win32,162.8664495,1.023982319,,,1920,1080,44.375,3.68,"232.36, 305.93, 194.91, 205.56, 173.29, 131.21, 109.04",608.46,7.745685062,28.50412103,27.83653633,Passed,95.48880544,,,,,,,197.255,198.2175,s,1,0.4564,,198.2176,198.7141,0,3,3,3,1,practice,1,4,180,right,s,,,,,,,,,,,,,,,,,,,,,,,,,,,,,,,,,,,,,,,,,,,,,,,,,,,,,,,,,,,,,,,,,,,,,,,,,,,,,,,,,,,,,,,,,,,,,,,,,,,,,,,,,,,,,,,,,,,,,,,,,,,,,,,,,,,,,,,,,,,
,,22,8,${e://Field/PROLIFIC_PID,F,18,2023-11-03_23h00.46.245,MouseEye_CC,2023.2.2,Win32,162.8664495,1.023982319,,,1920,1080,44.375,3.68,"232.36, 305.93, 194.91, 205.56, 173.29, 131.21, 109.04",608.46,7.745685062,28.50412103,27.83653633,Passed,95.48880544,,,,,,,198.7143,199.6656,s,1,0.4463,,199.6657,200.1626,0,4,4,4,1,practice,1,5,180,right,s,,,,,,,,,,,,,,,,,,,,,,,,,,,,,,,,,,,,,,,,,,,,,,,,,,,,,,,,,,,,,,,,,,,,,,,,,,,,,,,,,,,,,,,,,,,,,,,,,,,,,,,,,,,,,,,,,,,,,,,,,,,,,,,,,,,,,,,,,,,
,,22,8,${e://Field/PROLIFIC_PID,F,18,2023-11-03_23h00.46.245,MouseEye_CC,2023.2.2,Win32,162.8664495,1.023982319,,,1920,1080,44.375,3.68,"232.36, 305.93, 194.91, 205.56, 173.29, 131.21, 109.04",608.46,7.745685062,28.50412103,27.83653633,Passed,95.48880544,,,,,,,200.1628,201.1081,a,1,0.4364,,201.1082,201.6049,0,5,5,5,1,practice,1,6,0,left,a,,,,,,,,,,,,,,,,,,,,,,,,,,,,,,,,,,,,,,,,,,,,,,,,,,,,,,,,,,,,,,,,,,,,,,,,,,,,,,,,,,,,,,,,,,,,,,,,,,,,,,,,,,,,,,,,,,,,,,,,,,,,,,,,,,,,,,,,,,,
,,22,8,${e://Field/PROLIFIC_PID,F,18,2023-11-03_23h00.46.245,MouseEye_CC,2023.2.2,Win32,162.8664495,1.023982319,,,1920,1080,44.375,3.68,"232.36, 305.93, 194.91, 205.56, 173.29, 131.21, 109.04",608.46,7.745685062,28.50412103,27.83653633,Passed,95.48880544,,,,,,,,,,,,,,,,,,,,,,,,,,201.6051,202.902,,,,,,,,,,,,,,,,,,,,,,,,,,,,,,,,,,,,,,,,,,,,,,,,,,,,,,,,,,,,,,,,,,,,,,,,,,,,,,,,,,,,,,,,,,,,,,,,,,,,,,,,,,,,,,,,,,,,,,,,,,,,,,,,,,,,,,,,,
,,22,8,${e://Field/PROLIFIC_PID,F,18,2023-11-03_23h00.46.245,MouseEye_CC,2023.2.2,Win32,162.8664495,1.023982319,,,1920,1080,44.375,3.68,"232.36, 305.93, 194.91, 205.56, 173.29, 131.21, 109.04",608.46,7.745685062,28.50412103,27.83653633,Passed,95.48880544,,,,,,,,,,,,,,,,,,,,,,,,,,,,202.9022,204.7868,,,,,,,,,,,,,,,,,,,,,,,,,,,,,,,,,,,,,,,,,,,,,,,,,,,,,,,,,,,,,,,,,,,,,,,,,,,,,,,,,,,,,,,,,,,,,,,,,,,,,,,,,,,,,,,,,,,,,,,,,,,,,,,,,,,,,,,
,,22,8,${e://Field/PROLIFIC_PID,F,18,2023-11-03_23h00.46.245,MouseEye_CC,2023.2.2,Win32,162.8664495,1.023982319,,,1920,1080,44.375,3.68,"232.36, 305.93, 194.91, 205.56, 173.29, 131.21, 109.04",608.46,7.745685062,28.50412103,27.83653633,Passed,95.48880544,,,,,,,,,,,,,,,,,,,,practice,0,1,0,left,a,,,,,204.7984,215.0716,28.67150493,-11,-17,1,0,0,10.0737,fixationPoint,215.0717,215.1684,215.1688,216.4231,28.67150493,8191.858553,493.5594778,a,1,1.2386,,216.4232,216.623,0,0,0,0,1,4,sparse,90,217,-164,68,123,222,26,214,216,-218,159,-120,223,-110,82,-115,-130,-224,-120,-68,-219,79,-175,19,-128,90,270,360,90,270,270,180,90,90,90,270,,,,,,,,,,,,,,,,,,,,,,,,,,,,,,,,,,,,,,,,,,,,,,,,,,,,,,,,,,,,,,,,,,,,,
,,22,8,${e://Field/PROLIFIC_PID,F,18,2023-11-03_23h00.46.245,MouseEye_CC,2023.2.2,Win32,162.8664495,1.023982319,,,1920,1080,44.375,3.68,"232.36, 305.93, 194.91, 205.56, 173.29, 131.21, 109.04",608.46,7.745685062,28.50412103,27.83653633,Passed,95.48880544,,,,,,,,,,,,,,,,,,,,practice,0,2,0,left,a,,,,,216.6233,220.3745,28.67150493,-4,-3,1,0,0,3.751,fixationPoint,220.3746,220.4713,220.4713,221.7203,28.67150493,8191.858553,493.5594778,a,1,1.2456,,221.7204,221.9198,0,1,1,1,1,1,rich,39,169,66,-126,125,-169,169,-130,19,-169,-116,-125,-167,-224,-216,218,-129,171,-218,18,-208,166,26,17,170,180,90,360,270,90,90,90,270,180,180,270,,,,,,,,,,,,,,,,,,,,,,,,,,,,,,,,,,,,,,,,,,,,,,,,,,,,,,,,,,,,,,,,,,,,,
,,22,8,${e://Field/PROLIFIC_PID,F,18,2023-11-03_23h00.46.245,MouseEye_CC,2023.2.2,Win32,162.8664495,1.023982319,,,1920,1080,44.375,3.68,"232.36, 305.93, 194.91, 205.56, 173.29, 131.21, 109.04",608.46,7.745685062,28.50412103,27.83653633,Passed,95.48880544,,,,,,,,,,,,,,,,,,,,practice,0,3,0,left,a,,,,,221.9205,223.7017,28.67150493,-8,2,1,0,0,1.781,fixationPoint,223.7017,223.7986,223.7987,224.2835,28.67150493,8191.858553,493.5594778,s,0,0.4803,,224.2835,228.2833,0,2,2,2,1,2,sparse,22,-162,126,222,26,17,170,126,172,-25,-117,-175,-206,-224,-216,116,-19,130,-174,217,-164,-218,159,-21,162,90,90,180,360,360,270,360,360,360,360,180,,,,,,,,,,,,,,,,,,,,,,,,,,,,,,,,,,,,,,,,,,,,,,,,,,,,,,,,,,,,,,,,,,,,,
,,22,8,${e://Field/PROLIFIC_PID,F,18,2023-11-03_23h00.46.245,MouseEye_CC,2023.2.2,Win32,162.8664495,1.023982319,,,1920,1080,44.375,3.68,"232.36, 305.93, 194.91, 205.56, 173.29, 131.21, 109.04",608.46,7.745685062,28.50412103,27.83653633,Passed,95.48880544,,,,,,,,,,,,,,,,,,,,practice,0,4,180,right,s,,,,,228.284,228.6774,28.67150493,-6,6,1,0,0,0.3931,fixationPoint,228.6774,228.7742,228.7742,229.7141,28.67150493,8191.858553,493.5594778,s,1,0.9372,,229.7143,229.914,0,3,3,3,1,4,sparse,76,19,-128,159,121,214,216,219,165,-218,159,-162,126,-219,119,-169,-116,-111,-31,-175,-206,18,-208,81,-114,90,270,180,180,270,180,360,360,360,270,360,,,,,,,,,,,,,,,,,,,,,,,,,,,,,,,,,,,,,,,,,,,,,,,,,,,,,,,,,,,,,,,,,,,,,
,,22,8,${e://Field/PROLIFIC_PID,F,18,2023-11-03_23h00.46.245,MouseEye_CC,2023.2.2,Win32,162.8664495,1.023982319,,,1920,1080,44.375,3.68,"232.36, 305.93, 194.91, 205.56, 173.29, 131.21, 109.04",608.46,7.745685062,28.50412103,27.83653633,Passed,95.48880544,,,,,,,,,,,,,,,,,,,,practice,0,5,180,right,s,,,,,229.9149,230.3985,28.67150493,-6,6,1,0,0,0.4835,fixationPoint,230.3986,230.4959,230.4961,231.6893,28.67150493,8191.858553,493.5594778,s,1,1.1861,,231.6894,231.8894,0,4,4,4,1,3,sparse,85,-19,-173,219,165,68,123,214,216,-160,68,-64,120,-226,34,162,-21,224,-216,167,-163,-167,-74,-224,-216,360,360,360,90,180,270,90,360,270,270,360,,,,,,,,,,,,,,,,,,,,,,,,,,,,,,,,,,,,,,,,,,,,,,,,,,,,,,,,,,,,,,,,,,,,,
,,22,8,${e://Field/PROLIFIC_PID,F,18,2023-11-03_23h00.46.245,MouseEye_CC,2023.2.2,Win32,162.8664495,1.023982319,,,1920,1080,44.375,3.68,"232.36, 305.93, 194.91, 205.56, 173.29, 131.21, 109.04",608.46,7.745685062,28.50412103,27.83653633,Passed,95.48880544,,,,,,,,,,,,,,,,,,,,practice,0,6,180,right,s,,,,,231.8897,232.3995,28.67150493,-6,6,1,0,0,0.5086,fixationPoint,232.3995,232.4954,232.4954,233.4534,28.67150493,8191.858553,493.5594778,s,1,0.9542,,233.4534,233.6533,0,5,5,5,1,3,sparse,95,-21,-224,126,172,219,165,166,26,-166,207,-223,206,-219,119,169,-75,18,-208,224,-216,-72,-121,-115,-130,180,180,360,180,360,180,270,180,90,180,360,,,,,,,,,,,,,,,,,,,,,,,,,,,,,,,,,,,,,,,,,,,,,,,,,,,,,,,,,,,,,,,,,,,,,
,,22,8,${e://Field/PROLIFIC_PID,F,18,2023-11-03_23h00.46.245,MouseEye_CC,2023.2.2,Win32,162.8664495,1.023982319,,,1920,1080,44.375,3.68,"232.36, 305.93, 194.91, 205.56, 173.29, 131.21, 109.04",608.46,7.745685062,28.50412103,27.83653633,Passed,95.48880544,,,,,,,,,,,,,,,,,,,,practice,0,7,0,left,a,,,,,233.6541,234.2291,28.67150493,-6,6,1,0,0,0.5747,fixationPoint,234.2293,234.3257,234.3258,234.9863,28.67150493,8191.858553,493.5594778,s,0,0.6572,,234.9863,238.9866,0,6,6,6,1,1,rich,7,62,223,-166,207,-226,34,-162,126,-169,-116,-168,-160,-161,-27,15,-162,162,-21,79,-175,219,165,219,129,180,180,360,180,270,360,180,360,270,180,360,,,,,,,,,,,,,,,,,,,,,,,,,,,,,,,,,,,,,,,,,,,,,,,,,,,,,,,,,,,,,,,,,,,,,
,,22,8,${e://Field/PROLIFIC_PID,F,18,2023-11-03_23h00.46.245,MouseEye_CC,2023.2.2,Win32,162.8664495,1.023982319,,,1920,1080,44.375,3.68,"232.36, 305.93, 194.91, 205.56, 173.29, 131.21, 109.04",608.46,7.745685062,28.50412103,27.83653633,Passed,95.48880544,,,,,,,,,,,,,,,,,,,,practice,0,8,180,right,s,,,,,238.9882,239.3745,28.67150493,4,10,1,0,0,0.3859,fixationPoint,239.3747,239.4715,239.4715,241.8294,28.67150493,8191.858553,493.5594778,s,1,2.3522,,241.8296,242.0292,0,7,7,7,1,2,sparse,24,-64,120,18,215,126,172,33,121,-206,-170,-64,-162,-218,-78,130,-174,211,-74,168,-130,-164,32,-21,162,90,180,270,360,180,90,180,180,180,360,270,,,,,,,,,,,,,,,,,,,,,,,,,,,,,,,,,,,,,,,,,,,,,,,,,,,,,,,,,,,,,,,,,,,,,
,,22,8,${e://Field/PROLIFIC_PID,F,18,2023-11-03_23h00.46.245,MouseEye_CC,2023.2.2,Win32,162.8664495,1.023982319,,,1920,1080,44.375,3.68,"232.36, 305.93, 194.91, 205.56, 173.29, 131.21, 109.04",608.46,7.745685062,28.50412103,27.83653633,Passed,95.48880544,,,,,,,,,,,,,,,,,,,,practice,0,9,180,right,s,,,,,242.0306,242.4897,28.67150493,1,7,1,0,0,0.4588,fixationPoint,242.49,242.5861,242.5861,243.2958,28.67150493,8191.858553,493.5594778,s,1,0.7052,,243.2959,243.4959,0,8,8,8,1,3,sparse,85,-19,-173,127,30,62,223,217,67,-110,82,-21,162,-80,218,167,-163,126,-79,130,-174,-125,-167,-68,-219,360,360,360,180,360,360,180,270,90,360,180,,,,,,,,,,,,,,,,,,,,,,,,,,,,,,,,,,,,,,,,,,,,,,,,,,,,,,,,,,,,,,,,,,,,,
,,22,8,${e://Field/PROLIFIC_PID,F,18,2023-11-03_23h00.46.245,MouseEye_CC,2023.2.2,Win32,162.8664495,1.023982319,,,1920,1080,44.375,3.68,"232.36, 305.93, 194.91, 205.56, 173.29, 131.21, 109.04",608.46,7.745685062,28.50412103,27.83653633,Passed,95.48880544,,,,,,,,,,,,,,,,,,,,practice,0,10,180,right,s,,,,,243.4971,243.9803,28.67150493,1,7,1,0,0,0.4831,fixationPoint,243.9803,244.0771,244.0771,245.5195,28.67150493,8191.858553,493.5594778,s,1,1.4382,,245.5196,245.7195,0,9,9,9,1,1,rich,9,160,209,-166,207,-226,34,-120,223,-224,-120,-118,-217,-218,-78,112,-209,126,-113,169,-75,178,160,110,129,180,90,90,270,360,270,360,180,360,180,360,,,,,,,,,,,,,,,,,,,,,,,,,,,,,,,,,,,,,,,,,,,,,,,,,,,,,,,,,,,,,,,,,,,,,
,,22,8,${e://Field/PROLIFIC_PID,F,18,2023-11-03_23h00.46.245,MouseEye_CC,2023.2.2,Win32,162.8664495,1.023982319,,,1920,1080,44.375,3.68,"232.36, 305.93, 194.91, 205.56, 173.29, 131.21, 109.04",608.46,7.745685062,28.50412103,27.83653633,Passed,95.48880544,,,,,,,,,,,,,,,,,,,,practice,0,11,180,right,s,,,,,245.7198,247.1619,28.67150493,19,14,1,0,0,0.8903,fixationPoint,247.1619,247.259,247.2591,247.7497,28.67150493,8191.858553,493.5594778,s,1,0.4877,,247.7498,247.9497,0,10,10,10,1,4,sparse,80,218,-129,62,223,159,121,110,129,-218,159,-223,206,-75,173,-169,-116,-118,-217,-125,-167,217,-164,169,-75,360,270,360,180,360,180,180,270,360,180,90,,,,,,,,,,,,,,,,,,,,,,,,,,,,,,,,,,,,,,,,,,,,,,,,,,,,,,,,,,,,,,,,,,,,,
,,22,8,${e://Field/PROLIFIC_PID,F,18,2023-11-03_23h00.46.245,MouseEye_CC,2023.2.2,Win32,162.8664495,1.023982319,,,1920,1080,44.375,3.68,"232.36, 305.93, 194.91, 205.56, 173.29, 131.21, 109.04",608.46,7.745685062,28.50412103,27.83653633,Passed,95.48880544,,,,,,,,,,,,,,,,,,,,practice,0,12,0,left,a,,,,,247.9503,248.6225,28.67150493,4,0,1,0,0,0.672,fixationPoint,248.6225,248.7193,248.7193,249.7497,28.67150493,8191.858553,493.5594778,s,0,1.0247,,249.7498,253.7496,0,11,11,11,1,3,sparse,75,-25,-117,110,129,125,63,214,216,-164,32,-27,117,-126,125,171,-218,126,-113,167,-163,-21,-224,-212,-21,270,180,180,360,180,270,360,270,360,180,270,,,,,,,,,,,,,,,,,,,,,,,,,,,,,,,,,,,,,,,,,,,,,,,,,,,,,,,,,,,,,,,,,,,,,
,,22,8,${e://Field/PROLIFIC_PID,F,18,2023-11-03_23h00.46.245,MouseEye_CC,2023.2.2,Win32,162.8664495,1.023982319,,,1920,1080,44.375,3.68,"232.36, 305.93, 194.91, 205.56, 173.29, 131.21, 109.04",608.46,7.745685062,28.50412103,27.83653633,Passed,95.48880544,,,,,,,,,,,,,,,,,,,,,,,,,,,,,,,,,,,,,,,,,,,,,,,,,,,,,,,,,,,,,,,,,,,,,,,,,,,,,,,,,,,,,,,,,,,,,,,,253.75,254.9437,s,0,1.1901,,,,,,,,,,,,,,,,,,,,,,,,,,,,,,,,,,,,,,,,,,,,,,,,,,,,,,,,,,,,,,,,
,,22,8,${e://Field/PROLIFIC_PID,F,18,2023-11-03_23h00.46.245,MouseEye_CC,2023.2.2,Win32,162.8664495,1.023982319,,,1920,1080,44.375,3.68,"232.36, 305.93, 194.91, 205.56, 173.29, 131.21, 109.04",608.46,7.745685062,28.50412103,27.83653633,Passed,95.48880544,,,,,,,,,,,,,,,,,,,,,,,,,,,,,,,,,,,,,,,,,,,,,,,,,,,,,,,,,,,,,,,,,,,,,,,,,,,,,,,,,,,,,,,,,,,,,,,,,,,,,,254.9438,256.6171,,,,,,,,,,,,,,,,,,,,,,,,,,,,,,,,,,,,,,,,,,,,,,,,,,,,,,,,,,,,,
,,22,8,${e://Field/PROLIFIC_PID,F,18,2023-11-03_23h00.46.245,MouseEye_CC,2023.2.2,Win32,162.8664495,1.023982319,,,1920,1080,44.375,3.68,"232.36, 305.93, 194.91, 205.56, 173.29, 131.21, 109.04",608.46,7.745685062,28.50412103,27.83653633,Passed,95.48880544,,,,,,,,,,,,,,,,,,,,,,,,,,,,,,,,,,,,,,,,,,,,,,,,,,,,,,,,,,,,,,,,,,,,,,,,,,,,,,,,,,,,,,,,,,,,,,,,,,,,,,,,256.6175,258.0529,,,,,,,,,,,,,,,,,,,,,,,,,,,,,,,,,,,,,,,,,,,,,,,,,,,,,,,,,,,
,,22,8,${e://Field/PROLIFIC_PID,F,18,2023-11-03_23h00.46.245,MouseEye_CC,2023.2.2,Win32,162.8664495,1.023982319,,,1920,1080,44.375,3.68,"232.36, 305.93, 194.91, 205.56, 173.29, 131.21, 109.04",608.46,7.745685062,28.50412103,27.83653633,Passed,95.48880544,,,,,,,,,,,,,,,,,,,,training,1,1,180,right,s,,,,,258.1686,258.7556,28.67150493,5,7,1,0,0,0.5869,fixationPoint,258.7557,258.8525,258.8525,259.6166,28.67150493,8191.858553,493.5594778,s,1,0.7589,,259.6167,259.8165,,,,,,,,19,160,161,-216,64,-221,169,-174,217,-126,-216,-213,-74,-116,-125,123,-220,216,-224,73,-20,112,64,80,220,270,90,360,90,270,360,180,360,360,90,90,,,,,,,,,,,259.817,259.8206,,0,0,0,0,1,13,novel,,,,,,,,,,,,,,,,,,,,,,,,,,,,,,,,,,,,,,,,,,,,,,,,,
,,22,8,${e://Field/PROLIFIC_PID,F,18,2023-11-03_23h00.46.245,MouseEye_CC,2023.2.2,Win32,162.8664495,1.023982319,,,1920,1080,44.375,3.68,"232.36, 305.93, 194.91, 205.56, 173.29, 131.21, 109.04",608.46,7.745685062,28.50412103,27.83653633,Passed,95.48880544,,,,,,,,,,,,,,,,,,,,training,1,2,0,left,a,,,,,259.8215,261.0285,28.67150493,1,2,1,0,0,1.2069,fixationPoint,261.0287,261.1256,261.1258,262.5133,28.67150493,8191.858553,493.5594778,s,0,1.3807,,262.5134,266.5132,,,,,,,,31,-216,64,222,113,160,161,208,211,-126,-164,-16,-26,-213,-74,28,-24,72,-166,165,-19,-120,120,-172,170,360,180,90,90,180,180,180,360,90,270,180,,,,,,,,,,,266.5132,266.5134,,0,1,1,1,1,15,novel,,,,,,,,,,,,,,,,,,,,,,,,,,,,,,,,,,,,,,,,,,,,,,,,,
,,22,8,${e://Field/PROLIFIC_PID,F,18,2023-11-03_23h00.46.245,MouseEye_CC,2023.2.2,Win32,162.8664495,1.023982319,,,1920,1080,44.375,3.68,"232.36, 305.93, 194.91, 205.56, 173.29, 131.21, 109.04",608.46,7.745685062,28.50412103,27.83653633,Passed,95.48880544,,,,,,,,,,,,,,,,,,,,training,1,3,180,right,s,,,,,266.5141,266.9134,28.67150493,13,9,1,0,0,0.3993,fixationPoint,266.9135,267.0101,267.0101,267.7192,28.67150493,8191.858553,493.5594778,s,1,0.7026,,267.7192,267.9191,,,,,,,,32,-166,79,208,211,112,64,124,172,-124,-69,-170,-68,-126,-164,209,-18,208,-126,164,-211,-218,124,-174,23,90,360,270,360,90,270,90,360,360,90,270,,,,,,,,,,,267.9192,267.9194,,0,2,2,2,1,16,novel,,,,,,,,,,,,,,,,,,,,,,,,,,,,,,,,,,,,,,,,,,,,,,,,,
,,22,8,${e://Field/PROLIFIC_PID,F,18,2023-11-03_23h00.46.245,MouseEye_CC,2023.2.2,Win32,162.8664495,1.023982319,,,1920,1080,44.375,3.68,"232.36, 305.93, 194.91, 205.56, 173.29, 131.21, 109.04",608.46,7.745685062,28.50412103,27.83653633,Passed,95.48880544,,,,,,,,,,,,,,,,,,,,training,1,4,180,right,s,,,,,267.9197,268.5923,28.67150493,1,6,1,0,0,0.6725,fixationPoint,268.5924,268.6891,268.6908,269.2949,28.67150493,8191.858553,493.5594778,s,1,0.6001,,269.2949,269.4954,,,,,,,,30,222,113,-21,120,-29,210,-213,222,-214,-170,-126,-216,-223,-31,123,-220,28,-64,119,-172,164,219,20,27,90,270,90,270,360,180,180,90,180,90,360,,,,,,,,,,,269.4954,269.4959,,0,3,3,3,1,14,novel,,,,,,,,,,,,,,,,,,,,,,,,,,,,,,,,,,,,,,,,,,,,,,,,,
,,22,8,${e://Field/PROLIFIC_PID,F,18,2023-11-03_23h00.46.245,MouseEye_CC,2023.2.2,Win32,162.8664495,1.023982319,,,1920,1080,44.375,3.68,"232.36, 305.93, 194.91, 205.56, 173.29, 131.21, 109.04",608.46,7.745685062,28.50412103,27.83653633,Passed,95.48880544,,,,,,,,,,,,,,,,,,,,training,1,5,0,left,a,,,,,269.4967,270.2405,28.67150493,1,6,1,0,0,0.7436,fixationPoint,270.2405,270.3372,270.3372,270.9312,28.67150493,8191.858553,493.5594778,s,0,0.5881,,270.9313,274.9315,,,,,,,,40,209,72,-221,169,-116,74,-29,210,-218,-127,-70,-117,-173,-114,209,-18,224,-75,28,-64,112,64,160,161,270,180,270,180,90,180,360,180,180,90,180,,,,,,,,,,,274.9317,274.9323,,0,4,4,4,1,2,repeated,,,,,,,,,,,,,,,,,,,,,,,,,,,,,,,,,,,,,,,,,,,,,,,,,
,,22,8,${e://Field/PROLIFIC_PID,F,18,2023-11-03_23h00.46.245,MouseEye_CC,2023.2.2,Win32,162.8664495,1.023982319,,,1920,1080,44.375,3.68,"232.36, 305.93, 194.91, 205.56, 173.29, 131.21, 109.04",608.46,7.745685062,28.50412103,27.83653633,Passed,95.48880544,,,,,,,,,,,,,,,,,,,,training,1,6,180,right,s,,,,,274.934,275.6221,28.67150493,-8,-3,1,0,0,0.6878,fixationPoint,275.6221,275.7189,275.719,277.7979,28.67150493,8191.858553,493.5594778,s,1,2.0774,,277.7981,277.9978,,,,,,,,71,-218,-127,208,211,124,172,125,118,-176,122,-224,32,-216,64,28,-221,215,-168,28,-24,-80,-23,-223,-31,360,360,270,180,180,90,270,180,270,360,360,,,,,,,,,,,277.9979,277.9982,,0,5,5,5,1,6,repeated,,,,,,,,,,,,,,,,,,,,,,,,,,,,,,,,,,,,,,,,,,,,,,,,,
,,22,8,${e://Field/PROLIFIC_PID,F,18,2023-11-03_23h00.46.245,MouseEye_CC,2023.2.2,Win32,162.8664495,1.023982319,,,1920,1080,44.375,3.68,"232.36, 305.93, 194.91, 205.56, 173.29, 131.21, 109.04",608.46,7.745685062,28.50412103,27.83653633,Passed,95.48880544,,,,,,,,,,,,,,,,,,,,training,1,7,0,left,a,,,,,277.9988,278.9978,28.67150493,18,11,1,0,0,0.7807,fixationPoint,278.9978,279.0947,279.0947,279.6705,28.67150493,8191.858553,493.5594778,s,0,0.572,,279.6705,283.6703,,,,,,,,97,69,-220,20,27,164,219,222,113,-176,122,-116,74,-174,23,-124,-69,-223,-31,-216,-215,165,-19,224,-75,90,180,360,270,360,270,270,90,90,360,360,,,,,,,,,,,283.6704,283.6707,,0,6,6,6,1,11,novel,,,,,,,,,,,,,,,,,,,,,,,,,,,,,,,,,,,,,,,,,,,,,,,,,
,,22,8,${e://Field/PROLIFIC_PID,F,18,2023-11-03_23h00.46.245,MouseEye_CC,2023.2.2,Win32,162.8664495,1.023982319,,,1920,1080,44.375,3.68,"232.36, 305.93, 194.91, 205.56, 173.29, 131.21, 109.04",608.46,7.745685062,28.50412103,27.83653633,Passed,95.48880544,,,,,,,,,,,,,,,,,,,,training,1,8,0,left,a,,,,,283.6714,285.9128,28.67150493,-2,0,1,0,0,2.2413,fixationPoint,285.913,286.0097,286.0097,287.6103,28.67150493,8191.858553,493.5594778,s,0,1.5948,,287.6104,291.6097,,,,,,,,84,-73,-165,213,32,126,29,125,118,-174,23,-216,64,-119,213,28,-221,165,-19,209,-18,-168,-174,-70,-117,180,270,270,180,180,90,90,360,360,270,180,,,,,,,,,,,291.6097,291.61,,0,7,7,7,1,9,novel,,,,,,,,,,,,,,,,,,,,,,,,,,,,,,,,,,,,,,,,,,,,,,,,,
,,22,8,${e://Field/PROLIFIC_PID,F,18,2023-11-03_23h00.46.245,MouseEye_CC,2023.2.2,Win32,162.8664495,1.023982319,,,1920,1080,44.375,3.68,"232.36, 305.93, 194.91, 205.56, 173.29, 131.21, 109.04",608.46,7.745685062,28.50412103,27.83653633,Passed,95.48880544,,,,,,,,,,,,,,,,,,,,training,1,9,0,left,a,,,,,291.6111,292.5552,28.67150493,-11,-11,1,0,0,0.944,fixationPoint,292.5553,292.652,292.652,293.6157,28.67150493,8191.858553,493.5594778,s,0,0.96,,293.6158,297.6156,,,,,,,,69,173,-77,78,67,80,220,167,124,-65,77,-166,79,-174,23,-70,-117,-213,-74,-32,-124,69,-124,216,-224,270,360,270,90,180,90,270,180,270,270,270,,,,,,,,,,,297.6157,297.6159,,0,8,8,8,1,8,repeated,,,,,,,,,,,,,,,,,,,,,,,,,,,,,,,,,,,,,,,,,,,,,,,,,
,,22,8,${e://Field/PROLIFIC_PID,F,18,2023-11-03_23h00.46.245,MouseEye_CC,2023.2.2,Win32,162.8664495,1.023982319,,,1920,1080,44.375,3.68,"232.36, 305.93, 194.91, 205.56, 173.29, 131.21, 109.04",608.46,7.745685062,28.50412103,27.83653633,Passed,95.48880544,,,,,,,,,,,,,,,,,,,,training,1,10,0,left,a,,,,,297.6165,297.9737,28.67150493,-1,1,1,0,0,0.3571,fixationPoint,297.9739,298.0704,298.0705,298.84,28.67150493,8191.858553,493.5594778,a,1,0.7659,,298.8401,299.0399,,,,,,,,61,-213,-74,80,220,208,211,164,219,-213,222,-221,169,-172,170,69,-124,119,-172,79,-76,-17,-222,-80,-23,270,360,360,180,180,90,180,270,90,270,360,,,,,,,,,,,299.0399,299.0401,,0,9,9,9,1,10,novel,,,,,,,,,,,,,,,,,,,,,,,,,,,,,,,,,,,,,,,,,,,,,,,,,
,,22,8,${e://Field/PROLIFIC_PID,F,18,2023-11-03_23h00.46.245,MouseEye_CC,2023.2.2,Win32,162.8664495,1.023982319,,,1920,1080,44.375,3.68,"232.36, 305.93, 194.91, 205.56, 173.29, 131.21, 109.04",608.46,7.745685062,28.50412103,27.83653633,Passed,95.48880544,,,,,,,,,,,,,,,,,,,,training,1,11,180,right,s,,,,,299.0405,299.6528,28.67150493,0,-3,1,0,0,0.612,fixationPoint,299.653,299.7492,299.7492,300.0823,28.67150493,8191.858553,493.5594778,s,1,0.3257,,300.0824,300.2822,,,,,,,,82,-168,-174,176,69,167,124,78,67,-176,122,-218,124,-21,120,224,-75,165,-19,28,-221,-216,-215,-32,-124,360,360,180,90,360,180,180,270,270,360,360,,,,,,,,,,,300.2822,300.2825,,0,10,10,10,1,5,repeated,,,,,,,,,,,,,,,,,,,,,,,,,,,,,,,,,,,,,,,,,,,,,,,,,
,,22,8,${e://Field/PROLIFIC_PID,F,18,2023-11-03_23h00.46.245,MouseEye_CC,2023.2.2,Win32,162.8664495,1.023982319,,,1920,1080,44.375,3.68,"232.36, 305.93, 194.91, 205.56, 173.29, 131.21, 109.04",608.46,7.745685062,28.50412103,27.83653633,Passed,95.48880544,,,,,,,,,,,,,,,,,,,,training,1,12,180,right,s,,,,,300.2828,300.6342,28.67150493,0,-3,1,0,0,0.3511,fixationPoint,300.6342,300.731,300.7312,301.1186,28.67150493,8191.858553,493.5594778,a,0,0.3825,,301.1186,305.1185,,,,,,,,17,76,165,-216,64,-116,160,-218,124,-68,-209,-114,-32,-170,-68,209,-18,173,-77,119,-172,176,69,160,161,360,90,90,180,360,180,360,360,90,180,180,,,,,,,,,,,305.1186,305.1188,,0,11,11,11,1,1,repeated,,,,,,,,,,,,,,,,,,,,,,,,,,,,,,,,,,,,,,,,,,,,,,,,,
,,22,8,${e://Field/PROLIFIC_PID,F,18,2023-11-03_23h00.46.245,MouseEye_CC,2023.2.2,Win32,162.8664495,1.023982319,,,1920,1080,44.375,3.68,"232.36, 305.93, 194.91, 205.56, 173.29, 131.21, 109.04",608.46,7.745685062,28.50412103,27.83653633,Passed,95.48880544,,,,,,,,,,,,,,,,,,,,training,1,13,0,left,a,,,,,305.1194,305.5492,28.67150493,8,6,1,0,0,0.4296,fixationPoint,305.5493,305.6461,305.6461,306.3973,28.67150493,8191.858553,493.5594778,a,1,0.7455,,306.3974,306.5976,,,,,,,,60,209,-18,20,72,25,112,112,64,-116,160,-218,124,-128,16,-213,-74,-30,-161,-126,-164,216,-224,112,-32,90,90,90,180,270,270,180,180,180,90,270,,,,,,,,,,,306.5977,306.598,,0,12,12,12,1,12,novel,,,,,,,,,,,,,,,,,,,,,,,,,,,,,,,,,,,,,,,,,,,,,,,,,
,,22,8,${e://Field/PROLIFIC_PID,F,18,2023-11-03_23h00.46.245,MouseEye_CC,2023.2.2,Win32,162.8664495,1.023982319,,,1920,1080,44.375,3.68,"232.36, 305.93, 194.91, 205.56, 173.29, 131.21, 109.04",608.46,7.745685062,28.50412103,27.83653633,Passed,95.48880544,,,,,,,,,,,,,,,,,,,,training,1,14,0,left,a,,,,,306.5989,306.8097,28.67150493,4,3,1,0,0,0.2106,fixationPoint,306.8099,306.907,306.9071,307.5488,28.67150493,8191.858553,493.5594778,a,1,0.6365,,307.5489,307.7488,,,,,,,,41,-224,32,160,161,30,166,125,118,-173,-114,-126,-164,-16,-26,119,-172,28,-221,112,-32,-174,23,-213,222,270,360,180,360,270,360,360,180,270,270,360,,,,,,,,,,,307.7488,307.7489,,0,13,13,13,1,4,repeated,,,,,,,,,,,,,,,,,,,,,,,,,,,,,,,,,,,,,,,,,,,,,,,,,
,,22,8,${e://Field/PROLIFIC_PID,F,18,2023-11-03_23h00.46.245,MouseEye_CC,2023.2.2,Win32,162.8664495,1.023982319,,,1920,1080,44.375,3.68,"232.36, 305.93, 194.91, 205.56, 173.29, 131.21, 109.04",608.46,7.745685062,28.50412103,27.83653633,Passed,95.48880544,,,,,,,,,,,,,,,,,,,,training,1,15,180,right,s,,,,,307.7493,308.1372,28.67150493,3,3,1,0,0,0.3876,fixationPoint,308.1374,308.234,308.2341,309.2154,28.67150493,8191.858553,493.5594778,s,1,0.9762,,309.2155,309.4155,,,,,,,,4,-72,224,112,64,222,113,30,166,-126,-164,-170,-68,-80,-23,20,-161,121,-70,79,-76,-176,122,-77,162,90,180,180,90,180,270,360,360,360,270,360,,,,,,,,,,,309.4155,309.4157,,0,14,14,14,1,3,repeated,,,,,,,,,,,,,,,,,,,,,,,,,,,,,,,,,,,,,,,,,,,,,,,,,
,,22,8,${e://Field/PROLIFIC_PID,F,18,2023-11-03_23h00.46.245,MouseEye_CC,2023.2.2,Win32,162.8664495,1.023982319,,,1920,1080,44.375,3.68,"232.36, 305.93, 194.91, 205.56, 173.29, 131.21, 109.04",608.46,7.745685062,28.50412103,27.83653633,Passed,95.48880544,,,,,,,,,,,,,,,,,,,,training,1,16,180,right,s,,,,,309.4161,309.8942,28.67150493,3,3,1,0,0,0.478,fixationPoint,309.8942,309.9911,309.9912,310.6946,28.67150493,8191.858553,493.5594778,a,0,0.6995,,310.6947,314.6941,,,,,,,,70,224,-75,112,64,213,32,20,27,-224,32,-31,169,-119,213,-173,-216,-126,-216,-116,-125,69,-124,165,-19,360,360,360,90,180,180,90,180,270,90,90,,,,,,,,,,,314.6941,354.3788,space,0,15,15,15,1,7,repeated,39.6769,,,,,,,,,,,,,,,,,,,,,,,,,,,,,,,,,,,,,,,,,,,,,,,,
,,22,8,${e://Field/PROLIFIC_PID,F,18,2023-11-03_23h00.46.245,MouseEye_CC,2023.2.2,Win32,162.8664495,1.023982319,,,1920,1080,44.375,3.68,"232.36, 305.93, 194.91, 205.56, 173.29, 131.21, 109.04",608.46,7.745685062,28.50412103,27.83653633,Passed,95.48880544,,,,,,,,,,,,,,,,,,,,training,2,1,0,left,a,,,,,354.3805,359.2753,28.67150493,12,-7,1,0,0,4.8947,fixationPoint,359.2754,359.3722,359.3722,363.4874,28.67150493,8191.858553,493.5594778,a,1,4.1063,,363.4874,363.6873,,,,,,,,71,-218,-127,208,211,124,172,125,118,-176,122,-224,32,-216,64,28,-221,215,-168,28,-24,-80,-23,-223,-31,180,360,90,180,360,360,90,90,270,360,90,,,,,,,,,,,363.6873,363.6882,,0,16,16,16,1,6,repeated,,,,,,,,,,,,,,,,,,,,,,,,,,,,,,,,,,,,,,,,,,,,,,,,,
,,22,8,${e://Field/PROLIFIC_PID,F,18,2023-11-03_23h00.46.245,MouseEye_CC,2023.2.2,Win32,162.8664495,1.023982319,,,1920,1080,44.375,3.68,"232.36, 305.93, 194.91, 205.56, 173.29, 131.21, 109.04",608.46,7.745685062,28.50412103,27.83653633,Passed,95.48880544,,,,,,,,,,,,,,,,,,,,training,2,2,180,right,s,,,,,363.6886,365.966,28.67150493,11,1,1,0,0,2.2773,fixationPoint,365.966,366.063,366.0631,366.2571,28.67150493,8191.858553,493.5594778,s,1,0.1877,,366.2571,366.4569,,,,,,,,41,-224,32,160,161,30,166,125,118,-173,-114,-126,-164,-16,-26,119,-172,28,-221,112,-32,-174,23,-213,222,270,360,90,90,90,360,360,270,270,360,270,,,,,,,,,,,366.4569,366.457,,0,17,17,17,1,4,repeated,,,,,,,,,,,,,,,,,,,,,,,,,,,,,,,,,,,,,,,,,,,,,,,,,
,,22,8,${e://Field/PROLIFIC_PID,F,18,2023-11-03_23h00.46.245,MouseEye_CC,2023.2.2,Win32,162.8664495,1.023982319,,,1920,1080,44.375,3.68,"232.36, 305.93, 194.91, 205.56, 173.29, 131.21, 109.04",608.46,7.745685062,28.50412103,27.83653633,Passed,95.48880544,,,,,,,,,,,,,,,,,,,,training,2,3,0,left,a,,,,,366.4573,367.6267,28.67150493,-4,0,1,0,0,1.1692,fixationPoint,367.6268,367.7237,367.7237,367.9175,28.67150493,8191.858553,493.5594778,a,1,0.1915,,367.9176,368.1175,,,,,,,,31,-216,64,74,116,222,113,24,212,-173,-114,-168,-174,-17,-222,117,-124,165,-19,27,-120,-67,126,-119,213,180,360,270,360,90,270,90,360,90,90,270,,,,,,,,,,,368.1175,368.1177,,0,18,18,18,1,15,novel,,,,,,,,,,,,,,,,,,,,,,,,,,,,,,,,,,,,,,,,,,,,,,,,,
,,22,8,${e://Field/PROLIFIC_PID,F,18,2023-11-03_23h00.46.245,MouseEye_CC,2023.2.2,Win32,162.8664495,1.023982319,,,1920,1080,44.375,3.68,"232.36, 305.93, 194.91, 205.56, 173.29, 131.21, 109.04",608.46,7.745685062,28.50412103,27.83653633,Passed,95.48880544,,,,,,,,,,,,,,,,,,,,training,2,4,0,left,a,,,,,368.1182,368.9785,28.67150493,-4,0,1,0,0,0.8601,fixationPoint,368.9786,369.0755,369.0756,369.1963,28.67150493,8191.858553,493.5594778,a,1,0.1128,,369.1963,369.3963,,,,,,,,84,-73,-165,125,118,74,23,80,220,-31,169,-116,74,-176,122,224,-75,117,-124,69,-220,-26,-66,-116,-125,270,180,90,90,270,90,270,270,360,90,180,,,,,,,,,,,369.3964,369.3966,,0,19,19,19,1,9,novel,,,,,,,,,,,,,,,,,,,,,,,,,,,,,,,,,,,,,,,,,,,,,,,,,
,,22,8,${e://Field/PROLIFIC_PID,F,18,2023-11-03_23h00.46.245,MouseEye_CC,2023.2.2,Win32,162.8664495,1.023982319,,,1920,1080,44.375,3.68,"232.36, 305.93, 194.91, 205.56, 173.29, 131.21, 109.04",608.46,7.745685062,28.50412103,27.83653633,Passed,95.48880544,,,,,,,,,,,,,,,,,,,,training,2,5,0,left,a,,,,,369.3969,370.2219,28.67150493,-4,0,1,0,0,0.8247,fixationPoint,370.2221,370.3236,370.3236,370.4751,28.67150493,8191.858553,493.5594778,a,1,0.1494,,370.4752,370.675,,,,,,,,32,-166,79,208,211,74,116,78,67,-68,-209,-116,-125,-213,-74,112,-32,168,-121,117,-124,-213,222,-119,213,90,90,180,180,180,90,360,90,180,360,180,,,,,,,,,,,370.675,370.6751,,0,20,20,20,1,16,novel,,,,,,,,,,,,,,,,,,,,,,,,,,,,,,,,,,,,,,,,,,,,,,,,,
,,22,8,${e://Field/PROLIFIC_PID,F,18,2023-11-03_23h00.46.245,MouseEye_CC,2023.2.2,Win32,162.8664495,1.023982319,,,1920,1080,44.375,3.68,"232.36, 305.93, 194.91, 205.56, 173.29, 131.21, 109.04",608.46,7.745685062,28.50412103,27.83653633,Passed,95.48880544,,,,,,,,,,,,,,,,,,,,training,2,6,0,left,a,,,,,370.6755,371.1478,28.67150493,-5,0,1,0,0,0.4722,fixationPoint,371.1478,371.2447,371.2448,372.2994,28.67150493,8191.858553,493.5594778,a,1,1.0485,,372.2995,372.4992,,,,,,,,60,209,-18,209,72,124,172,208,211,-28,79,-213,222,-116,74,-68,-209,-170,-32,-214,-170,73,-20,175,-168,180,180,270,90,270,270,270,360,360,360,180,,,,,,,,,,,372.4993,372.4994,,0,21,21,21,1,12,novel,,,,,,,,,,,,,,,,,,,,,,,,,,,,,,,,,,,,,,,,,,,,,,,,,
,,22,8,${e://Field/PROLIFIC_PID,F,18,2023-11-03_23h00.46.245,MouseEye_CC,2023.2.2,Win32,162.8664495,1.023982319,,,1920,1080,44.375,3.68,"232.36, 305.93, 194.91, 205.56, 173.29, 131.21, 109.04",608.46,7.745685062,28.50412103,27.83653633,Passed,95.48880544,,,,,,,,,,,,,,,,,,,,training,2,7,180,right,s,,,,,372.4997,372.5901,28.67150493,-5,0,1,0,0,0.0902,fixationPoint,372.5901,372.6872,372.6872,373.2574,28.67150493,8191.858553,493.5594778,s,1,0.5657,,373.2576,373.457,,,,,,,,82,-168,-174,176,69,167,124,78,67,-176,122,-218,124,-21,120,224,-75,165,-19,28,-221,-216,-215,-32,-124,180,180,270,270,270,180,360,180,90,180,270,,,,,,,,,,,373.4571,373.4574,,0,22,22,22,1,5,repeated,,,,,,,,,,,,,,,,,,,,,,,,,,,,,,,,,,,,,,,,,,,,,,,,,
,,22,8,${e://Field/PROLIFIC_PID,F,18,2023-11-03_23h00.46.245,MouseEye_CC,2023.2.2,Win32,162.8664495,1.023982319,,,1920,1080,44.375,3.68,"232.36, 305.93, 194.91, 205.56, 173.29, 131.21, 109.04",608.46,7.745685062,28.50412103,27.83653633,Passed,95.48880544,,,,,,,,,,,,,,,,,,,,training,2,8,0,left,a,,,,,373.458,373.7659,28.67150493,-5,0,1,0,0,0.3078,fixationPoint,373.766,373.8628,373.8629,374.0084,28.67150493,8191.858553,493.5594778,a,1,0.142,,374.0084,374.2083,,,,,,,,4,-72,224,112,64,222,113,30,166,-126,-164,-170,-68,-80,-23,20,-161,121,-70,79,-76,-176,122,-77,162,360,90,90,90,180,360,90,270,90,180,360,,,,,,,,,,,374.2083,374.2085,,0,23,23,23,1,3,repeated,,,,,,,,,,,,,,,,,,,,,,,,,,,,,,,,,,,,,,,,,,,,,,,,,
,,22,8,${e://Field/PROLIFIC_PID,F,18,2023-11-03_23h00.46.245,MouseEye_CC,2023.2.2,Win32,162.8664495,1.023982319,,,1920,1080,44.375,3.68,"232.36, 305.93, 194.91, 205.56, 173.29, 131.21, 109.04",608.46,7.745685062,28.50412103,27.83653633,Passed,95.48880544,,,,,,,,,,,,,,,,,,,,training,2,9,180,right,s,,,,,374.2089,374.7179,28.67150493,-5,0,1,0,0,0.5088,fixationPoint,374.7179,374.8147,374.8149,374.9235,28.67150493,8191.858553,493.5594778,s,1,0.1011,,374.9236,375.1235,,,,,,,,17,76,165,-216,64,-116,160,-218,124,-68,-209,-114,-32,-170,-68,209,-18,173,-77,119,-172,176,69,160,161,360,90,90,180,270,90,90,180,90,180,90,,,,,,,,,,,375.1235,375.1236,,0,24,24,24,1,1,repeated,,,,,,,,,,,,,,,,,,,,,,,,,,,,,,,,,,,,,,,,,,,,,,,,,
,,22,8,${e://Field/PROLIFIC_PID,F,18,2023-11-03_23h00.46.245,MouseEye_CC,2023.2.2,Win32,162.8664495,1.023982319,,,1920,1080,44.375,3.68,"232.36, 305.93, 194.91, 205.56, 173.29, 131.21, 109.04",608.46,7.745685062,28.50412103,27.83653633,Passed,95.48880544,,,,,,,,,,,,,,,,,,,,training,2,10,180,right,s,,,,,375.124,375.5234,28.67150493,-5,0,1,0,0,0.3994,fixationPoint,375.5235,375.6204,375.6204,375.6628,28.67150493,8191.858553,493.5594778,s,1,0.0395,,375.6629,375.8628,,,,,,,,40,209,72,-221,169,-116,74,-29,210,-218,-127,-70,-117,-173,-114,209,-18,224,-75,28,-64,112,64,160,161,270,180,90,360,270,90,360,90,90,360,270,,,,,,,,,,,375.8628,375.863,,0,25,25,25,1,2,repeated,,,,,,,,,,,,,,,,,,,,,,,,,,,,,,,,,,,,,,,,,,,,,,,,,
,,22,8,${e://Field/PROLIFIC_PID,F,18,2023-11-03_23h00.46.245,MouseEye_CC,2023.2.2,Win32,162.8664495,1.023982319,,,1920,1080,44.375,3.68,"232.36, 305.93, 194.91, 205.56, 173.29, 131.21, 109.04",608.46,7.745685062,28.50412103,27.83653633,Passed,95.48880544,,,,,,,,,,,,,,,,,,,,training,2,11,180,right,s,,,,,375.8633,376.2689,28.67150493,-5,0,1,0,0,0.4054,fixationPoint,376.2689,376.3659,376.3659,376.4567,28.67150493,8191.858553,493.5594778,s,1,0.087,,376.4568,376.6567,,,,,,,,97,69,-220,208,211,74,116,24,212,-128,16,-218,124,-120,120,-173,-216,-30,-161,-126,-216,79,-76,119,-172,270,360,180,360,90,270,360,270,270,180,270,,,,,,,,,,,376.6567,376.6569,,0,26,26,26,1,11,novel,,,,,,,,,,,,,,,,,,,,,,,,,,,,,,,,,,,,,,,,,,,,,,,,,
,,22,8,${e://Field/PROLIFIC_PID,F,18,2023-11-03_23h00.46.245,MouseEye_CC,2023.2.2,Win32,162.8664495,1.023982319,,,1920,1080,44.375,3.68,"232.36, 305.93, 194.91, 205.56, 173.29, 131.21, 109.04",608.46,7.745685062,28.50412103,27.83653633,Passed,95.48880544,,,,,,,,,,,,,,,,,,,,training,2,12,0,left,a,,,,,376.6573,377.051,28.67150493,-5,0,1,0,0,0.3936,fixationPoint,377.0511,377.1481,377.1481,377.3903,28.67150493,8191.858553,493.5594778,a,1,0.2332,,377.3903,377.5901,,,,,,,,61,-213,-74,30,166,124,172,175,28,-116,74,-29,210,-120,120,208,-126,224,-75,216,-224,-214,-170,-216,-215,270,270,360,360,270,180,360,360,270,90,90,,,,,,,,,,,377.5901,377.5902,,0,27,27,27,1,10,novel,,,,,,,,,,,,,,,,,,,,,,,,,,,,,,,,,,,,,,,,,,,,,,,,,
,,22,8,${e://Field/PROLIFIC_PID,F,18,2023-11-03_23h00.46.245,MouseEye_CC,2023.2.2,Win32,162.8664495,1.023982319,,,1920,1080,44.375,3.68,"232.36, 305.93, 194.91, 205.56, 173.29, 131.21, 109.04",608.46,7.745685062,28.50412103,27.83653633,Passed,95.48880544,,,,,,,,,,,,,,,,,,,,training,2,13,0,left,a,,,,,377.5906,378.4328,28.67150493,-5,0,1,0,0,0.8421,fixationPoint,378.4329,378.5294,378.5294,378.8022,28.67150493,8191.858553,493.5594778,a,1,0.2685,,378.8022,379.0025,,,,,,,,69,173,-77,78,67,80,220,167,124,-65,77,-166,79,-174,23,-70,-117,-213,-74,-32,-124,69,-124,216,-224,270,180,180,360,90,270,270,180,180,360,90,,,,,,,,,,,379.0026,379.0029,,0,28,28,28,1,8,repeated,,,,,,,,,,,,,,,,,,,,,,,,,,,,,,,,,,,,,,,,,,,,,,,,,
,,22,8,${e://Field/PROLIFIC_PID,F,18,2023-11-03_23h00.46.245,MouseEye_CC,2023.2.2,Win32,162.8664495,1.023982319,,,1920,1080,44.375,3.68,"232.36, 305.93, 194.91, 205.56, 173.29, 131.21, 109.04",608.46,7.745685062,28.50412103,27.83653633,Passed,95.48880544,,,,,,,,,,,,,,,,,,,,training,2,14,180,right,s,,,,,379.0039,380.1416,28.67150493,-5,0,1,0,0,1.1376,fixationPoint,380.1418,380.2387,380.2387,380.3598,28.67150493,8191.858553,493.5594778,s,1,0.1162,,380.3598,380.5596,,,,,,,,30,222,113,-174,23,-166,79,-29,210,-218,-127,-116,-125,-126,-164,216,-224,72,-166,175,-168,209,167,25,112,90,180,360,90,90,270,270,90,180,360,90,,,,,,,,,,,380.5597,380.5598,,0,29,29,29,1,14,novel,,,,,,,,,,,,,,,,,,,,,,,,,,,,,,,,,,,,,,,,,,,,,,,,,
,,22,8,${e://Field/PROLIFIC_PID,F,18,2023-11-03_23h00.46.245,MouseEye_CC,2023.2.2,Win32,162.8664495,1.023982319,,,1920,1080,44.375,3.68,"232.36, 305.93, 194.91, 205.56, 173.29, 131.21, 109.04",608.46,7.745685062,28.50412103,27.83653633,Passed,95.48880544,,,,,,,,,,,,,,,,,,,,training,2,15,180,right,s,,,,,380.5602,380.7908,28.67150493,-5,0,1,0,0,0.2303,fixationPoint,380.7909,380.887,380.887,381.9718,28.67150493,8191.858553,493.5594778,s,1,1.0786,,381.9719,382.1717,,,,,,,,70,224,-75,112,64,213,32,20,27,-224,32,-31,169,-119,213,-173,-216,-126,-216,-116,-125,69,-124,165,-19,180,90,180,360,90,90,90,180,180,90,90,,,,,,,,,,,382.1719,382.172,,0,30,30,30,1,7,repeated,,,,,,,,,,,,,,,,,,,,,,,,,,,,,,,,,,,,,,,,,,,,,,,,,
,,22,8,${e://Field/PROLIFIC_PID,F,18,2023-11-03_23h00.46.245,MouseEye_CC,2023.2.2,Win32,162.8664495,1.023982319,,,1920,1080,44.375,3.68,"232.36, 305.93, 194.91, 205.56, 173.29, 131.21, 109.04",608.46,7.745685062,28.50412103,27.83653633,Passed,95.48880544,,,,,,,,,,,,,,,,,,,,training,2,16,180,right,s,,,,,382.1723,382.5112,28.67150493,-5,0,1,0,0,0.3388,fixationPoint,382.5113,382.6081,382.6082,383.7415,28.67150493,8191.858553,493.5594778,s,1,1.1307,,383.7415,383.9416,,,,,,,,19,160,161,-116,160,-213,222,-31,169,-213,-74,-173,-114,-73,-165,165,-19,72,-166,27,-120,176,69,78,67,270,90,360,270,270,360,360,180,180,90,360,,,,,,,,,,,383.9417,401.2687,space,0,31,31,31,1,13,novel,17.3182,,,,,,,,,,,,,,,,,,,,,,,,,,,,,,,,,,,,,,,,,,,,,,,,
,,22,8,${e://Field/PROLIFIC_PID,F,18,2023-11-03_23h00.46.245,MouseEye_CC,2023.2.2,Win32,162.8664495,1.023982319,,,1920,1080,44.375,3.68,"232.36, 305.93, 194.91, 205.56, 173.29, 131.21, 109.04",608.46,7.745685062,28.50412103,27.83653633,Passed,95.48880544,,,,,,,,,,,,,,,,,,,,training,3,1,180,right,s,,,,,401.27,405.6563,28.67150493,21,68,1,0,0,2.5197,fixationPoint,405.6564,405.7533,405.7533,405.9292,28.67150493,8191.858553,493.5594778,s,1,0.1697,,405.9293,406.129,,,,,,,,41,-224,32,160,161,30,166,125,118,-173,-114,-126,-164,-16,-26,119,-172,28,-221,112,-32,-174,23,-213,222,90,90,90,180,360,90,360,360,90,270,270,,,,,,,,,,,406.1291,406.1302,,0,32,32,32,1,4,repeated,,,,,,,,,,,,,,,,,,,,,,,,,,,,,,,,,,,,,,,,,,,,,,,,,
,,22,8,${e://Field/PROLIFIC_PID,F,18,2023-11-03_23h00.46.245,MouseEye_CC,2023.2.2,Win32,162.8664495,1.023982319,,,1920,1080,44.375,3.68,"232.36, 305.93, 194.91, 205.56, 173.29, 131.21, 109.04",608.46,7.745685062,28.50412103,27.83653633,Passed,95.48880544,,,,,,,,,,,,,,,,,,,,training,3,2,0,left,a,,,,,406.1307,407.5053,28.67150493,-11,-11,1,0,0,1.3744,fixationPoint,407.5054,407.6021,407.6023,407.8078,28.67150493,8191.858553,493.5594778,a,1,0.2016,,407.8079,408.0078,,,,,,,,71,-218,-127,208,211,124,172,125,118,-176,122,-224,32,-216,64,28,-221,215,-168,28,-24,-80,-23,-223,-31,180,180,270,360,90,270,270,360,180,270,180,,,,,,,,,,,408.0079,408.0081,,0,33,33,33,1,6,repeated,,,,,,,,,,,,,,,,,,,,,,,,,,,,,,,,,,,,,,,,,,,,,,,,,
,,22,8,${e://Field/PROLIFIC_PID,F,18,2023-11-03_23h00.46.245,MouseEye_CC,2023.2.2,Win32,162.8664495,1.023982319,,,1920,1080,44.375,3.68,"232.36, 305.93, 194.91, 205.56, 173.29, 131.21, 109.04",608.46,7.745685062,28.50412103,27.83653633,Passed,95.48880544,,,,,,,,,,,,,,,,,,,,training,3,3,0,left,a,,,,,408.0084,410.1232,28.67150493,-17,11,1,0,0,1.8841,fixationPoint,410.1233,410.2198,410.2199,410.2503,28.67150493,8191.858553,493.5594778,a,1,0.0281,,410.2503,410.4502,,,,,,,,30,222,113,-77,162,-67,17,-19,16,-218,-127,-26,-66,-214,-170,79,-76,123,-220,216,-224,112,64,24,212,360,360,180,270,90,90,270,360,90,270,270,,,,,,,,,,,410.4502,410.4503,,0,34,34,34,1,14,novel,,,,,,,,,,,,,,,,,,,,,,,,,,,,,,,,,,,,,,,,,,,,,,,,,
,,22,8,${e://Field/PROLIFIC_PID,F,18,2023-11-03_23h00.46.245,MouseEye_CC,2023.2.2,Win32,162.8664495,1.023982319,,,1920,1080,44.375,3.68,"232.36, 305.93, 194.91, 205.56, 173.29, 131.21, 109.04",608.46,7.745685062,28.50412103,27.83653633,Passed,95.48880544,,,,,,,,,,,,,,,,,,,,training,3,4,0,left,a,,,,,410.4507,411.5839,28.67150493,1,7,1,0,0,1.1328,fixationPoint,411.584,411.6805,411.6806,411.7592,28.67150493,8191.858553,493.5594778,a,1,0.0732,,411.7593,411.9593,,,,,,,,17,76,165,-216,64,-116,160,-218,124,-68,-209,-114,-32,-170,-68,209,-18,173,-77,119,-172,176,69,160,161,270,180,270,270,90,360,360,90,270,360,270,,,,,,,,,,,411.9593,411.9595,,0,35,35,35,1,1,repeated,,,,,,,,,,,,,,,,,,,,,,,,,,,,,,,,,,,,,,,,,,,,,,,,,
,,22,8,${e://Field/PROLIFIC_PID,F,18,2023-11-03_23h00.46.245,MouseEye_CC,2023.2.2,Win32,162.8664495,1.023982319,,,1920,1080,44.375,3.68,"232.36, 305.93, 194.91, 205.56, 173.29, 131.21, 109.04",608.46,7.745685062,28.50412103,27.83653633,Passed,95.48880544,,,,,,,,,,,,,,,,,,,,training,3,5,180,right,s,,,,,411.9598,413.7712,28.67150493,3,16,1,0,0,1.1448,fixationPoint,413.7713,413.8683,413.8683,414.5534,28.67150493,8191.858553,493.5594778,s,1,0.6823,,414.5535,414.7532,,,,,,,,60,209,-18,25,112,112,64,213,32,-224,32,-67,17,-19,16,-170,-32,-124,-69,-73,-165,216,-224,168,-121,270,90,270,360,90,180,270,180,180,360,270,,,,,,,,,,,414.7533,414.7535,,0,36,36,36,1,12,novel,,,,,,,,,,,,,,,,,,,,,,,,,,,,,,,,,,,,,,,,,,,,,,,,,
,,22,8,${e://Field/PROLIFIC_PID,F,18,2023-11-03_23h00.46.245,MouseEye_CC,2023.2.2,Win32,162.8664495,1.023982319,,,1920,1080,44.375,3.68,"232.36, 305.93, 194.91, 205.56, 173.29, 131.21, 109.04",608.46,7.745685062,28.50412103,27.83653633,Passed,95.48880544,,,,,,,,,,,,,,,,,,,,training,3,6,0,left,a,,,,,414.7545,416.5773,28.67150493,21,15,1,0,0,0.9017,fixationPoint,416.5774,416.6743,416.6743,416.8804,28.67150493,8191.858553,493.5594778,a,1,0.2035,,416.8805,417.0803,,,,,,,,61,-213,-74,167,124,209,167,126,29,-67,17,-19,16,-128,16,224,-75,175,-168,216,-224,-68,-209,-170,-68,90,270,90,270,180,270,270,90,270,90,90,,,,,,,,,,,417.0803,417.0804,,0,37,37,37,1,10,novel,,,,,,,,,,,,,,,,,,,,,,,,,,,,,,,,,,,,,,,,,,,,,,,,,
,,22,8,${e://Field/PROLIFIC_PID,F,18,2023-11-03_23h00.46.245,MouseEye_CC,2023.2.2,Win32,162.8664495,1.023982319,,,1920,1080,44.375,3.68,"232.36, 305.93, 194.91, 205.56, 173.29, 131.21, 109.04",608.46,7.745685062,28.50412103,27.83653633,Passed,95.48880544,,,,,,,,,,,,,,,,,,,,training,3,7,0,left,a,,,,,417.0807,418.1718,28.67150493,1,2,1,0,0,1.0908,fixationPoint,418.1719,418.2682,418.2683,418.7107,28.67150493,8191.858553,493.5594778,a,1,0.4359,,418.7107,418.9107,,,,,,,,69,173,-77,78,67,80,220,167,124,-65,77,-166,79,-174,23,-70,-117,-213,-74,-32,-124,69,-124,216,-224,90,90,360,90,270,270,180,90,90,360,360,,,,,,,,,,,418.9107,418.9109,,0,38,38,38,1,8,repeated,,,,,,,,,,,,,,,,,,,,,,,,,,,,,,,,,,,,,,,,,,,,,,,,,
,,22,8,${e://Field/PROLIFIC_PID,F,18,2023-11-03_23h00.46.245,MouseEye_CC,2023.2.2,Win32,162.8664495,1.023982319,,,1920,1080,44.375,3.68,"232.36, 305.93, 194.91, 205.56, 173.29, 131.21, 109.04",608.46,7.745685062,28.50412103,27.83653633,Passed,95.48880544,,,,,,,,,,,,,,,,,,,,training,3,8,0,left,a,,,,,418.9113,419.2322,28.67150493,1,2,1,0,0,0.3208,fixationPoint,419.2324,419.3293,419.3294,420.2138,28.67150493,8191.858553,493.5594778,a,1,0.8788,,420.2138,420.4137,,,,,,,,40,209,72,-221,169,-116,74,-29,210,-218,-127,-70,-117,-173,-114,209,-18,224,-75,28,-64,112,64,160,161,180,360,360,90,180,360,360,90,180,270,90,,,,,,,,,,,420.4138,420.4139,,0,39,39,39,1,2,repeated,,,,,,,,,,,,,,,,,,,,,,,,,,,,,,,,,,,,,,,,,,,,,,,,,
,,22,8,${e://Field/PROLIFIC_PID,F,18,2023-11-03_23h00.46.245,MouseEye_CC,2023.2.2,Win32,162.8664495,1.023982319,,,1920,1080,44.375,3.68,"232.36, 305.93, 194.91, 205.56, 173.29, 131.21, 109.04",608.46,7.745685062,28.50412103,27.83653633,Passed,95.48880544,,,,,,,,,,,,,,,,,,,,training,3,9,0,left,a,,,,,420.4143,421.1535,28.67150493,1,2,1,0,0,0.7389,fixationPoint,421.1535,421.2504,421.2505,421.5895,28.67150493,8191.858553,493.5594778,a,1,0.3339,,421.5895,421.7894,,,,,,,,84,-73,-165,76,165,24,212,20,72,-116,74,-119,213,-221,169,121,-70,28,-64,164,-211,-216,-215,-170,-68,270,90,270,180,90,180,360,270,360,180,180,,,,,,,,,,,421.7894,421.7894,,0,40,40,40,1,9,novel,,,,,,,,,,,,,,,,,,,,,,,,,,,,,,,,,,,,,,,,,,,,,,,,,
,,22,8,${e://Field/PROLIFIC_PID,F,18,2023-11-03_23h00.46.245,MouseEye_CC,2023.2.2,Win32,162.8664495,1.023982319,,,1920,1080,44.375,3.68,"232.36, 305.93, 194.91, 205.56, 173.29, 131.21, 109.04",608.46,7.745685062,28.50412103,27.83653633,Passed,95.48880544,,,,,,,,,,,,,,,,,,,,training,3,10,180,right,s,,,,,421.7899,422.6926,28.67150493,1,2,1,0,0,0.9026,fixationPoint,422.6926,422.7895,422.7895,423.1954,28.67150493,8191.858553,493.5594778,s,1,0.3988,,423.1955,423.3954,,,,,,,,70,224,-75,112,64,213,32,20,27,-224,32,-31,169,-119,213,-173,-216,-126,-216,-116,-125,69,-124,165,-19,270,360,90,180,360,270,270,90,270,180,180,,,,,,,,,,,423.3954,423.3956,,0,41,41,41,1,7,repeated,,,,,,,,,,,,,,,,,,,,,,,,,,,,,,,,,,,,,,,,,,,,,,,,,
,,22,8,${e://Field/PROLIFIC_PID,F,18,2023-11-03_23h00.46.245,MouseEye_CC,2023.2.2,Win32,162.8664495,1.023982319,,,1920,1080,44.375,3.68,"232.36, 305.93, 194.91, 205.56, 173.29, 131.21, 109.04",608.46,7.745685062,28.50412103,27.83653633,Passed,95.48880544,,,,,,,,,,,,,,,,,,,,training,3,11,180,right,s,,,,,423.3959,424.4136,28.67150493,1,2,1,0,0,1.0177,fixationPoint,424.4137,424.5105,424.5106,424.7354,28.67150493,8191.858553,493.5594778,s,1,0.2185,,424.7355,424.9347,,,,,,,,97,69,-220,160,161,74,116,222,113,-221,169,-72,224,-120,120,-170,-68,-26,-66,-68,-209,72,-166,168,-121,360,270,180,180,90,360,270,90,270,270,90,,,,,,,,,,,424.9348,424.9348,,0,42,42,42,1,11,novel,,,,,,,,,,,,,,,,,,,,,,,,,,,,,,,,,,,,,,,,,,,,,,,,,
,,22,8,${e://Field/PROLIFIC_PID,F,18,2023-11-03_23h00.46.245,MouseEye_CC,2023.2.2,Win32,162.8664495,1.023982319,,,1920,1080,44.375,3.68,"232.36, 305.93, 194.91, 205.56, 173.29, 131.21, 109.04",608.46,7.745685062,28.50412103,27.83653633,Passed,95.48880544,,,,,,,,,,,,,,,,,,,,training,3,12,0,left,a,,,,,424.9351,425.3836,28.67150493,1,2,1,0,0,0.4484,fixationPoint,425.3837,425.4804,425.4805,426.2444,28.67150493,8191.858553,493.5594778,a,1,0.7578,,426.2446,426.4443,,,,,,,,4,-72,224,112,64,222,113,30,166,-126,-164,-170,-68,-80,-23,20,-161,121,-70,79,-76,-176,122,-77,162,270,360,360,90,90,180,270,180,270,90,90,,,,,,,,,,,426.4444,426.4447,,0,43,43,43,1,3,repeated,,,,,,,,,,,,,,,,,,,,,,,,,,,,,,,,,,,,,,,,,,,,,,,,,
,,22,8,${e://Field/PROLIFIC_PID,F,18,2023-11-03_23h00.46.245,MouseEye_CC,2023.2.2,Win32,162.8664495,1.023982319,,,1920,1080,44.375,3.68,"232.36, 305.93, 194.91, 205.56, 173.29, 131.21, 109.04",608.46,7.745685062,28.50412103,27.83653633,Passed,95.48880544,,,,,,,,,,,,,,,,,,,,training,3,13,180,right,s,,,,,426.4456,426.6684,28.67150493,1,3,1,0,0,0.2227,fixationPoint,426.6686,426.7653,426.7655,427.0014,28.67150493,8191.858553,493.5594778,s,1,0.2329,,427.0015,427.2019,,,,,,,,31,-216,64,20,27,74,23,176,69,-64,-67,-168,-174,-70,-117,208,-126,175,-168,73,-20,-29,210,-224,32,180,180,360,90,360,270,270,180,90,270,360,,,,,,,,,,,427.202,427.2023,,0,44,44,44,1,15,novel,,,,,,,,,,,,,,,,,,,,,,,,,,,,,,,,,,,,,,,,,,,,,,,,,
,,22,8,${e://Field/PROLIFIC_PID,F,18,2023-11-03_23h00.46.245,MouseEye_CC,2023.2.2,Win32,162.8664495,1.023982319,,,1920,1080,44.375,3.68,"232.36, 305.93, 194.91, 205.56, 173.29, 131.21, 109.04",608.46,7.745685062,28.50412103,27.83653633,Passed,95.48880544,,,,,,,,,,,,,,,,,,,,training,3,14,180,right,s,,,,,427.2032,427.7351,28.67150493,1,3,1,0,0,0.5317,fixationPoint,427.7353,427.8322,427.8322,427.9105,28.67150493,8191.858553,493.5594778,s,1,0.0735,,427.9105,428.1104,,,,,,,,82,-168,-174,176,69,167,124,78,67,-176,122,-218,124,-21,120,224,-75,165,-19,28,-221,-216,-215,-32,-124,180,180,360,270,90,90,360,180,180,90,90,,,,,,,,,,,428.1104,428.1106,,0,45,45,45,1,5,repeated,,,,,,,,,,,,,,,,,,,,,,,,,,,,,,,,,,,,,,,,,,,,,,,,,
,,22,8,${e://Field/PROLIFIC_PID,F,18,2023-11-03_23h00.46.245,MouseEye_CC,2023.2.2,Win32,162.8664495,1.023982319,,,1920,1080,44.375,3.68,"232.36, 305.93, 194.91, 205.56, 173.29, 131.21, 109.04",608.46,7.745685062,28.50412103,27.83653633,Passed,95.48880544,,,,,,,,,,,,,,,,,,,,training,3,15,180,right,s,,,,,428.111,428.8381,28.67150493,1,3,1,0,0,0.7269,fixationPoint,428.8382,428.9352,428.9353,429.1226,28.67150493,8191.858553,493.5594778,s,1,0.1797,,429.1226,429.3224,,,,,,,,19,160,161,-72,224,-176,122,-67,17,-216,-215,-116,-125,-223,-31,165,-19,209,-18,28,-221,126,29,124,172,270,90,180,360,270,360,270,90,90,270,270,,,,,,,,,,,429.3224,429.3226,,0,46,46,46,1,13,novel,,,,,,,,,,,,,,,,,,,,,,,,,,,,,,,,,,,,,,,,,,,,,,,,,
,,22,8,${e://Field/PROLIFIC_PID,F,18,2023-11-03_23h00.46.245,MouseEye_CC,2023.2.2,Win32,162.8664495,1.023982319,,,1920,1080,44.375,3.68,"232.36, 305.93, 194.91, 205.56, 173.29, 131.21, 109.04",608.46,7.745685062,28.50412103,27.83653633,Passed,95.48880544,,,,,,,,,,,,,,,,,,,,training,3,16,180,right,s,,,,,429.3228,429.6626,28.67150493,1,3,1,0,0,0.3395,fixationPoint,429.6628,429.7591,429.7593,429.856,28.67150493,8191.858553,493.5594778,s,1,0.0935,,429.8561,430.0559,,,,,,,,32,-166,79,208,211,20,27,124,172,-68,-209,-73,-165,-80,-23,28,-64,79,-76,73,-20,-31,169,-221,169,90,180,270,360,270,180,360,90,90,90,180,,,,,,,,,,,430.0559,431.2317,space,0,47,47,47,1,16,novel,1.1708,,,,,,,,,,,,,,,,,,,,,,,,,,,,,,,,,,,,,,,,,,,,,,,,
,,22,8,${e://Field/PROLIFIC_PID,F,18,2023-11-03_23h00.46.245,MouseEye_CC,2023.2.2,Win32,162.8664495,1.023982319,,,1920,1080,44.375,3.68,"232.36, 305.93, 194.91, 205.56, 173.29, 131.21, 109.04",608.46,7.745685062,28.50412103,27.83653633,Passed,95.48880544,,,,,,,,,,,,,,,,,,,,training,4,1,180,right,s,,,,,431.232,432.0438,28.67150493,1,3,1,0,0,0.8117,fixationPoint,432.0439,432.1408,432.1408,432.2862,28.67150493,8191.858553,493.5594778,s,1,0.1433,,432.2863,432.4862,,,,,,,,69,173,-77,78,67,80,220,167,124,-65,77,-166,79,-174,23,-70,-117,-213,-74,-32,-124,69,-124,216,-224,360,90,270,360,360,360,90,270,90,270,270,,,,,,,,,,,432.4862,432.487,,0,48,48,48,1,8,repeated,,,,,,,,,,,,,,,,,,,,,,,,,,,,,,,,,,,,,,,,,,,,,,,,,
,,22,8,${e://Field/PROLIFIC_PID,F,18,2023-11-03_23h00.46.245,MouseEye_CC,2023.2.2,Win32,162.8664495,1.023982319,,,1920,1080,44.375,3.68,"232.36, 305.93, 194.91, 205.56, 173.29, 131.21, 109.04",608.46,7.745685062,28.50412103,27.83653633,Passed,95.48880544,,,,,,,,,,,,,,,,,,,,training,4,2,0,left,a,,,,,432.4874,433.226,28.67150493,1,3,1,0,0,0.7384,fixationPoint,433.2261,433.3228,433.3229,433.4316,28.67150493,8191.858553,493.5594778,a,1,0.1019,,433.4316,433.6316,,,,,,,,4,-72,224,112,64,222,113,30,166,-126,-164,-170,-68,-80,-23,20,-161,121,-70,79,-76,-176,122,-77,162,90,90,90,360,180,270,90,180,360,90,180,,,,,,,,,,,433.6316,433.6318,,0,49,49,49,1,3,repeated,,,,,,,,,,,,,,,,,,,,,,,,,,,,,,,,,,,,,,,,,,,,,,,,,
,,22,8,${e://Field/PROLIFIC_PID,F,18,2023-11-03_23h00.46.245,MouseEye_CC,2023.2.2,Win32,162.8664495,1.023982319,,,1920,1080,44.375,3.68,"232.36, 305.93, 194.91, 205.56, 173.29, 131.21, 109.04",608.46,7.745685062,28.50412103,27.83653633,Passed,95.48880544,,,,,,,,,,,,,,,,,,,,training,4,3,0,left,a,,,,,433.6321,433.9468,28.67150493,1,3,1,0,0,0.3144,fixationPoint,433.9469,434.0437,434.0437,434.1589,28.67150493,8191.858553,493.5594778,a,1,0.1121,,434.1589,434.3588,,,,,,,,61,-213,-74,20,72,160,161,74,116,-77,162,-72,224,-176,122,224,-75,123,-220,72,-166,-16,-26,-17,-222,360,270,360,180,270,270,270,270,180,90,180,,,,,,,,,,,434.3588,434.359,,0,50,50,50,1,10,novel,,,,,,,,,,,,,,,,,,,,,,,,,,,,,,,,,,,,,,,,,,,,,,,,,
,,22,8,${e://Field/PROLIFIC_PID,F,18,2023-11-03_23h00.46.245,MouseEye_CC,2023.2.2,Win32,162.8664495,1.023982319,,,1920,1080,44.375,3.68,"232.36, 305.93, 194.91, 205.56, 173.29, 131.21, 109.04",608.46,7.745685062,28.50412103,27.83653633,Passed,95.48880544,,,,,,,,,,,,,,,,,,,,training,4,4,180,right,s,,,,,434.3594,434.4619,28.67150493,1,3,1,0,0,0.1024,fixationPoint,434.4619,434.5588,434.5588,434.7044,28.67150493,8191.858553,493.5594778,a,0,0.1393,,434.7045,438.7043,,,,,,,,70,224,-75,112,64,213,32,20,27,-224,32,-31,169,-119,213,-173,-216,-126,-216,-116,-125,69,-124,165,-19,180,180,360,90,360,360,360,270,270,90,180,,,,,,,,,,,438.7043,438.7044,,0,51,51,51,1,7,repeated,,,,,,,,,,,,,,,,,,,,,,,,,,,,,,,,,,,,,,,,,,,,,,,,,
,,22,8,${e://Field/PROLIFIC_PID,F,18,2023-11-03_23h00.46.245,MouseEye_CC,2023.2.2,Win32,162.8664495,1.023982319,,,1920,1080,44.375,3.68,"232.36, 305.93, 194.91, 205.56, 173.29, 131.21, 109.04",608.46,7.745685062,28.50412103,27.83653633,Passed,95.48880544,,,,,,,,,,,,,,,,,,,,training,4,5,0,left,a,,,,,438.705,439.1226,28.67150493,0,2,1,0,0,0.4176,fixationPoint,439.1227,439.2193,439.2194,439.844,28.67150493,8191.858553,493.5594778,a,1,0.6198,,439.8441,440.0438,,,,,,,,19,160,161,-224,32,-119,213,-29,210,-173,-114,-68,-209,-216,-215,164,-211,28,-64,121,-70,209,72,80,220,90,270,180,360,270,270,360,360,180,360,90,,,,,,,,,,,440.0439,440.0445,,0,52,52,52,1,13,novel,,,,,,,,,,,,,,,,,,,,,,,,,,,,,,,,,,,,,,,,,,,,,,,,,
,,22,8,${e://Field/PROLIFIC_PID,F,18,2023-11-03_23h00.46.245,MouseEye_CC,2023.2.2,Win32,162.8664495,1.023982319,,,1920,1080,44.375,3.68,"232.36, 305.93, 194.91, 205.56, 173.29, 131.21, 109.04",608.46,7.745685062,28.50412103,27.83653633,Passed,95.48880544,,,,,,,,,,,,,,,,,,,,training,4,6,180,right,s,,,,,440.0452,440.1347,28.67150493,0,2,1,0,0,0.0893,fixationPoint,440.1347,440.2319,440.232,440.6375,28.67150493,8191.858553,493.5594778,s,1,0.3985,,440.6375,440.8375,,,,,,,,97,69,-220,175,28,112,64,20,72,-166,79,-67,17,-119,213,-170,-32,-70,-117,-30,-161,168,-121,164,-211,360,360,180,90,180,180,180,360,270,360,180,,,,,,,,,,,440.8375,440.8377,,0,53,53,53,1,11,novel,,,,,,,,,,,,,,,,,,,,,,,,,,,,,,,,,,,,,,,,,,,,,,,,,
,,22,8,${e://Field/PROLIFIC_PID,F,18,2023-11-03_23h00.46.245,MouseEye_CC,2023.2.2,Win32,162.8664495,1.023982319,,,1920,1080,44.375,3.68,"232.36, 305.93, 194.91, 205.56, 173.29, 131.21, 109.04",608.46,7.745685062,28.50412103,27.83653633,Passed,95.48880544,,,,,,,,,,,,,,,,,,,,training,4,7,0,left,a,,,,,440.838,440.941,28.67150493,0,2,1,0,0,0.1027,fixationPoint,440.9412,441.0378,441.038,441.4679,28.67150493,8191.858553,493.5594778,a,1,0.4237,,441.4679,441.6681,,,,,,,,31,-216,64,76,165,176,69,222,113,-73,-165,-223,-31,-80,-23,119,-172,209,-18,69,-124,-218,124,-213,222,180,270,270,180,270,90,180,270,180,90,90,,,,,,,,,,,441.6682,441.6684,,0,54,54,54,1,15,novel,,,,,,,,,,,,,,,,,,,,,,,,,,,,,,,,,,,,,,,,,,,,,,,,,
,,22,8,${e://Field/PROLIFIC_PID,F,18,2023-11-03_23h00.46.245,MouseEye_CC,2023.2.2,Win32,162.8664495,1.023982319,,,1920,1080,44.375,3.68,"232.36, 305.93, 194.91, 205.56, 173.29, 131.21, 109.04",608.46,7.745685062,28.50412103,27.83653633,Passed,95.48880544,,,,,,,,,,,,,,,,,,,,training,4,8,0,left,a,,,,,441.6692,442.2258,28.67150493,-1,11,1,0,0,0.5563,fixationPoint,442.2259,442.3226,442.3227,442.4197,28.67150493,8191.858553,493.5594778,a,1,0.0937,,442.4198,442.6193,,,,,,,,32,-166,79,213,32,20,72,175,28,-68,-209,-126,-164,-126,-216,28,-221,216,-224,69,-220,-72,224,-224,32,270,360,270,90,180,180,180,90,270,270,270,,,,,,,,,,,442.6194,442.6194,,0,55,55,55,1,16,novel,,,,,,,,,,,,,,,,,,,,,,,,,,,,,,,,,,,,,,,,,,,,,,,,,
,,22,8,${e://Field/PROLIFIC_PID,F,18,2023-11-03_23h00.46.245,MouseEye_CC,2023.2.2,Win32,162.8664495,1.023982319,,,1920,1080,44.375,3.68,"232.36, 305.93, 194.91, 205.56, 173.29, 131.21, 109.04",608.46,7.745685062,28.50412103,27.83653633,Passed,95.48880544,,,,,,,,,,,,,,,,,,,,training,4,9,180,right,s,,,,,442.6198,443.2072,28.67150493,-1,11,1,0,0,0.5873,fixationPoint,443.2072,443.3042,443.3042,443.6859,28.67150493,8191.858553,493.5594778,s,1,0.376,,443.686,443.8861,,,,,,,,71,-218,-127,208,211,124,172,125,118,-176,122,-224,32,-216,64,28,-221,215,-168,28,-24,-80,-23,-223,-31,360,360,90,360,270,360,180,180,270,360,270,,,,,,,,,,,443.8861,443.8862,,0,56,56,56,1,6,repeated,,,,,,,,,,,,,,,,,,,,,,,,,,,,,,,,,,,,,,,,,,,,,,,,,
,,22,8,${e://Field/PROLIFIC_PID,F,18,2023-11-03_23h00.46.245,MouseEye_CC,2023.2.2,Win32,162.8664495,1.023982319,,,1920,1080,44.375,3.68,"232.36, 305.93, 194.91, 205.56, 173.29, 131.21, 109.04",608.46,7.745685062,28.50412103,27.83653633,Passed,95.48880544,,,,,,,,,,,,,,,,,,,,training,4,10,0,left,a,,,,,443.8865,444.0496,28.67150493,-1,11,1,0,0,0.163,fixationPoint,444.0497,444.1468,444.1469,444.4619,28.67150493,8191.858553,493.5594778,a,1,0.3084,,444.462,444.6617,,,,,,,,82,-168,-174,176,69,167,124,78,67,-176,122,-218,124,-21,120,224,-75,165,-19,28,-221,-216,-215,-32,-124,90,360,180,360,360,90,90,270,180,180,270,,,,,,,,,,,444.6618,444.6619,,0,57,57,57,1,5,repeated,,,,,,,,,,,,,,,,,,,,,,,,,,,,,,,,,,,,,,,,,,,,,,,,,
,,22,8,${e://Field/PROLIFIC_PID,F,18,2023-11-03_23h00.46.245,MouseEye_CC,2023.2.2,Win32,162.8664495,1.023982319,,,1920,1080,44.375,3.68,"232.36, 305.93, 194.91, 205.56, 173.29, 131.21, 109.04",608.46,7.745685062,28.50412103,27.83653633,Passed,95.48880544,,,,,,,,,,,,,,,,,,,,training,4,11,180,right,s,,,,,444.6622,444.7647,28.67150493,-1,11,1,0,0,0.1025,fixationPoint,444.7647,444.8619,444.8619,445.292,28.67150493,8191.858553,493.5594778,s,1,0.4263,,445.292,445.4919,,,,,,,,30,222,113,-120,120,-28,79,-29,210,-223,-31,-64,-67,-213,-74,79,-76,119,-172,27,-120,208,211,30,166,180,90,90,180,180,360,180,90,90,270,360,,,,,,,,,,,445.4919,445.4921,,0,58,58,58,1,14,novel,,,,,,,,,,,,,,,,,,,,,,,,,,,,,,,,,,,,,,,,,,,,,,,,,
,,22,8,${e://Field/PROLIFIC_PID,F,18,2023-11-03_23h00.46.245,MouseEye_CC,2023.2.2,Win32,162.8664495,1.023982319,,,1920,1080,44.375,3.68,"232.36, 305.93, 194.91, 205.56, 173.29, 131.21, 109.04",608.46,7.745685062,28.50412103,27.83653633,Passed,95.48880544,,,,,,,,,,,,,,,,,,,,training,4,12,0,left,a,,,,,445.4923,445.7283,28.67150493,-1,12,1,0,0,0.2359,fixationPoint,445.7283,445.8252,445.8252,446.0254,28.67150493,8191.858553,493.5594778,a,1,0.1942,,446.0254,446.2254,,,,,,,,41,-224,32,160,161,30,166,125,118,-173,-114,-126,-164,-16,-26,119,-172,28,-221,112,-32,-174,23,-213,222,180,270,270,90,360,90,90,360,90,180,360,,,,,,,,,,,446.2255,446.2255,,0,59,59,59,1,4,repeated,,,,,,,,,,,,,,,,,,,,,,,,,,,,,,,,,,,,,,,,,,,,,,,,,
,,22,8,${e://Field/PROLIFIC_PID,F,18,2023-11-03_23h00.46.245,MouseEye_CC,2023.2.2,Win32,162.8664495,1.023982319,,,1920,1080,44.375,3.68,"232.36, 305.93, 194.91, 205.56, 173.29, 131.21, 109.04",608.46,7.745685062,28.50412103,27.83653633,Passed,95.48880544,,,,,,,,,,,,,,,,,,,,training,4,13,0,left,a,,,,,446.2258,446.3041,28.67150493,-1,13,1,0,0,0.0781,fixationPoint,446.3041,446.401,446.4011,446.7405,28.67150493,8191.858553,493.5594778,a,1,0.3371,,446.7407,446.9404,,,,,,,,17,76,165,-216,64,-116,160,-218,124,-68,-209,-114,-32,-170,-68,209,-18,173,-77,119,-172,176,69,160,161,360,180,180,90,360,90,270,360,360,270,360,,,,,,,,,,,446.9404,446.9406,,0,60,60,60,1,1,repeated,,,,,,,,,,,,,,,,,,,,,,,,,,,,,,,,,,,,,,,,,,,,,,,,,
,,22,8,${e://Field/PROLIFIC_PID,F,18,2023-11-03_23h00.46.245,MouseEye_CC,2023.2.2,Win32,162.8664495,1.023982319,,,1920,1080,44.375,3.68,"232.36, 305.93, 194.91, 205.56, 173.29, 131.21, 109.04",608.46,7.745685062,28.50412103,27.83653633,Passed,95.48880544,,,,,,,,,,,,,,,,,,,,training,4,14,180,right,s,,,,,446.9409,447.098,28.67150493,-1,13,1,0,0,0.157,fixationPoint,447.0982,447.195,447.195,447.3406,28.67150493,8191.858553,493.5594778,a,0,0.142,,447.3406,451.3407,,,,,,,,84,-73,-165,20,27,25,112,209,72,-218,124,-28,79,-65,77,224,-75,28,-24,121,-70,-216,-215,-114,-32,180,360,180,360,360,180,90,180,270,360,270,,,,,,,,,,,451.3408,451.3411,,0,61,61,61,1,9,novel,,,,,,,,,,,,,,,,,,,,,,,,,,,,,,,,,,,,,,,,,,,,,,,,,
,,22,8,${e://Field/PROLIFIC_PID,F,18,2023-11-03_23h00.46.245,MouseEye_CC,2023.2.2,Win32,162.8664495,1.023982319,,,1920,1080,44.375,3.68,"232.36, 305.93, 194.91, 205.56, 173.29, 131.21, 109.04",608.46,7.745685062,28.50412103,27.83653633,Passed,95.48880544,,,,,,,,,,,,,,,,,,,,training,4,15,180,right,s,,,,,451.3428,453.1467,28.67150493,-4,3,1,0,0,1.8037,fixationPoint,453.1469,453.2435,453.2436,453.9465,28.67150493,8191.858553,493.5594778,a,0,0.7002,,453.9465,457.9463,,,,,,,,40,209,72,-221,169,-116,74,-29,210,-218,-127,-70,-117,-173,-114,209,-18,224,-75,28,-64,112,64,160,161,180,360,180,270,360,270,360,360,180,90,360,,,,,,,,,,,457.9463,457.9465,,0,62,62,62,1,2,repeated,,,,,,,,,,,,,,,,,,,,,,,,,,,,,,,,,,,,,,,,,,,,,,,,,
,,22,8,${e://Field/PROLIFIC_PID,F,18,2023-11-03_23h00.46.245,MouseEye_CC,2023.2.2,Win32,162.8664495,1.023982319,,,1920,1080,44.375,3.68,"232.36, 305.93, 194.91, 205.56, 173.29, 131.21, 109.04",608.46,7.745685062,28.50412103,27.83653633,Passed,95.48880544,,,,,,,,,,,,,,,,,,,,training,4,16,180,right,s,,,,,457.9471,459.8313,28.67150493,3,-3,1,0,0,1.8841,fixationPoint,459.8315,459.9283,459.9284,460.2011,28.67150493,8191.858553,493.5594778,s,1,0.2685,,460.2011,460.4013,,,,,,,,60,209,-18,80,220,124,215,74,116,-116,160,-221,169,-120,120,-114,-32,-216,-215,-73,-165,208,-126,79,-76,360,180,270,270,180,180,180,180,270,360,360,,,,,,,,,,,460.4014,461.7952,space,0,63,63,63,1,12,novel,1.3817,,,,,,,,,,,,,,,,,,,,,,,,,,,,,,,,,,,,,,,,,,,,,,,,
,,22,8,${e://Field/PROLIFIC_PID,F,18,2023-11-03_23h00.46.245,MouseEye_CC,2023.2.2,Win32,162.8664495,1.023982319,,,1920,1080,44.375,3.68,"232.36, 305.93, 194.91, 205.56, 173.29, 131.21, 109.04",608.46,7.745685062,28.50412103,27.83653633,Passed,95.48880544,,,,,,,,,,,,,,,,,,,,training,5,1,0,left,a,,,,,461.796,462.3587,28.67150493,3,-3,1,0,0,0.5625,fixationPoint,462.3587,462.4554,462.4555,462.8796,28.67150493,8191.858553,493.5594778,a,1,0.4185,,462.8797,463.0801,,,,,,,,69,173,-77,78,67,80,220,167,124,-65,77,-166,79,-174,23,-70,-117,-213,-74,-32,-124,69,-124,216,-224,180,90,180,180,270,180,270,180,90,90,270,,,,,,,,,,,463.0803,463.0832,,0,64,64,64,1,8,repeated,,,,,,,,,,,,,,,,,,,,,,,,,,,,,,,,,,,,,,,,,,,,,,,,,
,,22,8,${e://Field/PROLIFIC_PID,F,18,2023-11-03_23h00.46.245,MouseEye_CC,2023.2.2,Win32,162.8664495,1.023982319,,,1920,1080,44.375,3.68,"232.36, 305.93, 194.91, 205.56, 173.29, 131.21, 109.04",608.46,7.745685062,28.50412103,27.83653633,Passed,95.48880544,,,,,,,,,,,,,,,,,,,,training,5,2,180,right,s,,,,,463.0843,463.7588,28.67150493,3,-3,1,0,0,0.6742,fixationPoint,463.7588,463.8557,463.8558,464.2009,28.67150493,8191.858553,493.5594778,s,1,0.3402,,464.2009,464.4008,,,,,,,,71,-218,-127,208,211,124,172,125,118,-176,122,-224,32,-216,64,28,-221,215,-168,28,-24,-80,-23,-223,-31,180,270,180,360,180,270,180,90,360,90,180,,,,,,,,,,,464.4008,464.401,,0,65,65,65,1,6,repeated,,,,,,,,,,,,,,,,,,,,,,,,,,,,,,,,,,,,,,,,,,,,,,,,,
,,22,8,${e://Field/PROLIFIC_PID,F,18,2023-11-03_23h00.46.245,MouseEye_CC,2023.2.2,Win32,162.8664495,1.023982319,,,1920,1080,44.375,3.68,"232.36, 305.93, 194.91, 205.56, 173.29, 131.21, 109.04",608.46,7.745685062,28.50412103,27.83653633,Passed,95.48880544,,,,,,,,,,,,,,,,,,,,training,5,3,180,right,s,,,,,464.4015,464.8375,28.67150493,3,-3,1,0,0,0.4359,fixationPoint,464.8377,464.9343,464.9344,465.7645,28.67150493,8191.858553,493.5594778,s,1,0.8256,,465.7646,465.9644,,,,,,,,41,-224,32,160,161,30,166,125,118,-173,-114,-126,-164,-16,-26,119,-172,28,-221,112,-32,-174,23,-213,222,270,90,180,180,180,90,180,90,360,180,360,,,,,,,,,,,465.9645,465.9646,,0,66,66,66,1,4,repeated,,,,,,,,,,,,,,,,,,,,,,,,,,,,,,,,,,,,,,,,,,,,,,,,,
,,22,8,${e://Field/PROLIFIC_PID,F,18,2023-11-03_23h00.46.245,MouseEye_CC,2023.2.2,Win32,162.8664495,1.023982319,,,1920,1080,44.375,3.68,"232.36, 305.93, 194.91, 205.56, 173.29, 131.21, 109.04",608.46,7.745685062,28.50412103,27.83653633,Passed,95.48880544,,,,,,,,,,,,,,,,,,,,training,5,4,180,right,s,,,,,465.9649,466.4497,28.67150493,3,-3,1,0,0,0.4845,fixationPoint,466.4498,466.5466,466.5466,466.7523,28.67150493,8191.858553,493.5594778,s,1,0.1994,,466.7524,466.9522,,,,,,,,61,-213,-74,20,72,80,220,167,124,-67,17,-29,210,-166,79,117,-124,28,-221,173,-77,-214,-170,-173,-216,180,90,360,180,270,270,90,90,180,180,270,,,,,,,,,,,466.9522,466.9524,,0,67,67,67,1,10,novel,,,,,,,,,,,,,,,,,,,,,,,,,,,,,,,,,,,,,,,,,,,,,,,,,
,,22,8,${e://Field/PROLIFIC_PID,F,18,2023-11-03_23h00.46.245,MouseEye_CC,2023.2.2,Win32,162.8664495,1.023982319,,,1920,1080,44.375,3.68,"232.36, 305.93, 194.91, 205.56, 173.29, 131.21, 109.04",608.46,7.745685062,28.50412103,27.83653633,Passed,95.48880544,,,,,,,,,,,,,,,,,,,,training,5,5,0,left,a,,,,,466.9528,467.286,28.67150493,3,-3,1,0,0,0.3329,fixationPoint,467.2861,467.3827,467.3827,467.6007,28.67150493,8191.858553,493.5594778,a,1,0.2163,,467.6008,467.8021,,,,,,,,82,-168,-174,176,69,167,124,78,67,-176,122,-218,124,-21,120,224,-75,165,-19,28,-221,-216,-215,-32,-124,90,180,180,360,270,360,270,270,360,90,180,,,,,,,,,,,467.8022,467.8022,,0,68,68,68,1,5,repeated,,,,,,,,,,,,,,,,,,,,,,,,,,,,,,,,,,,,,,,,,,,,,,,,,
,,22,8,${e://Field/PROLIFIC_PID,F,18,2023-11-03_23h00.46.245,MouseEye_CC,2023.2.2,Win32,162.8664495,1.023982319,,,1920,1080,44.375,3.68,"232.36, 305.93, 194.91, 205.56, 173.29, 131.21, 109.04",608.46,7.745685062,28.50412103,27.83653633,Passed,95.48880544,,,,,,,,,,,,,,,,,,,,training,5,6,0,left,a,,,,,467.8027,468.1583,28.67150493,3,-3,1,0,0,0.3554,fixationPoint,468.1584,468.2556,468.2556,468.4251,28.67150493,8191.858553,493.5594778,a,1,0.1632,,468.4252,468.6249,,,,,,,,60,209,-18,208,211,209,72,74,116,-21,120,-221,169,-28,79,-223,-31,-73,-165,-124,-69,112,-32,173,-77,180,90,360,90,180,180,360,270,360,90,180,,,,,,,,,,,468.6249,468.6251,,0,69,69,69,1,12,novel,,,,,,,,,,,,,,,,,,,,,,,,,,,,,,,,,,,,,,,,,,,,,,,,,
,,22,8,${e://Field/PROLIFIC_PID,F,18,2023-11-03_23h00.46.245,MouseEye_CC,2023.2.2,Win32,162.8664495,1.023982319,,,1920,1080,44.375,3.68,"232.36, 305.93, 194.91, 205.56, 173.29, 131.21, 109.04",608.46,7.745685062,28.50412103,27.83653633,Passed,95.48880544,,,,,,,,,,,,,,,,,,,,training,5,7,180,right,s,,,,,468.6254,469.3533,28.67150493,3,-3,1,0,0,0.7276,fixationPoint,469.3534,469.4492,469.4493,470.031,28.67150493,8191.858553,493.5594778,s,1,0.5796,,470.0311,470.231,,,,,,,,19,160,161,-174,217,-218,124,-67,17,-170,-68,-126,-164,-218,-127,28,-221,121,-70,119,-172,25,112,208,211,90,90,270,90,180,90,90,180,270,360,90,,,,,,,,,,,470.231,470.2312,,0,70,70,70,1,13,novel,,,,,,,,,,,,,,,,,,,,,,,,,,,,,,,,,,,,,,,,,,,,,,,,,
,,22,8,${e://Field/PROLIFIC_PID,F,18,2023-11-03_23h00.46.245,MouseEye_CC,2023.2.2,Win32,162.8664495,1.023982319,,,1920,1080,44.375,3.68,"232.36, 305.93, 194.91, 205.56, 173.29, 131.21, 109.04",608.46,7.745685062,28.50412103,27.83653633,Passed,95.48880544,,,,,,,,,,,,,,,,,,,,training,5,8,180,right,s,,,,,470.2315,471.0312,28.67150493,3,-3,1,0,0,0.7996,fixationPoint,471.0313,471.1282,471.1283,471.3886,28.67150493,8191.858553,493.5594778,s,1,0.2529,,471.3886,471.5885,,,,,,,,32,-166,79,213,32,74,116,209,167,-73,-165,-124,-69,-80,-23,216,-224,69,-124,121,-70,-28,79,-116,160,180,90,270,270,360,90,270,270,90,360,90,,,,,,,,,,,471.5885,471.5886,,0,71,71,71,1,16,novel,,,,,,,,,,,,,,,,,,,,,,,,,,,,,,,,,,,,,,,,,,,,,,,,,
,,22,8,${e://Field/PROLIFIC_PID,F,18,2023-11-03_23h00.46.245,MouseEye_CC,2023.2.2,Win32,162.8664495,1.023982319,,,1920,1080,44.375,3.68,"232.36, 305.93, 194.91, 205.56, 173.29, 131.21, 109.04",608.46,7.745685062,28.50412103,27.83653633,Passed,95.48880544,,,,,,,,,,,,,,,,,,,,training,5,9,0,left,a,,,,,471.589,472.637,28.67150493,26,29,1,0,0,0.6418,fixationPoint,472.6371,472.734,472.734,473.0491,28.67150493,8191.858553,493.5594778,a,1,0.3091,,473.0492,473.2491,,,,,,,,84,-73,-165,78,67,20,27,208,211,-19,16,-176,122,-77,162,123,-220,119,-172,27,-120,-30,-161,-126,-164,270,270,360,180,180,270,270,90,180,270,180,,,,,,,,,,,473.2492,473.2493,,0,72,72,72,1,9,novel,,,,,,,,,,,,,,,,,,,,,,,,,,,,,,,,,,,,,,,,,,,,,,,,,
,,22,8,${e://Field/PROLIFIC_PID,F,18,2023-11-03_23h00.46.245,MouseEye_CC,2023.2.2,Win32,162.8664495,1.023982319,,,1920,1080,44.375,3.68,"232.36, 305.93, 194.91, 205.56, 173.29, 131.21, 109.04",608.46,7.745685062,28.50412103,27.83653633,Passed,95.48880544,,,,,,,,,,,,,,,,,,,,training,5,10,0,left,a,,,,,473.2497,473.8188,28.67150493,1,-2,1,0,0,0.569,fixationPoint,473.8189,473.9161,473.9162,474.3763,28.67150493,8191.858553,493.5594778,a,1,0.4539,,474.3763,474.5762,,,,,,,,40,209,72,-221,169,-116,74,-29,210,-218,-127,-70,-117,-173,-114,209,-18,224,-75,28,-64,112,64,160,161,90,90,270,360,90,360,270,180,360,360,360,,,,,,,,,,,474.5762,474.5763,,0,73,73,73,1,2,repeated,,,,,,,,,,,,,,,,,,,,,,,,,,,,,,,,,,,,,,,,,,,,,,,,,
,,22,8,${e://Field/PROLIFIC_PID,F,18,2023-11-03_23h00.46.245,MouseEye_CC,2023.2.2,Win32,162.8664495,1.023982319,,,1920,1080,44.375,3.68,"232.36, 305.93, 194.91, 205.56, 173.29, 131.21, 109.04",608.46,7.745685062,28.50412103,27.83653633,Passed,95.48880544,,,,,,,,,,,,,,,,,,,,training,5,11,180,right,s,,,,,474.5766,475.1221,28.67150493,2,2,1,0,0,0.5454,fixationPoint,475.1222,475.219,475.219,475.4733,28.67150493,8191.858553,493.5594778,s,1,0.2468,,475.4734,475.6733,,,,,,,,70,224,-75,112,64,213,32,20,27,-224,32,-31,169,-119,213,-173,-216,-126,-216,-116,-125,69,-124,165,-19,180,180,270,90,270,360,90,360,270,180,360,,,,,,,,,,,475.6734,475.6735,,0,74,74,74,1,7,repeated,,,,,,,,,,,,,,,,,,,,,,,,,,,,,,,,,,,,,,,,,,,,,,,,,
,,22,8,${e://Field/PROLIFIC_PID,F,18,2023-11-03_23h00.46.245,MouseEye_CC,2023.2.2,Win32,162.8664495,1.023982319,,,1920,1080,44.375,3.68,"232.36, 305.93, 194.91, 205.56, 173.29, 131.21, 109.04",608.46,7.745685062,28.50412103,27.83653633,Passed,95.48880544,,,,,,,,,,,,,,,,,,,,training,5,12,180,right,s,,,,,475.6738,476.2374,28.67150493,2,2,1,0,0,0.5634,fixationPoint,476.2375,476.3341,476.3343,476.5036,28.67150493,8191.858553,493.5594778,s,1,0.1638,,476.5037,476.7037,,,,,,,,97,69,-220,160,161,76,165,78,67,-128,16,-116,160,-120,120,-124,-69,-173,-114,-32,-124,173,-77,28,-64,90,90,270,90,360,360,180,270,90,360,270,,,,,,,,,,,476.7037,476.7038,,0,75,75,75,1,11,novel,,,,,,,,,,,,,,,,,,,,,,,,,,,,,,,,,,,,,,,,,,,,,,,,,
,,22,8,${e://Field/PROLIFIC_PID,F,18,2023-11-03_23h00.46.245,MouseEye_CC,2023.2.2,Win32,162.8664495,1.023982319,,,1920,1080,44.375,3.68,"232.36, 305.93, 194.91, 205.56, 173.29, 131.21, 109.04",608.46,7.745685062,28.50412103,27.83653633,Passed,95.48880544,,,,,,,,,,,,,,,,,,,,training,5,13,0,left,a,,,,,476.7041,477.0915,28.67150493,2,2,1,0,0,0.3873,fixationPoint,477.0915,477.1885,477.1885,477.3521,28.67150493,8191.858553,493.5594778,a,1,0.1571,,477.3521,477.552,,,,,,,,31,-216,64,20,72,25,112,125,118,-32,-124,-80,-23,-64,-67,165,-19,28,-24,168,-121,-213,222,-172,170,90,360,270,180,180,180,90,180,180,360,90,,,,,,,,,,,477.552,477.5522,,0,76,76,76,1,15,novel,,,,,,,,,,,,,,,,,,,,,,,,,,,,,,,,,,,,,,,,,,,,,,,,,
,,22,8,${e://Field/PROLIFIC_PID,F,18,2023-11-03_23h00.46.245,MouseEye_CC,2023.2.2,Win32,162.8664495,1.023982319,,,1920,1080,44.375,3.68,"232.36, 305.93, 194.91, 205.56, 173.29, 131.21, 109.04",608.46,7.745685062,28.50412103,27.83653633,Passed,95.48880544,,,,,,,,,,,,,,,,,,,,training,5,14,180,right,s,,,,,477.5524,477.9097,28.67150493,2,2,1,0,0,0.3571,fixationPoint,477.9097,478.0065,478.0066,478.2612,28.67150493,8191.858553,493.5594778,s,1,0.2519,,478.2613,478.4611,,,,,,,,4,-72,224,112,64,222,113,30,166,-126,-164,-170,-68,-80,-23,20,-161,121,-70,79,-76,-176,122,-77,162,180,90,270,90,270,90,90,90,180,360,270,,,,,,,,,,,478.4613,478.4613,,0,77,77,77,1,3,repeated,,,,,,,,,,,,,,,,,,,,,,,,,,,,,,,,,,,,,,,,,,,,,,,,,
,,22,8,${e://Field/PROLIFIC_PID,F,18,2023-11-03_23h00.46.245,MouseEye_CC,2023.2.2,Win32,162.8664495,1.023982319,,,1920,1080,44.375,3.68,"232.36, 305.93, 194.91, 205.56, 173.29, 131.21, 109.04",608.46,7.745685062,28.50412103,27.83653633,Passed,95.48880544,,,,,,,,,,,,,,,,,,,,training,5,15,0,left,a,,,,,478.4616,478.9652,28.67150493,2,2,1,0,0,0.5031,fixationPoint,478.9652,479.0614,479.0615,479.2431,28.67150493,8191.858553,493.5594778,a,1,0.1762,,479.2432,479.443,,,,,,,,30,222,113,-120,120,-21,120,-176,122,-214,-170,-218,-127,-126,-164,73,-20,119,-172,215,-168,20,27,20,72,270,360,90,90,270,180,180,270,360,90,180,,,,,,,,,,,479.443,479.4432,,0,78,78,78,1,14,novel,,,,,,,,,,,,,,,,,,,,,,,,,,,,,,,,,,,,,,,,,,,,,,,,,
,,22,8,${e://Field/PROLIFIC_PID,F,18,2023-11-03_23h00.46.245,MouseEye_CC,2023.2.2,Win32,162.8664495,1.023982319,,,1920,1080,44.375,3.68,"232.36, 305.93, 194.91, 205.56, 173.29, 131.21, 109.04",608.46,7.745685062,28.50412103,27.83653633,Passed,95.48880544,,,,,,,,,,,,,,,,,,,,training,5,16,0,left,a,,,,,479.4435,479.819,28.67150493,2,2,1,0,0,0.3753,fixationPoint,479.8191,479.9159,479.916,480.049,28.67150493,8191.858553,493.5594778,a,1,0.1268,,480.0491,480.249,,,,,,,,17,76,165,-216,64,-116,160,-218,124,-68,-209,-114,-32,-170,-68,209,-18,173,-77,119,-172,176,69,160,161,360,180,360,360,90,90,90,180,180,180,360,,,,,,,,,,,480.2491,481.4612,space,0,79,79,79,1,1,repeated,1.207,,,,,,,,,,,,,,,,,,,,,,,,,,,,,,,,,,,,,,,,,,,,,,,,
,,22,8,${e://Field/PROLIFIC_PID,F,18,2023-11-03_23h00.46.245,MouseEye_CC,2023.2.2,Win32,162.8664495,1.023982319,,,1920,1080,44.375,3.68,"232.36, 305.93, 194.91, 205.56, 173.29, 131.21, 109.04",608.46,7.745685062,28.50412103,27.83653633,Passed,95.48880544,,,,,,,,,,,,,,,,,,,,training,6,1,0,left,a,,,,,481.4616,482.0612,28.67150493,2,2,1,0,0,0.5994,fixationPoint,482.0612,482.1582,482.1582,482.4065,28.67150493,8191.858553,493.5594778,a,1,0.2411,,482.4066,482.6065,,,,,,,,97,69,-220,164,219,20,72,125,118,-67,17,-224,32,-172,170,-223,-31,-213,-74,-116,-125,121,-70,164,-211,90,90,90,90,270,180,180,270,270,90,360,,,,,,,,,,,482.6065,482.6074,,0,80,80,80,1,11,novel,,,,,,,,,,,,,,,,,,,,,,,,,,,,,,,,,,,,,,,,,,,,,,,,,
,,22,8,${e://Field/PROLIFIC_PID,F,18,2023-11-03_23h00.46.245,MouseEye_CC,2023.2.2,Win32,162.8664495,1.023982319,,,1920,1080,44.375,3.68,"232.36, 305.93, 194.91, 205.56, 173.29, 131.21, 109.04",608.46,7.745685062,28.50412103,27.83653633,Passed,95.48880544,,,,,,,,,,,,,,,,,,,,training,6,2,0,left,a,,,,,482.6077,482.7945,28.67150493,3,2,1,0,0,0.1867,fixationPoint,482.7945,482.8913,482.8913,483.1459,28.67150493,8191.858553,493.5594778,a,1,0.2506,,483.146,483.3459,,,,,,,,31,-216,64,126,29,164,219,78,67,-68,-209,-216,-215,-173,-216,72,-166,20,-161,28,-64,-116,160,-166,79,180,360,180,90,360,360,180,360,180,180,90,,,,,,,,,,,483.346,483.3461,,0,81,81,81,1,15,novel,,,,,,,,,,,,,,,,,,,,,,,,,,,,,,,,,,,,,,,,,,,,,,,,,
,,22,8,${e://Field/PROLIFIC_PID,F,18,2023-11-03_23h00.46.245,MouseEye_CC,2023.2.2,Win32,162.8664495,1.023982319,,,1920,1080,44.375,3.68,"232.36, 305.93, 194.91, 205.56, 173.29, 131.21, 109.04",608.46,7.745685062,28.50412103,27.83653633,Passed,95.48880544,,,,,,,,,,,,,,,,,,,,training,6,3,180,right,s,,,,,483.3465,483.4792,28.67150493,3,2,1,0,0,0.1326,fixationPoint,483.4792,483.5762,483.5762,483.9581,28.67150493,8191.858553,493.5594778,s,1,0.3758,,483.9581,484.158,,,,,,,,71,-218,-127,208,211,124,172,125,118,-176,122,-224,32,-216,64,28,-221,215,-168,28,-24,-80,-23,-223,-31,270,90,360,180,270,180,360,180,180,360,360,,,,,,,,,,,484.1581,484.1582,,0,82,82,82,1,6,repeated,,,,,,,,,,,,,,,,,,,,,,,,,,,,,,,,,,,,,,,,,,,,,,,,,
,,22,8,${e://Field/PROLIFIC_PID,F,18,2023-11-03_23h00.46.245,MouseEye_CC,2023.2.2,Win32,162.8664495,1.023982319,,,1920,1080,44.375,3.68,"232.36, 305.93, 194.91, 205.56, 173.29, 131.21, 109.04",608.46,7.745685062,28.50412103,27.83653633,Passed,95.48880544,,,,,,,,,,,,,,,,,,,,training,6,4,180,right,s,,,,,484.1586,484.2371,28.67150493,3,2,1,0,0,0.0783,fixationPoint,484.2372,484.3339,484.3341,484.7338,28.67150493,8191.858553,493.5594778,s,1,0.3947,,484.7338,484.9338,,,,,,,,84,-73,-165,124,172,125,118,208,211,-166,79,-120,120,-174,23,20,-161,119,-172,216,-224,-114,-32,-223,-31,270,360,180,360,270,360,360,180,90,360,270,,,,,,,,,,,484.9339,484.9341,,0,83,83,83,1,9,novel,,,,,,,,,,,,,,,,,,,,,,,,,,,,,,,,,,,,,,,,,,,,,,,,,
,,22,8,${e://Field/PROLIFIC_PID,F,18,2023-11-03_23h00.46.245,MouseEye_CC,2023.2.2,Win32,162.8664495,1.023982319,,,1920,1080,44.375,3.68,"232.36, 305.93, 194.91, 205.56, 173.29, 131.21, 109.04",608.46,7.745685062,28.50412103,27.83653633,Passed,95.48880544,,,,,,,,,,,,,,,,,,,,training,6,5,0,left,a,,,,,484.9345,485.0793,28.67150493,3,2,1,0,0,0.1447,fixationPoint,485.0793,485.1762,485.1762,485.5035,28.67150493,8191.858553,493.5594778,a,1,0.3228,,485.5035,485.7034,,,,,,,,17,76,165,-216,64,-116,160,-218,124,-68,-209,-114,-32,-170,-68,209,-18,173,-77,119,-172,176,69,160,161,270,90,180,90,360,90,180,360,90,90,180,,,,,,,,,,,485.7035,485.7036,,0,84,84,84,1,1,repeated,,,,,,,,,,,,,,,,,,,,,,,,,,,,,,,,,,,,,,,,,,,,,,,,,
,,22,8,${e://Field/PROLIFIC_PID,F,18,2023-11-03_23h00.46.245,MouseEye_CC,2023.2.2,Win32,162.8664495,1.023982319,,,1920,1080,44.375,3.68,"232.36, 305.93, 194.91, 205.56, 173.29, 131.21, 109.04",608.46,7.745685062,28.50412103,27.83653633,Passed,95.48880544,,,,,,,,,,,,,,,,,,,,training,6,6,180,right,s,,,,,485.704,485.7581,28.67150493,4,3,1,0,0,0.054,fixationPoint,485.7581,485.8549,485.8549,486.2913,28.67150493,8191.858553,493.5594778,s,1,0.431,,486.2915,486.4913,,,,,,,,4,-72,224,112,64,222,113,30,166,-126,-164,-170,-68,-80,-23,20,-161,121,-70,79,-76,-176,122,-77,162,270,180,360,270,180,270,180,270,90,360,270,,,,,,,,,,,486.4913,486.4915,,0,85,85,85,1,3,repeated,,,,,,,,,,,,,,,,,,,,,,,,,,,,,,,,,,,,,,,,,,,,,,,,,
,,22,8,${e://Field/PROLIFIC_PID,F,18,2023-11-03_23h00.46.245,MouseEye_CC,2023.2.2,Win32,162.8664495,1.023982319,,,1920,1080,44.375,3.68,"232.36, 305.93, 194.91, 205.56, 173.29, 131.21, 109.04",608.46,7.745685062,28.50412103,27.83653633,Passed,95.48880544,,,,,,,,,,,,,,,,,,,,training,6,7,0,left,a,,,,,486.4918,486.5831,28.67150493,4,3,1,0,0,0.0911,fixationPoint,486.5832,486.6796,486.6796,487.0307,28.67150493,8191.858553,493.5594778,a,1,0.3463,,487.0307,487.2307,,,,,,,,70,224,-75,112,64,213,32,20,27,-224,32,-31,169,-119,213,-173,-216,-126,-216,-116,-125,69,-124,165,-19,270,270,90,360,90,360,360,360,270,180,270,,,,,,,,,,,487.2307,487.2308,,0,86,86,86,1,7,repeated,,,,,,,,,,,,,,,,,,,,,,,,,,,,,,,,,,,,,,,,,,,,,,,,,
,,22,8,${e://Field/PROLIFIC_PID,F,18,2023-11-03_23h00.46.245,MouseEye_CC,2023.2.2,Win32,162.8664495,1.023982319,,,1920,1080,44.375,3.68,"232.36, 305.93, 194.91, 205.56, 173.29, 131.21, 109.04",608.46,7.745685062,28.50412103,27.83653633,Passed,95.48880544,,,,,,,,,,,,,,,,,,,,training,6,8,180,right,s,,,,,487.2312,487.2733,28.67150493,4,3,1,0,0,0.042,fixationPoint,487.2734,487.3701,487.3701,488.0428,28.67150493,8191.858553,493.5594778,s,1,0.6678,,488.0428,488.2428,,,,,,,,60,209,-18,125,118,167,124,175,28,-221,169,-19,16,-116,160,-170,-68,-16,-26,-216,-215,175,-168,119,-172,180,270,180,270,270,90,180,270,90,180,270,,,,,,,,,,,488.2428,488.2429,,0,87,87,87,1,12,novel,,,,,,,,,,,,,,,,,,,,,,,,,,,,,,,,,,,,,,,,,,,,,,,,,
,,22,8,${e://Field/PROLIFIC_PID,F,18,2023-11-03_23h00.46.245,MouseEye_CC,2023.2.2,Win32,162.8664495,1.023982319,,,1920,1080,44.375,3.68,"232.36, 305.93, 194.91, 205.56, 173.29, 131.21, 109.04",608.46,7.745685062,28.50412103,27.83653633,Passed,95.48880544,,,,,,,,,,,,,,,,,,,,training,6,9,0,left,a,,,,,488.2432,488.3701,28.67150493,4,3,1,0,0,0.1267,fixationPoint,488.3702,488.4671,488.4671,488.8489,28.67150493,8191.858553,493.5594778,a,1,0.3758,,488.849,489.0488,,,,,,,,61,-213,-74,175,28,124,215,126,29,-21,120,-166,79,-128,16,224,-75,79,-76,20,-161,-114,-32,-17,-222,90,180,270,270,90,90,270,180,270,270,270,,,,,,,,,,,489.0488,489.049,,0,88,88,88,1,10,novel,,,,,,,,,,,,,,,,,,,,,,,,,,,,,,,,,,,,,,,,,,,,,,,,,
,,22,8,${e://Field/PROLIFIC_PID,F,18,2023-11-03_23h00.46.245,MouseEye_CC,2023.2.2,Win32,162.8664495,1.023982319,,,1920,1080,44.375,3.68,"232.36, 305.93, 194.91, 205.56, 173.29, 131.21, 109.04",608.46,7.745685062,28.50412103,27.83653633,Passed,95.48880544,,,,,,,,,,,,,,,,,,,,training,6,10,0,left,a,,,,,489.0493,489.0975,28.67150493,4,3,1,0,0,0.048,fixationPoint,489.0975,489.1943,489.1943,489.6009,28.67150493,8191.858553,493.5594778,a,1,0.4028,,489.6009,489.8007,,,,,,,,30,222,113,-176,122,-116,74,-116,160,-114,-32,-16,-26,-26,-66,117,-124,112,-32,216,-224,20,72,76,165,90,180,270,90,90,270,180,90,180,90,360,,,,,,,,,,,489.8008,489.8012,,0,89,89,89,1,14,novel,,,,,,,,,,,,,,,,,,,,,,,,,,,,,,,,,,,,,,,,,,,,,,,,,
,,22,8,${e://Field/PROLIFIC_PID,F,18,2023-11-03_23h00.46.245,MouseEye_CC,2023.2.2,Win32,162.8664495,1.023982319,,,1920,1080,44.375,3.68,"232.36, 305.93, 194.91, 205.56, 173.29, 131.21, 109.04",608.46,7.745685062,28.50412103,27.83653633,Passed,95.48880544,,,,,,,,,,,,,,,,,,,,training,6,11,0,left,a,,,,,489.8025,489.8495,28.67150493,4,3,1,0,0,0.0466,fixationPoint,489.8495,489.9463,489.9465,490.3886,28.67150493,8191.858553,493.5594778,a,1,0.4353,,490.3888,490.5884,,,,,,,,41,-224,32,160,161,30,166,125,118,-173,-114,-126,-164,-16,-26,119,-172,28,-221,112,-32,-174,23,-213,222,90,180,180,180,180,270,180,360,360,180,90,,,,,,,,,,,490.5886,490.5887,,0,90,90,90,1,4,repeated,,,,,,,,,,,,,,,,,,,,,,,,,,,,,,,,,,,,,,,,,,,,,,,,,
,,22,8,${e://Field/PROLIFIC_PID,F,18,2023-11-03_23h00.46.245,MouseEye_CC,2023.2.2,Win32,162.8664495,1.023982319,,,1920,1080,44.375,3.68,"232.36, 305.93, 194.91, 205.56, 173.29, 131.21, 109.04",608.46,7.745685062,28.50412103,27.83653633,Passed,95.48880544,,,,,,,,,,,,,,,,,,,,training,6,12,180,right,s,,,,,490.5895,490.637,28.67150493,5,10,1,0,0,0.0474,fixationPoint,490.6371,490.7339,490.7339,491.2792,28.67150493,8191.858553,493.5594778,s,1,0.5381,,491.2793,491.4793,,,,,,,,32,-166,79,30,166,112,64,126,29,-68,-209,-32,-124,-126,-164,209,-18,28,-24,215,-168,-19,16,-21,120,180,360,360,180,270,90,270,360,270,180,180,,,,,,,,,,,491.4794,491.4796,,0,91,91,91,1,16,novel,,,,,,,,,,,,,,,,,,,,,,,,,,,,,,,,,,,,,,,,,,,,,,,,,
,,22,8,${e://Field/PROLIFIC_PID,F,18,2023-11-03_23h00.46.245,MouseEye_CC,2023.2.2,Win32,162.8664495,1.023982319,,,1920,1080,44.375,3.68,"232.36, 305.93, 194.91, 205.56, 173.29, 131.21, 109.04",608.46,7.745685062,28.50412103,27.83653633,Passed,95.48880544,,,,,,,,,,,,,,,,,,,,training,6,13,180,right,s,,,,,491.4804,491.54,28.67150493,5,10,1,0,0,0.0593,fixationPoint,491.5402,491.6369,491.637,491.9459,28.67150493,8191.858553,493.5594778,a,0,0.303,,491.9459,495.9457,,,,,,,,82,-168,-174,176,69,167,124,78,67,-176,122,-218,124,-21,120,224,-75,165,-19,28,-221,-216,-215,-32,-124,270,90,180,270,180,360,360,180,90,180,180,,,,,,,,,,,495.9457,495.9458,,0,92,92,92,1,5,repeated,,,,,,,,,,,,,,,,,,,,,,,,,,,,,,,,,,,,,,,,,,,,,,,,,
,,22,8,${e://Field/PROLIFIC_PID,F,18,2023-11-03_23h00.46.245,MouseEye_CC,2023.2.2,Win32,162.8664495,1.023982319,,,1920,1080,44.375,3.68,"232.36, 305.93, 194.91, 205.56, 173.29, 131.21, 109.04",608.46,7.745685062,28.50412103,27.83653633,Passed,95.48880544,,,,,,,,,,,,,,,,,,,,training,6,14,180,right,s,,,,,495.9464,496.4731,28.67150493,9,8,1,0,1,0.5265,fixationPoint,496.4731,496.5699,496.5699,497.5215,28.67150493,8191.858553,493.5594778,s,1,0.9461,,497.5215,497.7214,,,,,,,,40,209,72,-221,169,-116,74,-29,210,-218,-127,-70,-117,-173,-114,209,-18,224,-75,28,-64,112,64,160,161,360,360,270,90,270,90,270,360,360,180,180,,,,,,,,,,,497.7214,497.7216,,0,93,93,93,1,2,repeated,,,,,,,,,,,,,,,,,,,,,,,,,,,,,,,,,,,,,,,,,,,,,,,,,
,,22,8,${e://Field/PROLIFIC_PID,F,18,2023-11-03_23h00.46.245,MouseEye_CC,2023.2.2,Win32,162.8664495,1.023982319,,,1920,1080,44.375,3.68,"232.36, 305.93, 194.91, 205.56, 173.29, 131.21, 109.04",608.46,7.745685062,28.50412103,27.83653633,Passed,95.48880544,,,,,,,,,,,,,,,,,,,,training,6,15,180,right,s,,,,,497.7218,497.7825,28.67150493,9,12,1,0,1,0.0604,fixationPoint,497.7827,497.8794,497.8795,498.8067,28.67150493,8191.858553,493.5594778,s,1,0.9209,,498.8068,499.0065,,,,,,,,19,160,161,-213,222,-67,126,-176,122,-126,-216,-17,-222,-124,-69,123,-220,173,-77,112,-32,208,211,76,165,360,180,90,180,360,360,90,360,180,180,270,,,,,,,,,,,499.0067,499.0069,,0,94,94,94,1,13,novel,,,,,,,,,,,,,,,,,,,,,,,,,,,,,,,,,,,,,,,,,,,,,,,,,
,,22,8,${e://Field/PROLIFIC_PID,F,18,2023-11-03_23h00.46.245,MouseEye_CC,2023.2.2,Win32,162.8664495,1.023982319,,,1920,1080,44.375,3.68,"232.36, 305.93, 194.91, 205.56, 173.29, 131.21, 109.04",608.46,7.745685062,28.50412103,27.83653633,Passed,95.48880544,,,,,,,,,,,,,,,,,,,,training,6,16,0,left,a,,,,,499.0077,499.1335,28.67150493,9,12,0,0,1,0.1256,fixationPoint,499.1335,499.2305,499.2305,499.6971,28.67150493,8191.858553,493.5594778,a,1,0.4605,,499.6972,499.8971,,,,,,,,69,173,-77,78,67,80,220,167,124,-65,77,-166,79,-174,23,-70,-117,-213,-74,-32,-124,69,-124,216,-224,360,180,90,360,90,360,270,360,180,360,90,,,,,,,,,,,499.8972,502.8122,space,0,95,95,95,1,8,repeated,2.9059,,,,,,,,,,,,,,,,,,,,,,,,,,,,,,,,,,,,,,,,,,,,,,,,
,,22,8,${e://Field/PROLIFIC_PID,F,18,2023-11-03_23h00.46.245,MouseEye_CC,2023.2.2,Win32,162.8664495,1.023982319,,,1920,1080,44.375,3.68,"232.36, 305.93, 194.91, 205.56, 173.29, 131.21, 109.04",608.46,7.745685062,28.50412103,27.83653633,Passed,95.48880544,,,,,,,,,,,,,,,,,,,,training,7,1,180,right,s,,,,,502.8127,509.0911,28.67150493,1,-5,1,0,1,6.2783,fixationPoint,509.0912,509.1879,509.188,509.4243,28.67150493,8191.858553,493.5594778,s,1,0.2311,,509.4244,509.6243,,,,,,,,32,-166,79,30,166,124,215,124,172,-216,-215,-30,-161,-32,-124,123,-220,168,-121,69,-220,-67,17,-221,169,270,180,90,90,360,270,270,360,90,360,270,,,,,,,,,,,509.6243,509.6252,,0,96,96,96,1,16,novel,,,,,,,,,,,,,,,,,,,,,,,,,,,,,,,,,,,,,,,,,,,,,,,,,
,,22,8,${e://Field/PROLIFIC_PID,F,18,2023-11-03_23h00.46.245,MouseEye_CC,2023.2.2,Win32,162.8664495,1.023982319,,,1920,1080,44.375,3.68,"232.36, 305.93, 194.91, 205.56, 173.29, 131.21, 109.04",608.46,7.745685062,28.50412103,27.83653633,Passed,95.48880544,,,,,,,,,,,,,,,,,,,,training,7,2,180,right,s,,,,,509.6256,510.1033,28.67150493,1,-5,1,0,1,0.4776,fixationPoint,510.1033,510.2003,510.2003,510.3456,28.67150493,8191.858553,493.5594778,s,1,0.1425,,510.3457,510.5454,,,,,,,,31,-216,64,167,124,78,67,125,118,-218,-127,-17,-222,-116,-125,79,-76,168,-121,209,-18,-128,16,-176,122,270,180,270,270,180,180,90,90,90,180,180,,,,,,,,,,,510.5455,510.5456,,0,97,97,97,1,15,novel,,,,,,,,,,,,,,,,,,,,,,,,,,,,,,,,,,,,,,,,,,,,,,,,,
,,22,8,${e://Field/PROLIFIC_PID,F,18,2023-11-03_23h00.46.245,MouseEye_CC,2023.2.2,Win32,162.8664495,1.023982319,,,1920,1080,44.375,3.68,"232.36, 305.93, 194.91, 205.56, 173.29, 131.21, 109.04",608.46,7.745685062,28.50412103,27.83653633,Passed,95.48880544,,,,,,,,,,,,,,,,,,,,training,7,3,180,right,s,,,,,510.5459,510.788,28.67150493,0,-2,1,0,1,0.242,fixationPoint,510.7881,510.8851,510.8851,511.1095,28.67150493,8191.858553,493.5594778,s,1,0.2197,,511.1096,511.3094,,,,,,,,60,209,-18,126,29,76,165,222,113,-67,126,-28,79,-172,170,-70,-117,-32,-124,-218,-127,168,-121,20,-161,270,270,360,270,360,270,270,90,270,180,180,,,,,,,,,,,511.3095,511.3101,,0,98,98,98,1,12,novel,,,,,,,,,,,,,,,,,,,,,,,,,,,,,,,,,,,,,,,,,,,,,,,,,
,,22,8,${e://Field/PROLIFIC_PID,F,18,2023-11-03_23h00.46.245,MouseEye_CC,2023.2.2,Win32,162.8664495,1.023982319,,,1920,1080,44.375,3.68,"232.36, 305.93, 194.91, 205.56, 173.29, 131.21, 109.04",608.46,7.745685062,28.50412103,27.83653633,Passed,95.48880544,,,,,,,,,,,,,,,,,,,,training,7,4,0,left,a,,,,,511.3111,511.5701,28.67150493,-1,-2,1,0,1,0.2588,fixationPoint,511.5702,511.667,511.6671,512.1698,28.67150493,8191.858553,493.5594778,a,1,0.4952,,512.1698,512.3698,,,,,,,,84,-73,-165,74,116,125,118,30,166,-65,77,-19,16,-67,17,28,-24,175,-168,224,-75,-173,-216,-213,-74,180,360,180,180,270,360,180,180,90,270,90,,,,,,,,,,,512.3698,512.37,,0,99,99,99,1,9,novel,,,,,,,,,,,,,,,,,,,,,,,,,,,,,,,,,,,,,,,,,,,,,,,,,
,,22,8,${e://Field/PROLIFIC_PID,F,18,2023-11-03_23h00.46.245,MouseEye_CC,2023.2.2,Win32,162.8664495,1.023982319,,,1920,1080,44.375,3.68,"232.36, 305.93, 194.91, 205.56, 173.29, 131.21, 109.04",608.46,7.745685062,28.50412103,27.83653633,Passed,95.48880544,,,,,,,,,,,,,,,,,,,,training,7,5,0,left,a,,,,,512.3703,512.8367,28.67150493,-1,-2,1,0,1,0.4662,fixationPoint,512.8367,512.9334,512.9335,513.0364,28.67150493,8191.858553,493.5594778,a,1,0.0967,,513.0365,513.2364,,,,,,,,30,222,113,-221,169,-174,23,-128,16,-223,-31,-80,-23,-16,-26,72,-166,209,-18,224,-75,74,23,213,32,180,90,360,270,90,90,270,180,270,360,270,,,,,,,,,,,513.2365,513.2365,,0,100,100,100,1,14,novel,,,,,,,,,,,,,,,,,,,,,,,,,,,,,,,,,,,,,,,,,,,,,,,,,
,,22,8,${e://Field/PROLIFIC_PID,F,18,2023-11-03_23h00.46.245,MouseEye_CC,2023.2.2,Win32,162.8664495,1.023982319,,,1920,1080,44.375,3.68,"232.36, 305.93, 194.91, 205.56, 173.29, 131.21, 109.04",608.46,7.745685062,28.50412103,27.83653633,Passed,95.48880544,,,,,,,,,,,,,,,,,,,,training,7,6,180,right,s,,,,,513.2369,515.2788,28.67150493,13,15,1,0,1,1.8842,fixationPoint,515.2788,515.3757,515.3758,515.5515,28.67150493,8191.858553,493.5594778,s,1,0.1718,,515.5516,515.7519,,,,,,,,70,224,-75,112,64,213,32,20,27,-224,32,-31,169,-119,213,-173,-216,-126,-216,-116,-125,69,-124,165,-19,90,180,90,180,180,360,180,360,90,270,90,,,,,,,,,,,515.7519,515.7522,,0,101,101,101,1,7,repeated,,,,,,,,,,,,,,,,,,,,,,,,,,,,,,,,,,,,,,,,,,,,,,,,,
,,22,8,${e://Field/PROLIFIC_PID,F,18,2023-11-03_23h00.46.245,MouseEye_CC,2023.2.2,Win32,162.8664495,1.023982319,,,1920,1080,44.375,3.68,"232.36, 305.93, 194.91, 205.56, 173.29, 131.21, 109.04",608.46,7.745685062,28.50412103,27.83653633,Passed,95.48880544,,,,,,,,,,,,,,,,,,,,training,7,7,0,left,a,,,,,515.7535,516.6908,28.67150493,-2,-10,1,0,1,0.9373,fixationPoint,516.6908,516.7877,516.7877,516.8485,28.67150493,8191.858553,493.5594778,a,1,0.0555,,516.8496,517.0483,,,,,,,,82,-168,-174,176,69,167,124,78,67,-176,122,-218,124,-21,120,224,-75,165,-19,28,-221,-216,-215,-32,-124,360,270,90,270,180,90,270,180,270,90,180,,,,,,,,,,,517.0484,517.0484,,0,102,102,102,1,5,repeated,,,,,,,,,,,,,,,,,,,,,,,,,,,,,,,,,,,,,,,,,,,,,,,,,
,,22,8,${e://Field/PROLIFIC_PID,F,18,2023-11-03_23h00.46.245,MouseEye_CC,2023.2.2,Win32,162.8664495,1.023982319,,,1920,1080,44.375,3.68,"232.36, 305.93, 194.91, 205.56, 173.29, 131.21, 109.04",608.46,7.745685062,28.50412103,27.83653633,Passed,95.48880544,,,,,,,,,,,,,,,,,,,,training,7,8,180,right,s,,,,,517.0487,518.0788,28.67150493,-2,-10,1,0,1,1.0299,fixationPoint,518.0789,518.1756,518.1757,518.9457,28.67150493,8191.858553,493.5594778,s,1,0.7681,,518.946,519.1456,,,,,,,,4,-72,224,112,64,222,113,30,166,-126,-164,-170,-68,-80,-23,20,-161,121,-70,79,-76,-176,122,-77,162,90,180,360,180,360,180,270,180,90,90,180,,,,,,,,,,,519.1456,519.146,,0,103,103,103,1,3,repeated,,,,,,,,,,,,,,,,,,,,,,,,,,,,,,,,,,,,,,,,,,,,,,,,,
,,22,8,${e://Field/PROLIFIC_PID,F,18,2023-11-03_23h00.46.245,MouseEye_CC,2023.2.2,Win32,162.8664495,1.023982319,,,1920,1080,44.375,3.68,"232.36, 305.93, 194.91, 205.56, 173.29, 131.21, 109.04",608.46,7.745685062,28.50412103,27.83653633,Passed,95.48880544,,,,,,,,,,,,,,,,,,,,training,7,9,180,right,s,,,,,519.1469,520.2423,28.67150493,15,-13,1,0,1,0.8105,fixationPoint,520.2423,520.3392,520.3392,520.3696,28.67150493,8191.858553,493.5594778,s,1,0.0244,,520.3696,520.5696,,,,,,,,19,160,161,-67,17,-19,16,-166,79,-30,-161,-168,-174,-214,-170,208,-126,28,-24,119,-172,80,220,20,27,90,180,90,180,180,90,360,270,270,360,360,,,,,,,,,,,520.5696,520.5698,,0,104,104,104,1,13,novel,,,,,,,,,,,,,,,,,,,,,,,,,,,,,,,,,,,,,,,,,,,,,,,,,
,,22,8,${e://Field/PROLIFIC_PID,F,18,2023-11-03_23h00.46.245,MouseEye_CC,2023.2.2,Win32,162.8664495,1.023982319,,,1920,1080,44.375,3.68,"232.36, 305.93, 194.91, 205.56, 173.29, 131.21, 109.04",608.46,7.745685062,28.50412103,27.83653633,Passed,95.48880544,,,,,,,,,,,,,,,,,,,,training,7,10,180,right,s,,,,,520.5701,521.4484,28.67150493,5,0,1,0,1,0.8781,fixationPoint,521.4484,521.5453,521.5453,521.6423,28.67150493,8191.858553,493.5594778,s,1,0.0908,,521.6424,521.8423,,,,,,,,71,-218,-127,208,211,124,172,125,118,-176,122,-224,32,-216,64,28,-221,215,-168,28,-24,-80,-23,-223,-31,270,360,270,90,270,180,270,270,180,360,90,,,,,,,,,,,521.8423,521.8424,,0,105,105,105,1,6,repeated,,,,,,,,,,,,,,,,,,,,,,,,,,,,,,,,,,,,,,,,,,,,,,,,,
,,22,8,${e://Field/PROLIFIC_PID,F,18,2023-11-03_23h00.46.245,MouseEye_CC,2023.2.2,Win32,162.8664495,1.023982319,,,1920,1080,44.375,3.68,"232.36, 305.93, 194.91, 205.56, 173.29, 131.21, 109.04",608.46,7.745685062,28.50412103,27.83653633,Passed,95.48880544,,,,,,,,,,,,,,,,,,,,training,7,11,180,right,s,,,,,521.8428,523.1029,28.67150493,4,-15,1,0,1,0.5933,fixationPoint,523.1029,523.1998,523.1998,523.3271,28.67150493,8191.858553,493.5594778,s,1,0.1213,,523.3272,523.5272,,,,,,,,41,-224,32,160,161,30,166,125,118,-173,-114,-126,-164,-16,-26,119,-172,28,-221,112,-32,-174,23,-213,222,90,180,270,360,270,360,360,270,180,90,270,,,,,,,,,,,523.5272,523.5273,,0,106,106,106,1,4,repeated,,,,,,,,,,,,,,,,,,,,,,,,,,,,,,,,,,,,,,,,,,,,,,,,,
,,22,8,${e://Field/PROLIFIC_PID,F,18,2023-11-03_23h00.46.245,MouseEye_CC,2023.2.2,Win32,162.8664495,1.023982319,,,1920,1080,44.375,3.68,"232.36, 305.93, 194.91, 205.56, 173.29, 131.21, 109.04",608.46,7.745685062,28.50412103,27.83653633,Passed,95.48880544,,,,,,,,,,,,,,,,,,,,training,7,12,0,left,a,,,,,523.5276,524.2604,28.67150493,-4,0,1,0,1,0.7327,fixationPoint,524.2604,524.3575,524.3576,524.4245,28.67150493,8191.858553,493.5594778,a,1,0.0636,,524.4246,524.624,,,,,,,,69,173,-77,78,67,80,220,167,124,-65,77,-166,79,-174,23,-70,-117,-213,-74,-32,-124,69,-124,216,-224,180,90,270,90,360,90,90,90,360,270,270,,,,,,,,,,,524.624,524.6241,,0,107,107,107,1,8,repeated,,,,,,,,,,,,,,,,,,,,,,,,,,,,,,,,,,,,,,,,,,,,,,,,,
,,22,8,${e://Field/PROLIFIC_PID,F,18,2023-11-03_23h00.46.245,MouseEye_CC,2023.2.2,Win32,162.8664495,1.023982319,,,1920,1080,44.375,3.68,"232.36, 305.93, 194.91, 205.56, 173.29, 131.21, 109.04",608.46,7.745685062,28.50412103,27.83653633,Passed,95.48880544,,,,,,,,,,,,,,,,,,,,training,7,13,0,left,a,,,,,524.6244,525.412,28.67150493,-4,0,1,0,1,0.7875,fixationPoint,525.4121,525.5088,525.5088,525.624,28.67150493,8191.858553,493.5594778,a,1,0.1097,,525.624,525.824,,,,,,,,40,209,72,-221,169,-116,74,-29,210,-218,-127,-70,-117,-173,-114,209,-18,224,-75,28,-64,112,64,160,161,270,270,360,270,360,270,360,180,180,270,270,,,,,,,,,,,525.8241,525.8242,,0,108,108,108,1,2,repeated,,,,,,,,,,,,,,,,,,,,,,,,,,,,,,,,,,,,,,,,,,,,,,,,,
,,22,8,${e://Field/PROLIFIC_PID,F,18,2023-11-03_23h00.46.245,MouseEye_CC,2023.2.2,Win32,162.8664495,1.023982319,,,1920,1080,44.375,3.68,"232.36, 305.93, 194.91, 205.56, 173.29, 131.21, 109.04",608.46,7.745685062,28.50412103,27.83653633,Passed,95.48880544,,,,,,,,,,,,,,,,,,,,training,7,14,0,left,a,,,,,525.8245,526.5878,28.67150493,-4,0,1,0,1,0.7632,fixationPoint,526.5879,526.6846,526.6847,526.7876,28.67150493,8191.858553,493.5594778,a,1,0.0983,,526.7877,526.9876,,,,,,,,97,69,-220,74,23,20,72,112,64,-213,222,-218,124,-120,120,-214,-170,-218,-127,-26,-66,121,-70,123,-220,360,90,90,360,90,180,180,360,90,180,180,,,,,,,,,,,526.9876,526.9877,,0,109,109,109,1,11,novel,,,,,,,,,,,,,,,,,,,,,,,,,,,,,,,,,,,,,,,,,,,,,,,,,
,,22,8,${e://Field/PROLIFIC_PID,F,18,2023-11-03_23h00.46.245,MouseEye_CC,2023.2.2,Win32,162.8664495,1.023982319,,,1920,1080,44.375,3.68,"232.36, 305.93, 194.91, 205.56, 173.29, 131.21, 109.04",608.46,7.745685062,28.50412103,27.83653633,Passed,95.48880544,,,,,,,,,,,,,,,,,,,,training,7,15,0,left,a,,,,,526.9881,527.3937,28.67150493,-4,0,1,0,1,0.4055,fixationPoint,527.3937,527.4906,527.4907,527.8179,28.67150493,8191.858553,493.5594778,a,1,0.3253,,527.818,528.0179,,,,,,,,61,-213,-74,209,167,124,215,208,211,-213,222,-116,74,-67,126,208,-126,215,-168,112,-32,-124,-69,-173,-216,360,360,270,360,360,180,270,360,90,90,270,,,,,,,,,,,528.0179,528.018,,0,110,110,110,1,10,novel,,,,,,,,,,,,,,,,,,,,,,,,,,,,,,,,,,,,,,,,,,,,,,,,,
,,22,8,${e://Field/PROLIFIC_PID,F,18,2023-11-03_23h00.46.245,MouseEye_CC,2023.2.2,Win32,162.8664495,1.023982319,,,1920,1080,44.375,3.68,"232.36, 305.93, 194.91, 205.56, 173.29, 131.21, 109.04",608.46,7.745685062,28.50412103,27.83653633,Passed,95.48880544,,,,,,,,,,,,,,,,,,,,training,7,16,0,left,a,,,,,528.0184,528.7582,28.67150493,-5,1,1,0,1,0.7395,fixationPoint,528.7583,528.8547,528.8548,528.9815,28.67150493,8191.858553,493.5594778,a,1,0.125,,528.9816,529.1815,,,,,,,,17,76,165,-216,64,-116,160,-218,124,-68,-209,-114,-32,-170,-68,209,-18,173,-77,119,-172,176,69,160,161,360,180,270,360,270,90,90,270,90,270,360,,,,,,,,,,,529.1815,530.1212,space,0,111,111,111,1,1,repeated,0.9318,,,,,,,,,,,,,,,,,,,,,,,,,,,,,,,,,,,,,,,,,,,,,,,,
,,22,8,${e://Field/PROLIFIC_PID,F,18,2023-11-03_23h00.46.245,MouseEye_CC,2023.2.2,Win32,162.8664495,1.023982319,,,1920,1080,44.375,3.68,"232.36, 305.93, 194.91, 205.56, 173.29, 131.21, 109.04",608.46,7.745685062,28.50412103,27.83653633,Passed,95.48880544,,,,,,,,,,,,,,,,,,,,training,8,1,0,left,a,,,,,530.1217,530.4603,28.67150493,-5,-1,1,0,1,0.3385,fixationPoint,530.4603,530.5572,530.5572,531.4602,28.67150493,8191.858553,493.5594778,a,1,0.8998,,531.4604,531.6602,,,,,,,,60,209,-18,167,124,126,29,78,67,-19,16,-116,74,-77,162,-170,-32,-124,-69,-126,-216,28,-221,168,-121,180,270,270,90,360,90,270,180,360,360,90,,,,,,,,,,,531.6602,531.6613,,0,112,112,112,1,12,novel,,,,,,,,,,,,,,,,,,,,,,,,,,,,,,,,,,,,,,,,,,,,,,,,,
