InstrStartPage.started,InstrStartPage.stopped,participant,designid,prolificid,Gender,Age,date,expName,psychopyVersion,OS,frameRate,ratio_monitor2CRT,VirtualChinrest.started,VirtualChinrest.stopped,xRes,yRes,viewingdistance_cm,pixeldensity_px2mm,BallPos,squarePos,mm2degree,px2degree,CRT_px2degree,PassVirtualChinrest,foveaRadius_inPixel,InstrRedo.started,InstrRedo.stopped,VirtualChinrest_Redo.started,VirtualChinrest_Redo.stopped,Instruction1.started,Instruction1.stopped,keyPractice.started,keyPractice.stopped,key_keyprac.keys,key_keyprac.corr,key_keyprac.rt,key_keyprac.duration,keyPracFeedback.started,keyPracFeedback.stopped,keyPracLoop.thisRepN,keyPracLoop.thisTrialN,keyPracLoop.thisN,keyPracLoop.thisIndex,keyPracLoop.ran,phase,block,trial,targOrientdeg,targOrient,corrAnswer,Instruction2.started,Instruction2.stopped,Instruction3.started,Instruction3.stopped,fixation.started,fixation.stopped,fixationSize,mouseintial.x,mouseintial.y,mouseintial.leftButton,mouseintial.midButton,mouseintial.rightButton,mouseintial.time,mouseintial.clicked_name,greenFixation.started,greenFixation.stopped,trial.started,trial.stopped,letterSize,apertureSize,searchsize,key_respMain.keys,key_respMain.corr,key_respMain.rt,key_respMain.duration,trialFeedback.started,trialFeedback.stopped,trialsPractice.thisRepN,trialsPractice.thisTrialN,trialsPractice.thisN,trialsPractice.thisIndex,trialsPractice.ran,targetQuad,Tcondition,targcell,tlocx,tlocy,d1x,d1y,d2x,d2y,d3x,d3y,d4x,d4y,d5x,d5y,d6x,d6y,d7x,d7y,d8x,d8y,d9x,d9y,d10x,d10y,d11x,d11y,d1Orient,d2Orient,d3Orient,d4Orient,d5Orient,d6Orient,d7Orient,d8Orient,d9Orient,d10Orient,d11Orient,CheckInstr.started,CheckInstr.stopped,key_checkInstr.keys,key_checkInstr.corr,key_checkInstr.rt,key_checkInstr.duration,CheckInstr_FB.started,CheckInstr_FB.stopped,Instruction_MainExp.started,Instruction_MainExp.stopped,TakeABreak.started,TakeABreak.stopped,key_respBreak.keys,trials.thisRepN,trials.thisTrialN,trials.thisN,trials.thisIndex,trials.ran,configurationNumber,CCCondition,key_respBreak.rt,key_respBreak.duration,displayTestingPhase.started,displayTestingPhase.stopped,key_respTesting.keys,key_respTesting.corr,key_respTesting.rt,key_respTesting.duration,TakeABreak2.started,TakeABreak2.stopped,key_RespBreak.keys,Testingtrials.thisRepN,Testingtrials.thisTrialN,Testingtrials.thisN,Testingtrials.thisIndex,Testingtrials.ran,key_RespBreak.rt,key_RespBreak.duration,RecogQuestion.started,RecogQuestion.stopped,key_AnswerQues.keys,key_AnswerQues.rt,key_AnswerQues.duration,Disclose.started,Disclose.stopped,InstrRT.started,InstrRT.stopped,fixation_RT.started,fixation_RT.stopped,mouseInitial.x,mouseInitial.y,mouseInitial.leftButton,mouseInitial.midButton,mouseInitial.rightButton,mouseInitial.time,mouseInitial.clicked_name,displayRT.started,displayRT.stopped,key_respRT.keys,key_respRT.corr,key_respRT.rt,key_respRT.duration,RTtrials.thisRepN,RTtrials.thisTrialN,RTtrials.thisN,RTtrials.thisIndex,RTtrials.ran,EndOfExperiment.started,EndOfExperiment.stopped
0.0003,12.4485,24,11,${e://Field/PROLIFIC_PID,M,29,2023-11-04_01h56.37.881,MouseEye_CC,2023.2.2,Win32,60.07088364,1,,,,,,,,,,,,,,,,,,,,,,,,,,,,,,,,,,,,,,,,,,,,,,,,,,,,,,,,,,,,,,,,,,,,,,,,,,,,,,,,,,,,,,,,,,,,,,,,,,,,,,,,,,,,,,,,,,,,,,,,,,,,,,,,,,,,,,,,,,,,,,,,,,,,,,,,,,,,,,,,,,,,,,,,,,,,,,,,,
,,24,11,${e://Field/PROLIFIC_PID,M,29,2023-11-04_01h56.37.881,MouseEye_CC,2023.2.2,Win32,60.07088364,1.186587952,12.4489,172.0394,1366,768,36.744,5.15,"437.7, 425.94, 449.63, 436.43, 469.58, 423.4, 440.41",892.33,6.413689057,33.03049864,27.83653633,Passed,110.6521705,,,,,,,,,,,,,,,,,,,,,,,,,,,,,,,,,,,,,,,,,,,,,,,,,,,,,,,,,,,,,,,,,,,,,,,,,,,,,,,,,,,,,,,,,,,,,,,,,,,,,,,,,,,,,,,,,,,,,,,,,,,,,,,,,,,,,,,,,,,,,,,,,,,,,,,,,,,,,,,,,,,,
,,24,11,${e://Field/PROLIFIC_PID,M,29,2023-11-04_01h56.37.881,MouseEye_CC,2023.2.2,Win32,60.07088364,1.186587952,,,1366,768,36.744,5.15,"437.7, 425.94, 449.63, 436.43, 469.58, 423.4, 440.41",892.33,6.413689057,33.03049864,27.83653633,Passed,110.6521705,172.0396,172.0487,,,,,,,,,,,,,,,,,,,,,,,,,,,,,,,,,,,,,,,,,,,,,,,,,,,,,,,,,,,,,,,,,,,,,,,,,,,,,,,,,,,,,,,,,,,,,,,,,,,,,,,,,,,,,,,,,,,,,,,,,,,,,,,,,,,,,,,,,,,,,,,,,,,,,,,,,,,,,,,,,,
,,24,11,${e://Field/PROLIFIC_PID,M,29,2023-11-04_01h56.37.881,MouseEye_CC,2023.2.2,Win32,60.07088364,1.187854856,,,1366,768,36.013999999999996,5.26,"437.7, 425.94, 449.63, 436.43, 469.58, 423.4, 440.41",892.33,6.286267083,33.06576486,27.83653633,Passed,110.7703123,,,172.0489,212.3824,,,,,,,,,,,,,,,,,,,,,,,,,,,,,,,,,,,,,,,,,,,,,,,,,,,,,,,,,,,,,,,,,,,,,,,,,,,,,,,,,,,,,,,,,,,,,,,,,,,,,,,,,,,,,,,,,,,,,,,,,,,,,,,,,,,,,,,,,,,,,,,,,,,,,,,,,,,,,,,,
,,24,11,${e://Field/PROLIFIC_PID,M,29,2023-11-04_01h56.37.881,MouseEye_CC,2023.2.2,Win32,60.07088364,1.187854856,,,1366,768,36.013999999999996,5.26,"437.7, 425.94, 449.63, 436.43, 469.58, 423.4, 440.41",892.33,6.286267083,33.06576486,27.83653633,Passed,110.7703123,,,,,212.3827,244.164,,,,,,,,,,,,,,,,,,,,,,,,,,,,,,,,,,,,,,,,,,,,,,,,,,,,,,,,,,,,,,,,,,,,,,,,,,,,,,,,,,,,,,,,,,,,,,,,,,,,,,,,,,,,,,,,,,,,,,,,,,,,,,,,,,,,,,,,,,,,,,,,,,,,,,,,,,,,,,
,,24,11,${e://Field/PROLIFIC_PID,M,29,2023-11-04_01h56.37.881,MouseEye_CC,2023.2.2,Win32,60.07088364,1.187854856,,,1366,768,36.013999999999996,5.26,"437.7, 425.94, 449.63, 436.43, 469.58, 423.4, 440.41",892.33,6.286267083,33.06576486,27.83653633,Passed,110.7703123,,,,,,,244.1873,245.1463,a,1,0.4251,,245.1464,245.6459,0,0,0,0,1,practice,1,1,0,left,a,,,,,,,,,,,,,,,,,,,,,,,,,,,,,,,,,,,,,,,,,,,,,,,,,,,,,,,,,,,,,,,,,,,,,,,,,,,,,,,,,,,,,,,,,,,,,,,,,,,,,,,,,,,,,,,,,,,,,,,,,,,,,,,,,,,,,,,,,,,
,,24,11,${e://Field/PROLIFIC_PID,M,29,2023-11-04_01h56.37.881,MouseEye_CC,2023.2.2,Win32,60.07088364,1.187854856,,,1366,768,36.013999999999996,5.26,"437.7, 425.94, 449.63, 436.43, 469.58, 423.4, 440.41",892.33,6.286267083,33.06576486,27.83653633,Passed,110.7703123,,,,,,,245.6463,246.6117,a,1,0.4379,,246.6117,247.1114,0,1,1,1,1,practice,1,2,0,left,a,,,,,,,,,,,,,,,,,,,,,,,,,,,,,,,,,,,,,,,,,,,,,,,,,,,,,,,,,,,,,,,,,,,,,,,,,,,,,,,,,,,,,,,,,,,,,,,,,,,,,,,,,,,,,,,,,,,,,,,,,,,,,,,,,,,,,,,,,,,
,,24,11,${e://Field/PROLIFIC_PID,M,29,2023-11-04_01h56.37.881,MouseEye_CC,2023.2.2,Win32,60.07088364,1.187854856,,,1366,768,36.013999999999996,5.26,"437.7, 425.94, 449.63, 436.43, 469.58, 423.4, 440.41",892.33,6.286267083,33.06576486,27.83653633,Passed,110.7703123,,,,,,,247.1118,248.061,a,1,0.4168,,248.0611,248.5606,0,2,2,2,1,practice,1,3,0,left,a,,,,,,,,,,,,,,,,,,,,,,,,,,,,,,,,,,,,,,,,,,,,,,,,,,,,,,,,,,,,,,,,,,,,,,,,,,,,,,,,,,,,,,,,,,,,,,,,,,,,,,,,,,,,,,,,,,,,,,,,,,,,,,,,,,,,,,,,,,,
,,24,11,${e://Field/PROLIFIC_PID,M,29,2023-11-04_01h56.37.881,MouseEye_CC,2023.2.2,Win32,60.07088364,1.187854856,,,1366,768,36.013999999999996,5.26,"437.7, 425.94, 449.63, 436.43, 469.58, 423.4, 440.41",892.33,6.286267083,33.06576486,27.83653633,Passed,110.7703123,,,,,,,248.5608,249.6602,s,1,0.5761,,249.6602,250.1597,0,3,3,3,1,practice,1,4,180,right,s,,,,,,,,,,,,,,,,,,,,,,,,,,,,,,,,,,,,,,,,,,,,,,,,,,,,,,,,,,,,,,,,,,,,,,,,,,,,,,,,,,,,,,,,,,,,,,,,,,,,,,,,,,,,,,,,,,,,,,,,,,,,,,,,,,,,,,,,,,,
,,24,11,${e://Field/PROLIFIC_PID,M,29,2023-11-04_01h56.37.881,MouseEye_CC,2023.2.2,Win32,60.07088364,1.187854856,,,1366,768,36.013999999999996,5.26,"437.7, 425.94, 449.63, 436.43, 469.58, 423.4, 440.41",892.33,6.286267083,33.06576486,27.83653633,Passed,110.7703123,,,,,,,250.16,251.0093,a,0,0.3266,,251.0093,251.5089,0,4,4,4,1,practice,1,5,180,right,s,,,,,,,,,,,,,,,,,,,,,,,,,,,,,,,,,,,,,,,,,,,,,,,,,,,,,,,,,,,,,,,,,,,,,,,,,,,,,,,,,,,,,,,,,,,,,,,,,,,,,,,,,,,,,,,,,,,,,,,,,,,,,,,,,,,,,,,,,,,
,,24,11,${e://Field/PROLIFIC_PID,M,29,2023-11-04_01h56.37.881,MouseEye_CC,2023.2.2,Win32,60.07088364,1.187854856,,,1366,768,36.013999999999996,5.26,"437.7, 425.94, 449.63, 436.43, 469.58, 423.4, 440.41",892.33,6.286267083,33.06576486,27.83653633,Passed,110.7703123,,,,,,,251.5092,252.5917,a,1,0.5558,,252.5917,253.0914,0,5,5,5,1,practice,1,6,0,left,a,,,,,,,,,,,,,,,,,,,,,,,,,,,,,,,,,,,,,,,,,,,,,,,,,,,,,,,,,,,,,,,,,,,,,,,,,,,,,,,,,,,,,,,,,,,,,,,,,,,,,,,,,,,,,,,,,,,,,,,,,,,,,,,,,,,,,,,,,,,
,,24,11,${e://Field/PROLIFIC_PID,M,29,2023-11-04_01h56.37.881,MouseEye_CC,2023.2.2,Win32,60.07088364,1.187854856,,,1366,768,36.013999999999996,5.26,"437.7, 425.94, 449.63, 436.43, 469.58, 423.4, 440.41",892.33,6.286267083,33.06576486,27.83653633,Passed,110.7703123,,,,,,,253.0916,254.0576,s,1,0.4334,,254.0576,254.558,0,6,6,6,1,practice,1,7,180,right,s,,,,,,,,,,,,,,,,,,,,,,,,,,,,,,,,,,,,,,,,,,,,,,,,,,,,,,,,,,,,,,,,,,,,,,,,,,,,,,,,,,,,,,,,,,,,,,,,,,,,,,,,,,,,,,,,,,,,,,,,,,,,,,,,,,,,,,,,,,,
,,24,11,${e://Field/PROLIFIC_PID,M,29,2023-11-04_01h56.37.881,MouseEye_CC,2023.2.2,Win32,60.07088364,1.187854856,,,1366,768,36.013999999999996,5.26,"437.7, 425.94, 449.63, 436.43, 469.58, 423.4, 440.41",892.33,6.286267083,33.06576486,27.83653633,Passed,110.7703123,,,,,,,,,,,,,,,,,,,,,,,,,,254.5587,269.9324,,,,,,,,,,,,,,,,,,,,,,,,,,,,,,,,,,,,,,,,,,,,,,,,,,,,,,,,,,,,,,,,,,,,,,,,,,,,,,,,,,,,,,,,,,,,,,,,,,,,,,,,,,,,,,,,,,,,,,,,,,,,,,,,,,,,,,,,,
,,24,11,${e://Field/PROLIFIC_PID,M,29,2023-11-04_01h56.37.881,MouseEye_CC,2023.2.2,Win32,60.07088364,1.187854856,,,1366,768,36.013999999999996,5.26,"437.7, 425.94, 449.63, 436.43, 469.58, 423.4, 440.41",892.33,6.286267083,33.06576486,27.83653633,Passed,110.7703123,,,,,,,,,,,,,,,,,,,,,,,,,,,,269.9326,281.9254,,,,,,,,,,,,,,,,,,,,,,,,,,,,,,,,,,,,,,,,,,,,,,,,,,,,,,,,,,,,,,,,,,,,,,,,,,,,,,,,,,,,,,,,,,,,,,,,,,,,,,,,,,,,,,,,,,,,,,,,,,,,,,,,,,,,,,,
,,24,11,${e://Field/PROLIFIC_PID,M,29,2023-11-04_01h56.37.881,MouseEye_CC,2023.2.2,Win32,60.07088364,1.187854856,,,1366,768,36.013999999999996,5.26,"437.7, 425.94, 449.63, 436.43, 469.58, 423.4, 440.41",892.33,6.286267083,33.06576486,27.83653633,Passed,110.7703123,,,,,,,,,,,,,,,,,,,,practice,0,1,0,left,a,,,,,281.9485,284.8068,33.25993597,1.5,-2.5,1,0,0,2.858,fixationPoint,284.807,284.9064,284.9068,286.2127,33.25993597,9502.838849,572.5460406,a,1,1.2824,,286.2129,286.4055,0,0,0,0,1,4,sparse,90,217,-164,68,123,222,26,214,216,-218,159,-120,223,-110,82,-115,-130,-224,-120,-68,-219,79,-175,19,-128,90,270,360,90,270,270,180,90,90,90,270,,,,,,,,,,,,,,,,,,,,,,,,,,,,,,,,,,,,,,,,,,,,,,,,,,,,,,,,,,,,,,,,,,,,,
,,24,11,${e://Field/PROLIFIC_PID,M,29,2023-11-04_01h56.37.881,MouseEye_CC,2023.2.2,Win32,60.07088364,1.187854856,,,1366,768,36.013999999999996,5.26,"437.7, 425.94, 449.63, 436.43, 469.58, 423.4, 440.41",892.33,6.286267083,33.06576486,27.83653633,Passed,110.7703123,,,,,,,,,,,,,,,,,,,,practice,0,2,0,left,a,,,,,286.406,288.2608,33.25993597,1.5,-2.5,1,0,0,1.8548,fixationPoint,288.2608,288.3542,288.3542,291.2593,33.25993597,9502.838849,572.5460406,a,1,2.8819,,291.2594,291.4524,0,1,1,1,1,1,rich,39,169,66,-126,125,-169,169,-130,19,-169,-116,-125,-167,-224,-216,218,-129,171,-218,18,-208,166,26,17,170,180,90,360,270,90,90,90,270,180,180,270,,,,,,,,,,,,,,,,,,,,,,,,,,,,,,,,,,,,,,,,,,,,,,,,,,,,,,,,,,,,,,,,,,,,,
,,24,11,${e://Field/PROLIFIC_PID,M,29,2023-11-04_01h56.37.881,MouseEye_CC,2023.2.2,Win32,60.07088364,1.187854856,,,1366,768,36.013999999999996,5.26,"437.7, 425.94, 449.63, 436.43, 469.58, 423.4, 440.41",892.33,6.286267083,33.06576486,27.83653633,Passed,110.7703123,,,,,,,,,,,,,,,,,,,,practice,0,3,0,left,a,,,,,291.4527,292.5685,33.25993597,1.5,-2.5,1,0,0,1.1156,fixationPoint,292.5686,292.6683,292.6685,295.3336,33.25993597,9502.838849,572.5460406,a,1,2.6322,,295.3337,295.5334,0,2,2,2,1,2,sparse,22,-162,126,222,26,17,170,126,172,-25,-117,-175,-206,-224,-216,116,-19,130,-174,217,-164,-218,159,-21,162,90,90,180,360,360,270,360,360,360,360,180,,,,,,,,,,,,,,,,,,,,,,,,,,,,,,,,,,,,,,,,,,,,,,,,,,,,,,,,,,,,,,,,,,,,,
,,24,11,${e://Field/PROLIFIC_PID,M,29,2023-11-04_01h56.37.881,MouseEye_CC,2023.2.2,Win32,60.07088364,1.187854856,,,1366,768,36.013999999999996,5.26,"437.7, 425.94, 449.63, 436.43, 469.58, 423.4, 440.41",892.33,6.286267083,33.06576486,27.83653633,Passed,110.7703123,,,,,,,,,,,,,,,,,,,,practice,0,4,180,right,s,,,,,295.5338,296.6827,33.25993597,1.5,-2.5,1,0,0,1.1489,fixationPoint,296.6828,296.7826,296.7827,298.4985,33.25993597,9502.838849,572.5460406,s,1,1.6829,,298.4986,298.6983,0,3,3,3,1,4,sparse,76,19,-128,159,121,214,216,219,165,-218,159,-162,126,-219,119,-169,-116,-111,-31,-175,-206,18,-208,81,-114,90,270,180,180,270,180,360,360,360,270,360,,,,,,,,,,,,,,,,,,,,,,,,,,,,,,,,,,,,,,,,,,,,,,,,,,,,,,,,,,,,,,,,,,,,,
,,24,11,${e://Field/PROLIFIC_PID,M,29,2023-11-04_01h56.37.881,MouseEye_CC,2023.2.2,Win32,60.07088364,1.187854856,,,1366,768,36.013999999999996,5.26,"437.7, 425.94, 449.63, 436.43, 469.58, 423.4, 440.41",892.33,6.286267083,33.06576486,27.83653633,Passed,110.7703123,,,,,,,,,,,,,,,,,,,,practice,0,5,180,right,s,,,,,298.6986,299.7477,33.25993597,1.5,-2.5,1,0,0,1.0489,fixationPoint,299.7478,299.8475,299.8477,300.7971,33.25993597,9502.838849,572.5460406,s,1,0.9167,,300.7972,300.9969,0,4,4,4,1,3,sparse,85,-19,-173,219,165,68,123,214,216,-160,68,-64,120,-226,34,162,-21,224,-216,167,-163,-167,-74,-224,-216,360,360,360,90,180,270,90,360,270,270,360,,,,,,,,,,,,,,,,,,,,,,,,,,,,,,,,,,,,,,,,,,,,,,,,,,,,,,,,,,,,,,,,,,,,,
,,24,11,${e://Field/PROLIFIC_PID,M,29,2023-11-04_01h56.37.881,MouseEye_CC,2023.2.2,Win32,60.07088364,1.187854856,,,1366,768,36.013999999999996,5.26,"437.7, 425.94, 449.63, 436.43, 469.58, 423.4, 440.41",892.33,6.286267083,33.06576486,27.83653633,Passed,110.7703123,,,,,,,,,,,,,,,,,,,,practice,0,6,180,right,s,,,,,300.9973,302.0296,33.25993597,1.5,-2.5,1,0,0,1.0322,fixationPoint,302.0297,302.1296,302.1296,313.9395,33.25993597,9502.838849,572.5460406,a,0,11.7797,,313.9395,317.937,0,5,5,5,1,3,sparse,95,-21,-224,126,172,219,165,166,26,-166,207,-223,206,-219,119,169,-75,18,-208,224,-216,-72,-121,-115,-130,180,180,360,180,360,180,270,180,90,180,360,,,,,,,,,,,,,,,,,,,,,,,,,,,,,,,,,,,,,,,,,,,,,,,,,,,,,,,,,,,,,,,,,,,,,
,,24,11,${e://Field/PROLIFIC_PID,M,29,2023-11-04_01h56.37.881,MouseEye_CC,2023.2.2,Win32,60.07088364,1.187854856,,,1366,768,36.013999999999996,5.26,"437.7, 425.94, 449.63, 436.43, 469.58, 423.4, 440.41",892.33,6.286267083,33.06576486,27.83653633,Passed,110.7703123,,,,,,,,,,,,,,,,,,,,practice,0,7,0,left,a,,,,,317.9374,319.6194,33.25993597,1.5,-2.5,1,0,0,1.6818,fixationPoint,319.6194,319.7193,319.7193,322.6843,33.25993597,9502.838849,572.5460406,a,1,2.939,,322.6844,322.8841,0,6,6,6,1,1,rich,7,62,223,-166,207,-226,34,-162,126,-169,-116,-168,-160,-161,-27,15,-162,162,-21,79,-175,219,165,219,129,180,180,360,180,270,360,180,360,270,180,360,,,,,,,,,,,,,,,,,,,,,,,,,,,,,,,,,,,,,,,,,,,,,,,,,,,,,,,,,,,,,,,,,,,,,
,,24,11,${e://Field/PROLIFIC_PID,M,29,2023-11-04_01h56.37.881,MouseEye_CC,2023.2.2,Win32,60.07088364,1.187854856,,,1366,768,36.013999999999996,5.26,"437.7, 425.94, 449.63, 436.43, 469.58, 423.4, 440.41",892.33,6.286267083,33.06576486,27.83653633,Passed,110.7703123,,,,,,,,,,,,,,,,,,,,practice,0,8,180,right,s,,,,,322.8845,324.2667,33.25993597,1.5,-2.5,1,0,0,1.3821,fixationPoint,324.2668,324.3667,324.3668,327.0151,33.25993597,9502.838849,572.5460406,s,1,2.6175,,327.0152,327.2151,0,7,7,7,1,2,sparse,24,-64,120,18,215,126,172,33,121,-206,-170,-64,-162,-218,-78,130,-174,211,-74,168,-130,-164,32,-21,162,90,180,270,360,180,90,180,180,180,360,270,,,,,,,,,,,,,,,,,,,,,,,,,,,,,,,,,,,,,,,,,,,,,,,,,,,,,,,,,,,,,,,,,,,,,
,,24,11,${e://Field/PROLIFIC_PID,M,29,2023-11-04_01h56.37.881,MouseEye_CC,2023.2.2,Win32,60.07088364,1.187854856,,,1366,768,36.013999999999996,5.26,"437.7, 425.94, 449.63, 436.43, 469.58, 423.4, 440.41",892.33,6.286267083,33.06576486,27.83653633,Passed,110.7703123,,,,,,,,,,,,,,,,,,,,practice,0,9,180,right,s,,,,,327.2154,328.1811,33.25993597,1.5,-2.5,1,0,0,0.9656,fixationPoint,328.1812,328.281,328.281,330.5199,33.25993597,9502.838849,572.5460406,s,1,2.2157,,330.52,330.7129,0,8,8,8,1,3,sparse,85,-19,-173,127,30,62,223,217,67,-110,82,-21,162,-80,218,167,-163,126,-79,130,-174,-125,-167,-68,-219,360,360,360,180,360,360,180,270,90,360,180,,,,,,,,,,,,,,,,,,,,,,,,,,,,,,,,,,,,,,,,,,,,,,,,,,,,,,,,,,,,,,,,,,,,,
,,24,11,${e://Field/PROLIFIC_PID,M,29,2023-11-04_01h56.37.881,MouseEye_CC,2023.2.2,Win32,60.07088364,1.187854856,,,1366,768,36.013999999999996,5.26,"437.7, 425.94, 449.63, 436.43, 469.58, 423.4, 440.41",892.33,6.286267083,33.06576486,27.83653633,Passed,110.7703123,,,,,,,,,,,,,,,,,,,,practice,0,10,180,right,s,,,,,330.7134,331.4459,33.25993597,1.5,-2.5,1,0,0,0.7324,fixationPoint,331.4459,331.5458,331.5458,334.4442,33.25993597,9502.838849,572.5460406,s,1,2.8697,,334.4443,334.644,0,9,9,9,1,1,rich,9,160,209,-166,207,-226,34,-120,223,-224,-120,-118,-217,-218,-78,112,-209,126,-113,169,-75,178,160,110,129,180,90,90,270,360,270,360,180,360,180,360,,,,,,,,,,,,,,,,,,,,,,,,,,,,,,,,,,,,,,,,,,,,,,,,,,,,,,,,,,,,,,,,,,,,,
,,24,11,${e://Field/PROLIFIC_PID,M,29,2023-11-04_01h56.37.881,MouseEye_CC,2023.2.2,Win32,60.07088364,1.187854856,,,1366,768,36.013999999999996,5.26,"437.7, 425.94, 449.63, 436.43, 469.58, 423.4, 440.41",892.33,6.286267083,33.06576486,27.83653633,Passed,110.7703123,,,,,,,,,,,,,,,,,,,,practice,0,11,180,right,s,,,,,334.6444,335.4602,33.25993597,1.5,-2.5,1,0,0,0.8157,fixationPoint,335.4603,335.56,335.56,337.0428,33.25993597,9502.838849,572.5460406,s,1,1.4496,,337.0428,337.2424,0,10,10,10,1,4,sparse,80,218,-129,62,223,159,121,110,129,-218,159,-223,206,-75,173,-169,-116,-118,-217,-125,-167,217,-164,169,-75,360,270,360,180,360,180,180,270,360,180,90,,,,,,,,,,,,,,,,,,,,,,,,,,,,,,,,,,,,,,,,,,,,,,,,,,,,,,,,,,,,,,,,,,,,,
,,24,11,${e://Field/PROLIFIC_PID,M,29,2023-11-04_01h56.37.881,MouseEye_CC,2023.2.2,Win32,60.07088364,1.187854856,,,1366,768,36.013999999999996,5.26,"437.7, 425.94, 449.63, 436.43, 469.58, 423.4, 440.41",892.33,6.286267083,33.06576486,27.83653633,Passed,110.7703123,,,,,,,,,,,,,,,,,,,,practice,0,12,0,left,a,,,,,337.2429,338.3419,33.25993597,1.5,-2.5,1,0,0,1.0989,fixationPoint,338.3419,338.4417,338.4418,339.698,33.25993597,9502.838849,572.5460406,a,1,1.2331,,339.6981,339.8909,0,11,11,11,1,3,sparse,75,-25,-117,110,129,125,63,214,216,-164,32,-27,117,-126,125,171,-218,126,-113,167,-163,-21,-224,-212,-21,270,180,180,360,180,270,360,270,360,180,270,,,,,,,,,,,,,,,,,,,,,,,,,,,,,,,,,,,,,,,,,,,,,,,,,,,,,,,,,,,,,,,,,,,,,
,,24,11,${e://Field/PROLIFIC_PID,M,29,2023-11-04_01h56.37.881,MouseEye_CC,2023.2.2,Win32,60.07088364,1.187854856,,,1366,768,36.013999999999996,5.26,"437.7, 425.94, 449.63, 436.43, 469.58, 423.4, 440.41",892.33,6.286267083,33.06576486,27.83653633,Passed,110.7703123,,,,,,,,,,,,,,,,,,,,,,,,,,,,,,,,,,,,,,,,,,,,,,,,,,,,,,,,,,,,,,,,,,,,,,,,,,,,,,,,,,,,,,,,,,,,,,,,339.8917,347.3706,a,1,7.4518,,,,,,,,,,,,,,,,,,,,,,,,,,,,,,,,,,,,,,,,,,,,,,,,,,,,,,,,,,,,,,,,
,,24,11,${e://Field/PROLIFIC_PID,M,29,2023-11-04_01h56.37.881,MouseEye_CC,2023.2.2,Win32,60.07088364,1.187854856,,,1366,768,36.013999999999996,5.26,"437.7, 425.94, 449.63, 436.43, 469.58, 423.4, 440.41",892.33,6.286267083,33.06576486,27.83653633,Passed,110.7703123,,,,,,,,,,,,,,,,,,,,,,,,,,,,,,,,,,,,,,,,,,,,,,,,,,,,,,,,,,,,,,,,,,,,,,,,,,,,,,,,,,,,,,,,,,,,,,,,,,,,,,347.3708,351.0347,,,,,,,,,,,,,,,,,,,,,,,,,,,,,,,,,,,,,,,,,,,,,,,,,,,,,,,,,,,,,
,,24,11,${e://Field/PROLIFIC_PID,M,29,2023-11-04_01h56.37.881,MouseEye_CC,2023.2.2,Win32,60.07088364,1.187854856,,,1366,768,36.013999999999996,5.26,"437.7, 425.94, 449.63, 436.43, 469.58, 423.4, 440.41",892.33,6.286267083,33.06576486,27.83653633,Passed,110.7703123,,,,,,,,,,,,,,,,,,,,,,,,,,,,,,,,,,,,,,,,,,,,,,,,,,,,,,,,,,,,,,,,,,,,,,,,,,,,,,,,,,,,,,,,,,,,,,,,,,,,,,,,351.0348,370.2906,,,,,,,,,,,,,,,,,,,,,,,,,,,,,,,,,,,,,,,,,,,,,,,,,,,,,,,,,,,
,,24,11,${e://Field/PROLIFIC_PID,M,29,2023-11-04_01h56.37.881,MouseEye_CC,2023.2.2,Win32,60.07088364,1.187854856,,,1366,768,36.013999999999996,5.26,"437.7, 425.94, 449.63, 436.43, 469.58, 423.4, 440.41",892.33,6.286267083,33.06576486,27.83653633,Passed,110.7703123,,,,,,,,,,,,,,,,,,,,training,1,1,180,right,s,,,,,370.3764,371.306,33.25993597,1.5,-2.5,1,0,0,0.9296,fixationPoint,371.306,371.4059,371.4059,373.3549,33.25993597,9502.838849,572.5460406,s,1,1.9305,,373.355,373.5546,,,,,,,,93,-126,-209,24,113,125,164,169,68,-70,22,-172,16,-72,215,66,-120,160,-126,27,-216,-120,-117,-170,-212,90,90,360,360,90,180,90,360,360,360,90,,,,,,,,,,,373.555,373.557,,0,0,0,0,1,5,repeated,,,,,,,,,,,,,,,,,,,,,,,,,,,,,,,,,,,,,,,,,,,,,,,,,
,,24,11,${e://Field/PROLIFIC_PID,M,29,2023-11-04_01h56.37.881,MouseEye_CC,2023.2.2,Win32,60.07088364,1.187854856,,,1366,768,36.013999999999996,5.26,"437.7, 425.94, 449.63, 436.43, 469.58, 423.4, 440.41",892.33,6.286267083,33.06576486,27.83653633,Passed,110.7703123,,,,,,,,,,,,,,,,,,,,training,1,2,0,left,a,,,,,373.5575,374.7206,33.25993597,1.5,-2.5,1,0,0,1.1631,fixationPoint,374.7207,374.8206,374.8206,376.9527,33.25993597,9502.838849,572.5460406,a,1,2.1155,,376.9528,377.1525,,,,,,,,70,219,-72,220,122,125,32,125,164,-209,221,-169,117,-80,174,-19,-128,-219,-75,-170,-212,24,-65,29,-114,360,180,90,270,270,90,90,360,360,270,90,,,,,,,,,,,377.1525,377.1527,,0,1,1,1,1,8,repeated,,,,,,,,,,,,,,,,,,,,,,,,,,,,,,,,,,,,,,,,,,,,,,,,,
,,24,11,${e://Field/PROLIFIC_PID,M,29,2023-11-04_01h56.37.881,MouseEye_CC,2023.2.2,Win32,60.07088364,1.187854856,,,1366,768,36.013999999999996,5.26,"437.7, 425.94, 449.63, 436.43, 469.58, 423.4, 440.41",892.33,6.286267083,33.06576486,27.83653633,Passed,110.7703123,,,,,,,,,,,,,,,,,,,,training,1,3,0,left,a,,,,,377.153,378.4518,33.25993597,1.5,-2.5,1,0,0,1.2988,fixationPoint,378.4519,378.5515,378.5515,379.3513,33.25993597,9502.838849,572.5460406,a,1,0.7814,,379.3514,379.5512,,,,,,,,29,166,115,-64,123,-21,173,-163,214,-26,-76,-173,-66,-26,-218,24,-65,68,-211,116,-77,76,28,164,223,270,90,270,270,360,360,90,180,360,360,180,,,,,,,,,,,379.5512,379.5514,,0,2,2,2,1,14,novel,,,,,,,,,,,,,,,,,,,,,,,,,,,,,,,,,,,,,,,,,,,,,,,,,
,,24,11,${e://Field/PROLIFIC_PID,M,29,2023-11-04_01h56.37.881,MouseEye_CC,2023.2.2,Win32,60.07088364,1.187854856,,,1366,768,36.013999999999996,5.26,"437.7, 425.94, 449.63, 436.43, 469.58, 423.4, 440.41",892.33,6.286267083,33.06576486,27.83653633,Passed,110.7703123,,,,,,,,,,,,,,,,,,,,training,1,4,0,left,a,,,,,379.5518,380.5339,33.25993597,1.5,-2.5,1,0,0,0.9821,fixationPoint,380.534,380.6338,380.6338,382.0998,33.25993597,9502.838849,572.5460406,a,1,1.4502,,382.0998,382.2996,,,,,,,,87,75,-176,67,68,32,28,16,210,-209,221,-169,117,-30,210,-119,-172,-73,-112,-72,-215,18,-176,219,-72,90,90,180,180,180,270,180,270,360,90,180,,,,,,,,,,,382.2996,382.2998,,0,3,3,3,1,7,repeated,,,,,,,,,,,,,,,,,,,,,,,,,,,,,,,,,,,,,,,,,,,,,,,,,
,,24,11,${e://Field/PROLIFIC_PID,M,29,2023-11-04_01h56.37.881,MouseEye_CC,2023.2.2,Win32,60.07088364,1.187854856,,,1366,768,36.013999999999996,5.26,"437.7, 425.94, 449.63, 436.43, 469.58, 423.4, 440.41",892.33,6.286267083,33.06576486,27.83653633,Passed,110.7703123,,,,,,,,,,,,,,,,,,,,training,1,5,180,right,s,,,,,382.3002,383.2489,33.25993597,1.5,-2.5,1,0,0,0.9486,fixationPoint,383.249,383.3489,383.3489,384.7482,33.25993597,9502.838849,572.5460406,s,1,1.381,,384.7482,384.948,,,,,,,,72,-169,-126,222,223,165,171,28,68,-128,28,-72,215,-114,176,219,-72,27,-216,68,-211,-172,-25,-209,-208,180,180,180,360,90,180,360,180,180,360,270,,,,,,,,,,,384.948,384.9482,,0,4,4,4,1,6,repeated,,,,,,,,,,,,,,,,,,,,,,,,,,,,,,,,,,,,,,,,,,,,,,,,,
,,24,11,${e://Field/PROLIFIC_PID,M,29,2023-11-04_01h56.37.881,MouseEye_CC,2023.2.2,Win32,60.07088364,1.187854856,,,1366,768,36.013999999999996,5.26,"437.7, 425.94, 449.63, 436.43, 469.58, 423.4, 440.41",892.33,6.286267083,33.06576486,27.83653633,Passed,110.7703123,,,,,,,,,,,,,,,,,,,,training,1,6,180,right,s,,,,,384.9485,385.8975,33.25993597,1.5,-2.5,1,0,0,0.9488,fixationPoint,385.8975,385.9973,385.9974,388.546,33.25993597,9502.838849,572.5460406,s,1,2.5369,,388.546,388.7459,,,,,,,,88,122,-168,213,26,164,30,76,28,-208,125,-114,120,-114,176,-116,-68,-25,-27,-126,-25,66,-120,208,-118,180,270,180,360,180,90,180,90,90,90,270,,,,,,,,,,,388.746,388.7461,,0,5,5,5,1,11,novel,,,,,,,,,,,,,,,,,,,,,,,,,,,,,,,,,,,,,,,,,,,,,,,,,
,,24,11,${e://Field/PROLIFIC_PID,M,29,2023-11-04_01h56.37.881,MouseEye_CC,2023.2.2,Win32,60.07088364,1.187854856,,,1366,768,36.013999999999996,5.26,"437.7, 425.94, 449.63, 436.43, 469.58, 423.4, 440.41",892.33,6.286267083,33.06576486,27.83653633,Passed,110.7703123,,,,,,,,,,,,,,,,,,,,training,1,7,180,right,s,,,,,388.7464,389.7785,33.25993597,1.5,-2.5,1,0,0,1.032,fixationPoint,389.7785,389.8785,389.8785,390.7614,33.25993597,9502.838849,572.5460406,s,1,0.8705,,390.7615,390.9612,,,,,,,,76,29,-114,126,73,164,30,80,119,-219,20,-70,22,-164,165,-221,-24,-119,-172,-26,-218,172,-176,216,-223,90,180,180,180,180,90,360,270,360,270,270,,,,,,,,,,,390.9612,390.9614,,0,6,6,6,1,12,novel,,,,,,,,,,,,,,,,,,,,,,,,,,,,,,,,,,,,,,,,,,,,,,,,,
,,24,11,${e://Field/PROLIFIC_PID,M,29,2023-11-04_01h56.37.881,MouseEye_CC,2023.2.2,Win32,60.07088364,1.187854856,,,1366,768,36.013999999999996,5.26,"437.7, 425.94, 449.63, 436.43, 469.58, 423.4, 440.41",892.33,6.286267083,33.06576486,27.83653633,Passed,110.7703123,,,,,,,,,,,,,,,,,,,,training,1,8,180,right,s,,,,,390.9617,392.0605,33.25993597,1.5,-2.5,1,0,0,1.0988,fixationPoint,392.0606,392.1605,392.1605,392.8268,33.25993597,9502.838849,572.5460406,s,1,0.6542,,392.8269,393.0266,,,,,,,,25,-17,112,165,171,16,210,220,122,-73,-112,-170,-212,-120,-117,219,-72,118,-31,165,-212,-18,32,-209,221,90,270,90,180,360,270,90,90,180,90,270,,,,,,,,,,,393.0267,393.0268,,0,7,7,7,1,4,repeated,,,,,,,,,,,,,,,,,,,,,,,,,,,,,,,,,,,,,,,,,,,,,,,,,
,,24,11,${e://Field/PROLIFIC_PID,M,29,2023-11-04_01h56.37.881,MouseEye_CC,2023.2.2,Win32,60.07088364,1.187854856,,,1366,768,36.013999999999996,5.26,"437.7, 425.94, 449.63, 436.43, 469.58, 423.4, 440.41",892.33,6.286267083,33.06576486,27.83653633,Passed,110.7703123,,,,,,,,,,,,,,,,,,,,training,1,9,180,right,s,,,,,393.0272,394.2093,33.25993597,1.5,-2.5,1,0,0,1.182,fixationPoint,394.2094,394.3092,394.3092,395.0255,33.25993597,9502.838849,572.5460406,s,1,0.6983,,395.0256,395.2253,,,,,,,,28,121,112,-215,72,-128,28,-214,166,-68,-170,-26,-218,-120,-117,66,-120,29,-114,116,-77,164,223,218,161,180,360,360,360,180,360,360,360,360,90,90,,,,,,,,,,,395.2254,395.2255,,0,8,8,8,1,2,repeated,,,,,,,,,,,,,,,,,,,,,,,,,,,,,,,,,,,,,,,,,,,,,,,,,
,,24,11,${e://Field/PROLIFIC_PID,M,29,2023-11-04_01h56.37.881,MouseEye_CC,2023.2.2,Win32,60.07088364,1.187854856,,,1366,768,36.013999999999996,5.26,"437.7, 425.94, 449.63, 436.43, 469.58, 423.4, 440.41",892.33,6.286267083,33.06576486,27.83653633,Passed,110.7703123,,,,,,,,,,,,,,,,,,,,training,1,10,0,left,a,,,,,395.2258,395.9749,33.25993597,1.5,-2.5,1,0,0,0.7489,fixationPoint,395.9749,396.0749,396.075,399.1231,33.25993597,9502.838849,572.5460406,a,1,3.0299,,399.1232,399.3229,,,,,,,,31,-215,72,80,119,165,171,28,68,-170,-212,-126,-209,-120,-117,219,-72,172,-176,209,-24,-18,32,-127,72,180,180,180,360,180,90,270,270,180,90,90,,,,,,,,,,,399.3229,399.3231,,0,9,9,9,1,16,novel,,,,,,,,,,,,,,,,,,,,,,,,,,,,,,,,,,,,,,,,,,,,,,,,,
,,24,11,${e://Field/PROLIFIC_PID,M,29,2023-11-04_01h56.37.881,MouseEye_CC,2023.2.2,Win32,60.07088364,1.187854856,,,1366,768,36.013999999999996,5.26,"437.7, 425.94, 449.63, 436.43, 469.58, 423.4, 440.41",892.33,6.286267083,33.06576486,27.83653633,Passed,110.7703123,,,,,,,,,,,,,,,,,,,,training,1,11,0,left,a,,,,,399.3234,400.2057,33.25993597,1.5,-2.5,1,0,0,0.8821,fixationPoint,400.2057,400.3057,400.3057,401.1719,33.25993597,9502.838849,572.5460406,a,1,0.8477,,401.172,401.3717,,,,,,,,14,-80,174,212,67,64,169,220,122,-172,-25,-170,-212,-120,-117,24,-65,209,-24,75,-176,-164,165,-172,16,90,90,90,180,90,360,180,360,270,270,270,,,,,,,,,,,401.3718,401.372,,0,10,10,10,1,15,novel,,,,,,,,,,,,,,,,,,,,,,,,,,,,,,,,,,,,,,,,,,,,,,,,,
,,24,11,${e://Field/PROLIFIC_PID,M,29,2023-11-04_01h56.37.881,MouseEye_CC,2023.2.2,Win32,60.07088364,1.187854856,,,1366,768,36.013999999999996,5.26,"437.7, 425.94, 449.63, 436.43, 469.58, 423.4, 440.41",892.33,6.286267083,33.06576486,27.83653633,Passed,110.7703123,,,,,,,,,,,,,,,,,,,,training,1,12,0,left,a,,,,,401.3723,402.0881,33.25993597,1.5,-2.5,1,0,0,0.7156,fixationPoint,402.0881,402.1879,402.1879,404.2869,33.25993597,9502.838849,572.5460406,a,1,2.089,,404.2869,404.4866,,,,,,,,30,220,122,-215,72,-208,125,-72,215,-119,-172,-219,-75,-73,-112,24,-65,168,-76,208,-118,166,115,218,161,180,180,180,90,90,270,360,270,360,180,270,,,,,,,,,,,404.4867,404.4869,,0,11,11,11,1,1,repeated,,,,,,,,,,,,,,,,,,,,,,,,,,,,,,,,,,,,,,,,,,,,,,,,,
,,24,11,${e://Field/PROLIFIC_PID,M,29,2023-11-04_01h56.37.881,MouseEye_CC,2023.2.2,Win32,60.07088364,1.187854856,,,1366,768,36.013999999999996,5.26,"437.7, 425.94, 449.63, 436.43, 469.58, 423.4, 440.41",892.33,6.286267083,33.06576486,27.83653633,Passed,110.7703123,,,,,,,,,,,,,,,,,,,,training,1,13,180,right,s,,,,,404.4874,405.586,33.25993597,1.5,-2.5,1,0,0,1.0984,fixationPoint,405.5861,405.6859,405.6859,407.7682,33.25993597,9502.838849,572.5460406,s,1,2.0637,,407.7682,407.968,,,,,,,,13,-114,176,164,30,125,32,169,68,-116,-68,-219,-75,-72,-29,32,-28,211,-165,116,-128,-169,117,-128,28,270,270,270,90,90,90,270,180,270,270,180,,,,,,,,,,,407.968,407.9681,,0,12,12,12,1,3,repeated,,,,,,,,,,,,,,,,,,,,,,,,,,,,,,,,,,,,,,,,,,,,,,,,,
,,24,11,${e://Field/PROLIFIC_PID,M,29,2023-11-04_01h56.37.881,MouseEye_CC,2023.2.2,Win32,60.07088364,1.187854856,,,1366,768,36.013999999999996,5.26,"437.7, 425.94, 449.63, 436.43, 469.58, 423.4, 440.41",892.33,6.286267083,33.06576486,27.83653633,Passed,110.7703123,,,,,,,,,,,,,,,,,,,,training,1,14,0,left,a,,,,,407.9684,408.8841,33.25993597,1.5,-2.5,1,0,0,0.9156,fixationPoint,408.8841,408.984,408.9841,411.2827,33.25993597,9502.838849,572.5460406,a,1,2.2867,,411.2828,411.4826,,,,,,,,8,124,213,-64,123,-70,22,-128,28,-19,-128,-119,-172,-219,-75,163,-30,160,-126,172,-176,32,28,212,67,180,270,180,90,270,270,270,180,180,180,90,,,,,,,,,,,411.4826,411.4827,,0,13,13,13,1,13,novel,,,,,,,,,,,,,,,,,,,,,,,,,,,,,,,,,,,,,,,,,,,,,,,,,
,,24,11,${e://Field/PROLIFIC_PID,M,29,2023-11-04_01h56.37.881,MouseEye_CC,2023.2.2,Win32,60.07088364,1.187854856,,,1366,768,36.013999999999996,5.26,"437.7, 425.94, 449.63, 436.43, 469.58, 423.4, 440.41",892.33,6.286267083,33.06576486,27.83653633,Passed,110.7703123,,,,,,,,,,,,,,,,,,,,training,1,15,0,left,a,,,,,411.4832,412.382,33.25993597,1.5,-2.5,1,0,0,0.8986,fixationPoint,412.382,412.4819,412.4819,414.0646,33.25993597,9502.838849,572.5460406,a,1,1.5687,,414.0653,414.2642,,,,,,,,71,-214,-115,24,113,169,68,220,122,-64,123,-208,125,-172,16,71,-22,29,-114,112,-212,-170,-212,-116,-68,360,360,360,90,180,360,360,270,90,180,180,,,,,,,,,,,414.2643,414.2644,,0,14,14,14,1,9,novel,,,,,,,,,,,,,,,,,,,,,,,,,,,,,,,,,,,,,,,,,,,,,,,,,
,,24,11,${e://Field/PROLIFIC_PID,M,29,2023-11-04_01h56.37.881,MouseEye_CC,2023.2.2,Win32,60.07088364,1.187854856,,,1366,768,36.013999999999996,5.26,"437.7, 425.94, 449.63, 436.43, 469.58, 423.4, 440.41",892.33,6.286267083,33.06576486,27.83653633,Passed,110.7703123,,,,,,,,,,,,,,,,,,,,training,1,16,180,right,s,,,,,414.2648,415.1138,33.25993597,1.5,-2.5,1,0,0,0.8489,fixationPoint,415.1138,415.2137,415.2137,416.3798,33.25993597,9502.838849,572.5460406,s,1,1.1478,,416.38,416.5796,,,,,,,,73,-120,-117,222,223,121,112,164,30,-64,123,-164,165,-30,210,118,-31,116,-77,219,-72,-72,-29,-209,-208,180,180,90,90,360,360,360,180,360,360,360,,,,,,,,,,,416.5796,418.8118,space,0,15,15,15,1,10,novel,2.1912,,,,,,,,,,,,,,,,,,,,,,,,,,,,,,,,,,,,,,,,,,,,,,,,
,,24,11,${e://Field/PROLIFIC_PID,M,29,2023-11-04_01h56.37.881,MouseEye_CC,2023.2.2,Win32,60.07088364,1.187854856,,,1366,768,36.013999999999996,5.26,"437.7, 425.94, 449.63, 436.43, 469.58, 423.4, 440.41",892.33,6.286267083,33.06576486,27.83653633,Passed,110.7703123,,,,,,,,,,,,,,,,,,,,training,2,1,180,right,s,,,,,418.8121,419.9443,33.25993597,1.5,-2.5,1,0,0,1.1321,fixationPoint,419.9444,420.0443,420.0443,421.6434,33.25993597,9502.838849,572.5460406,s,1,1.5731,,421.6435,421.8432,,,,,,,,28,121,112,-215,72,-128,28,-214,166,-68,-170,-26,-218,-120,-117,66,-120,29,-114,116,-77,164,223,218,161,180,180,360,360,90,90,90,270,180,360,180,,,,,,,,,,,421.8433,421.8445,,0,16,16,16,1,2,repeated,,,,,,,,,,,,,,,,,,,,,,,,,,,,,,,,,,,,,,,,,,,,,,,,,
,,24,11,${e://Field/PROLIFIC_PID,M,29,2023-11-04_01h56.37.881,MouseEye_CC,2023.2.2,Win32,60.07088364,1.187854856,,,1366,768,36.013999999999996,5.26,"437.7, 425.94, 449.63, 436.43, 469.58, 423.4, 440.41",892.33,6.286267083,33.06576486,27.83653633,Passed,110.7703123,,,,,,,,,,,,,,,,,,,,training,2,2,180,right,s,,,,,421.845,422.826,33.25993597,1.5,-2.5,1,0,0,0.981,fixationPoint,422.8261,422.9321,422.9322,423.8766,33.25993597,9502.838849,572.5460406,s,1,0.9165,,423.8768,424.0753,,,,,,,,76,29,-114,212,67,125,32,169,68,-128,28,-72,215,-209,221,-65,-68,-126,-209,-170,-212,75,-176,65,-80,90,90,270,360,360,180,270,360,270,90,90,,,,,,,,,,,424.0754,424.0755,,0,17,17,17,1,12,novel,,,,,,,,,,,,,,,,,,,,,,,,,,,,,,,,,,,,,,,,,,,,,,,,,
,,24,11,${e://Field/PROLIFIC_PID,M,29,2023-11-04_01h56.37.881,MouseEye_CC,2023.2.2,Win32,60.07088364,1.187854856,,,1366,768,36.013999999999996,5.26,"437.7, 425.94, 449.63, 436.43, 469.58, 423.4, 440.41",892.33,6.286267083,33.06576486,27.83653633,Passed,110.7703123,,,,,,,,,,,,,,,,,,,,training,2,3,0,left,a,,,,,424.0759,425.0746,33.25993597,1.5,-2.5,1,0,0,0.9987,fixationPoint,425.0747,425.1747,425.1747,428.3794,33.25993597,9502.838849,572.5460406,a,1,3.1818,,428.3794,428.5726,,,,,,,,31,-215,72,80,119,76,28,165,171,-126,-209,-172,-25,-25,-27,68,-211,116,-128,216,-223,-64,123,-127,72,360,270,90,90,360,90,90,360,90,270,360,,,,,,,,,,,428.5727,428.5728,,0,18,18,18,1,16,novel,,,,,,,,,,,,,,,,,,,,,,,,,,,,,,,,,,,,,,,,,,,,,,,,,
,,24,11,${e://Field/PROLIFIC_PID,M,29,2023-11-04_01h56.37.881,MouseEye_CC,2023.2.2,Win32,60.07088364,1.187854856,,,1366,768,36.013999999999996,5.26,"437.7, 425.94, 449.63, 436.43, 469.58, 423.4, 440.41",892.33,6.286267083,33.06576486,27.83653633,Passed,110.7703123,,,,,,,,,,,,,,,,,,,,training,2,4,0,left,a,,,,,428.5732,429.3722,33.25993597,1.5,-2.5,1,0,0,0.7989,fixationPoint,429.3722,429.4721,429.4721,431.2544,33.25993597,9502.838849,572.5460406,a,1,1.7495,,431.2546,431.4542,,,,,,,,14,-80,174,125,164,166,115,67,68,-126,-25,-26,-218,-172,-25,24,-65,116,-77,118,-31,-18,32,-114,176,90,180,270,180,270,360,90,270,90,270,180,,,,,,,,,,,431.4543,431.4545,,0,19,19,19,1,15,novel,,,,,,,,,,,,,,,,,,,,,,,,,,,,,,,,,,,,,,,,,,,,,,,,,
,,24,11,${e://Field/PROLIFIC_PID,M,29,2023-11-04_01h56.37.881,MouseEye_CC,2023.2.2,Win32,60.07088364,1.187854856,,,1366,768,36.013999999999996,5.26,"437.7, 425.94, 449.63, 436.43, 469.58, 423.4, 440.41",892.33,6.286267083,33.06576486,27.83653633,Passed,110.7703123,,,,,,,,,,,,,,,,,,,,training,2,5,180,right,s,,,,,431.4548,432.2873,33.25993597,1.5,-2.5,1,0,0,0.8324,fixationPoint,432.2873,432.3871,432.3871,433.4366,33.25993597,9502.838849,572.5460406,s,1,1.0223,,433.4366,433.6364,,,,,,,,73,-120,-117,125,32,80,119,213,26,-172,16,-68,74,-72,215,65,-80,71,-22,75,-176,-173,-66,-119,-172,180,90,180,180,180,270,360,90,360,90,180,,,,,,,,,,,433.6364,433.6366,,0,20,20,20,1,10,novel,,,,,,,,,,,,,,,,,,,,,,,,,,,,,,,,,,,,,,,,,,,,,,,,,
,,24,11,${e://Field/PROLIFIC_PID,M,29,2023-11-04_01h56.37.881,MouseEye_CC,2023.2.2,Win32,60.07088364,1.187854856,,,1366,768,36.013999999999996,5.26,"437.7, 425.94, 449.63, 436.43, 469.58, 423.4, 440.41",892.33,6.286267083,33.06576486,27.83653633,Passed,110.7703123,,,,,,,,,,,,,,,,,,,,training,2,6,180,right,s,,,,,433.6369,434.5025,33.25993597,1.5,-2.5,1,0,0,0.8656,fixationPoint,434.5026,434.6025,434.6025,437.2677,33.25993597,9502.838849,572.5460406,s,1,2.6409,,437.2677,437.4675,,,,,,,,71,-214,-115,64,169,126,73,165,171,-72,215,-24,64,-127,220,216,-223,66,-120,24,-65,-72,-215,-173,-66,90,360,90,270,180,180,180,180,360,90,180,,,,,,,,,,,437.4675,437.4676,,0,21,21,21,1,9,novel,,,,,,,,,,,,,,,,,,,,,,,,,,,,,,,,,,,,,,,,,,,,,,,,,
,,24,11,${e://Field/PROLIFIC_PID,M,29,2023-11-04_01h56.37.881,MouseEye_CC,2023.2.2,Win32,60.07088364,1.187854856,,,1366,768,36.013999999999996,5.26,"437.7, 425.94, 449.63, 436.43, 469.58, 423.4, 440.41",892.33,6.286267083,33.06576486,27.83653633,Passed,110.7703123,,,,,,,,,,,,,,,,,,,,training,2,7,180,right,s,,,,,437.468,438.367,33.25993597,1.5,-2.5,1,0,0,0.8989,fixationPoint,438.367,438.4669,438.467,439.9327,33.25993597,9502.838849,572.5460406,s,1,1.4354,,439.9329,440.1325,,,,,,,,87,75,-176,67,68,32,28,16,210,-209,221,-169,117,-30,210,-119,-172,-73,-112,-72,-215,18,-176,219,-72,90,360,180,180,180,90,180,270,90,90,180,,,,,,,,,,,440.1326,440.1327,,0,22,22,22,1,7,repeated,,,,,,,,,,,,,,,,,,,,,,,,,,,,,,,,,,,,,,,,,,,,,,,,,
,,24,11,${e://Field/PROLIFIC_PID,M,29,2023-11-04_01h56.37.881,MouseEye_CC,2023.2.2,Win32,60.07088364,1.187854856,,,1366,768,36.013999999999996,5.26,"437.7, 425.94, 449.63, 436.43, 469.58, 423.4, 440.41",892.33,6.286267083,33.06576486,27.83653633,Passed,110.7703123,,,,,,,,,,,,,,,,,,,,training,2,8,0,left,a,,,,,440.1331,440.9987,33.25993597,1.5,-2.5,1,0,0,0.8656,fixationPoint,440.9988,441.0987,441.0988,443.4707,33.25993597,9502.838849,572.5460406,a,1,2.349,,443.4707,443.6639,,,,,,,,30,220,122,-215,72,-208,125,-72,215,-119,-172,-219,-75,-73,-112,24,-65,168,-76,208,-118,166,115,218,161,180,90,90,90,90,90,360,90,90,360,270,,,,,,,,,,,443.6639,443.664,,0,23,23,23,1,1,repeated,,,,,,,,,,,,,,,,,,,,,,,,,,,,,,,,,,,,,,,,,,,,,,,,,
,,24,11,${e://Field/PROLIFIC_PID,M,29,2023-11-04_01h56.37.881,MouseEye_CC,2023.2.2,Win32,60.07088364,1.187854856,,,1366,768,36.013999999999996,5.26,"437.7, 425.94, 449.63, 436.43, 469.58, 423.4, 440.41",892.33,6.286267083,33.06576486,27.83653633,Passed,110.7703123,,,,,,,,,,,,,,,,,,,,training,2,9,0,left,a,,,,,443.6644,444.5634,33.25993597,1.5,-2.5,1,0,0,0.8987,fixationPoint,444.5634,444.6632,444.6633,446.419,33.25993597,9502.838849,572.5460406,a,1,1.7329,,446.4191,446.6121,,,,,,,,8,124,213,-164,165,-215,72,-214,166,-26,-76,-173,-66,-214,-115,71,-22,75,-176,163,-30,16,210,75,217,90,270,270,90,360,270,180,90,270,360,180,,,,,,,,,,,446.6122,446.6123,,0,24,24,24,1,13,novel,,,,,,,,,,,,,,,,,,,,,,,,,,,,,,,,,,,,,,,,,,,,,,,,,
,,24,11,${e://Field/PROLIFIC_PID,M,29,2023-11-04_01h56.37.881,MouseEye_CC,2023.2.2,Win32,60.07088364,1.187854856,,,1366,768,36.013999999999996,5.26,"437.7, 425.94, 449.63, 436.43, 469.58, 423.4, 440.41",892.33,6.286267083,33.06576486,27.83653633,Passed,110.7703123,,,,,,,,,,,,,,,,,,,,training,2,10,0,left,a,,,,,446.6126,447.4949,33.25993597,1.5,-2.5,1,0,0,0.8821,fixationPoint,447.495,447.5949,447.5949,449.5105,33.25993597,9502.838849,572.5460406,a,1,1.8873,,449.5106,449.7103,,,,,,,,13,-114,176,164,30,125,32,169,68,-116,-68,-219,-75,-72,-29,32,-28,211,-165,116,-128,-169,117,-128,28,180,90,270,180,270,360,360,180,360,270,270,,,,,,,,,,,449.7103,449.7105,,0,25,25,25,1,3,repeated,,,,,,,,,,,,,,,,,,,,,,,,,,,,,,,,,,,,,,,,,,,,,,,,,
,,24,11,${e://Field/PROLIFIC_PID,M,29,2023-11-04_01h56.37.881,MouseEye_CC,2023.2.2,Win32,60.07088364,1.187854856,,,1366,768,36.013999999999996,5.26,"437.7, 425.94, 449.63, 436.43, 469.58, 423.4, 440.41",892.33,6.286267083,33.06576486,27.83653633,Passed,110.7703123,,,,,,,,,,,,,,,,,,,,training,2,11,0,left,a,,,,,449.7108,450.6931,33.25993597,1.5,-2.5,1,0,0,0.9822,fixationPoint,450.6931,450.793,450.7931,452.159,33.25993597,9502.838849,572.5460406,a,1,1.3331,,452.159,452.3589,,,,,,,,72,-169,-126,222,223,165,171,28,68,-128,28,-72,215,-114,176,219,-72,27,-216,68,-211,-172,-25,-209,-208,360,90,360,180,270,360,270,90,180,270,360,,,,,,,,,,,452.3596,452.3598,,0,26,26,26,1,6,repeated,,,,,,,,,,,,,,,,,,,,,,,,,,,,,,,,,,,,,,,,,,,,,,,,,
,,24,11,${e://Field/PROLIFIC_PID,M,29,2023-11-04_01h56.37.881,MouseEye_CC,2023.2.2,Win32,60.07088364,1.187854856,,,1366,768,36.013999999999996,5.26,"437.7, 425.94, 449.63, 436.43, 469.58, 423.4, 440.41",892.33,6.286267083,33.06576486,27.83653633,Passed,110.7703123,,,,,,,,,,,,,,,,,,,,training,2,12,0,left,a,,,,,452.3602,453.1083,33.25993597,1.5,-2.5,1,0,0,0.748,fixationPoint,453.1084,453.2083,453.2083,455.5904,33.25993597,9502.838849,572.5460406,a,1,2.3508,,455.5904,455.79,,,,,,,,70,219,-72,220,122,125,32,125,164,-209,221,-169,117,-80,174,-19,-128,-219,-75,-170,-212,24,-65,29,-114,180,360,180,90,360,180,360,360,270,270,90,,,,,,,,,,,455.7901,455.7903,,0,27,27,27,1,8,repeated,,,,,,,,,,,,,,,,,,,,,,,,,,,,,,,,,,,,,,,,,,,,,,,,,
,,24,11,${e://Field/PROLIFIC_PID,M,29,2023-11-04_01h56.37.881,MouseEye_CC,2023.2.2,Win32,60.07088364,1.187854856,,,1366,768,36.013999999999996,5.26,"437.7, 425.94, 449.63, 436.43, 469.58, 423.4, 440.41",892.33,6.286267083,33.06576486,27.83653633,Passed,110.7703123,,,,,,,,,,,,,,,,,,,,training,2,13,180,right,s,,,,,455.7905,456.8229,33.25993597,1.5,-2.5,1,0,0,1.0322,fixationPoint,456.8229,456.9228,456.9229,458.1556,33.25993597,9502.838849,572.5460406,s,1,1.2,,458.1556,458.3552,,,,,,,,88,122,-168,222,223,169,68,121,112,-214,166,-164,165,-127,72,-172,-25,-120,-117,-26,-218,68,-211,71,-22,360,360,360,360,90,360,90,360,360,360,360,,,,,,,,,,,458.3553,458.3554,,0,28,28,28,1,11,novel,,,,,,,,,,,,,,,,,,,,,,,,,,,,,,,,,,,,,,,,,,,,,,,,,
,,24,11,${e://Field/PROLIFIC_PID,M,29,2023-11-04_01h56.37.881,MouseEye_CC,2023.2.2,Win32,60.07088364,1.187854856,,,1366,768,36.013999999999996,5.26,"437.7, 425.94, 449.63, 436.43, 469.58, 423.4, 440.41",892.33,6.286267083,33.06576486,27.83653633,Passed,110.7703123,,,,,,,,,,,,,,,,,,,,training,2,14,0,left,a,,,,,458.3566,459.1215,33.25993597,1.5,-2.5,1,0,0,0.7647,fixationPoint,459.1216,459.2214,459.2215,461.5203,33.25993597,9502.838849,572.5460406,a,1,2.2658,,461.5203,461.72,,,,,,,,93,-126,-209,24,113,125,164,169,68,-70,22,-172,16,-72,215,66,-120,160,-126,27,-216,-120,-117,-170,-212,180,270,270,90,90,360,90,360,270,360,270,,,,,,,,,,,461.72,461.7201,,0,29,29,29,1,5,repeated,,,,,,,,,,,,,,,,,,,,,,,,,,,,,,,,,,,,,,,,,,,,,,,,,
,,24,11,${e://Field/PROLIFIC_PID,M,29,2023-11-04_01h56.37.881,MouseEye_CC,2023.2.2,Win32,60.07088364,1.187854856,,,1366,768,36.013999999999996,5.26,"437.7, 425.94, 449.63, 436.43, 469.58, 423.4, 440.41",892.33,6.286267083,33.06576486,27.83653633,Passed,110.7703123,,,,,,,,,,,,,,,,,,,,training,2,15,180,right,s,,,,,461.7205,462.7528,33.25993597,1.5,-2.5,1,0,0,1.0321,fixationPoint,462.7528,462.8526,462.8528,464.1853,33.25993597,9502.838849,572.5460406,s,1,1.3085,,464.1854,464.3852,,,,,,,,29,166,115,-127,72,-114,176,-219,20,-72,-215,-173,-66,-220,-168,116,-128,65,-80,71,-22,213,26,121,112,180,180,270,90,360,90,270,90,360,180,360,,,,,,,,,,,464.3852,464.3853,,0,30,30,30,1,14,novel,,,,,,,,,,,,,,,,,,,,,,,,,,,,,,,,,,,,,,,,,,,,,,,,,
,,24,11,${e://Field/PROLIFIC_PID,M,29,2023-11-04_01h56.37.881,MouseEye_CC,2023.2.2,Win32,60.07088364,1.187854856,,,1366,768,36.013999999999996,5.26,"437.7, 425.94, 449.63, 436.43, 469.58, 423.4, 440.41",892.33,6.286267083,33.06576486,27.83653633,Passed,110.7703123,,,,,,,,,,,,,,,,,,,,training,2,16,180,right,s,,,,,464.3857,465.2678,33.25993597,1.5,-2.5,1,0,0,0.8819,fixationPoint,465.2679,465.3679,465.3679,467.8165,33.25993597,9502.838849,572.5460406,s,1,2.4158,,467.8166,468.0164,,,,,,,,25,-17,112,165,171,16,210,220,122,-73,-112,-170,-212,-120,-117,219,-72,118,-31,165,-212,-18,32,-209,221,180,270,360,90,90,180,180,180,90,270,180,,,,,,,,,,,468.0165,472.2305,space,0,31,31,31,1,4,repeated,4.1737,,,,,,,,,,,,,,,,,,,,,,,,,,,,,,,,,,,,,,,,,,,,,,,,
,,24,11,${e://Field/PROLIFIC_PID,M,29,2023-11-04_01h56.37.881,MouseEye_CC,2023.2.2,Win32,60.07088364,1.187854856,,,1366,768,36.013999999999996,5.26,"437.7, 425.94, 449.63, 436.43, 469.58, 423.4, 440.41",892.33,6.286267083,33.06576486,27.83653633,Passed,110.7703123,,,,,,,,,,,,,,,,,,,,training,3,1,180,right,s,,,,,472.2382,473.4798,33.25993597,1.5,-2.5,1,0,0,1.2414,fixationPoint,473.4798,473.5798,473.5798,475.7618,33.25993597,9502.838849,572.5460406,s,1,2.1638,,475.7619,475.9617,,,,,,,,25,-17,112,165,171,16,210,220,122,-73,-112,-170,-212,-120,-117,219,-72,118,-31,165,-212,-18,32,-209,221,90,360,90,360,90,90,270,360,360,180,360,,,,,,,,,,,475.9617,475.9628,,0,32,32,32,1,4,repeated,,,,,,,,,,,,,,,,,,,,,,,,,,,,,,,,,,,,,,,,,,,,,,,,,
,,24,11,${e://Field/PROLIFIC_PID,M,29,2023-11-04_01h56.37.881,MouseEye_CC,2023.2.2,Win32,60.07088364,1.187854856,,,1366,768,36.013999999999996,5.26,"437.7, 425.94, 449.63, 436.43, 469.58, 423.4, 440.41",892.33,6.286267083,33.06576486,27.83653633,Passed,110.7703123,,,,,,,,,,,,,,,,,,,,training,3,2,0,left,a,,,,,475.9631,476.7612,33.25993597,1.5,-2.5,1,0,0,0.798,fixationPoint,476.7613,476.8611,476.8612,479.9262,33.25993597,9502.838849,572.5460406,a,1,3.0545,,479.9262,480.1259,,,,,,,,73,-120,-117,165,171,16,210,125,32,-127,72,-114,176,-24,64,160,-126,29,-114,27,-216,-221,-24,-172,-25,270,270,90,270,180,90,180,180,360,360,270,,,,,,,,,,,480.1259,480.1261,,0,33,33,33,1,10,novel,,,,,,,,,,,,,,,,,,,,,,,,,,,,,,,,,,,,,,,,,,,,,,,,,
,,24,11,${e://Field/PROLIFIC_PID,M,29,2023-11-04_01h56.37.881,MouseEye_CC,2023.2.2,Win32,60.07088364,1.187854856,,,1366,768,36.013999999999996,5.26,"437.7, 425.94, 449.63, 436.43, 469.58, 423.4, 440.41",892.33,6.286267083,33.06576486,27.83653633,Passed,110.7703123,,,,,,,,,,,,,,,,,,,,training,3,3,180,right,s,,,,,480.1265,480.9255,33.25993597,1.5,-2.5,1,0,0,0.799,fixationPoint,480.9256,481.0254,481.0254,482.1249,33.25993597,9502.838849,572.5460406,s,1,1.0882,,482.125,482.3247,,,,,,,,76,29,-114,213,26,124,213,24,113,-172,16,-164,165,-114,120,-65,-68,-126,-25,-126,-209,211,-165,27,-216,90,270,180,360,360,180,90,90,270,360,180,,,,,,,,,,,482.3247,482.3249,,0,34,34,34,1,12,novel,,,,,,,,,,,,,,,,,,,,,,,,,,,,,,,,,,,,,,,,,,,,,,,,,
,,24,11,${e://Field/PROLIFIC_PID,M,29,2023-11-04_01h56.37.881,MouseEye_CC,2023.2.2,Win32,60.07088364,1.187854856,,,1366,768,36.013999999999996,5.26,"437.7, 425.94, 449.63, 436.43, 469.58, 423.4, 440.41",892.33,6.286267083,33.06576486,27.83653633,Passed,110.7703123,,,,,,,,,,,,,,,,,,,,training,3,4,0,left,a,,,,,482.3253,483.2575,33.25993597,1.5,-2.5,1,0,0,0.9321,fixationPoint,483.2576,483.3573,483.3574,486.0893,33.25993597,9502.838849,572.5460406,a,1,2.7154,,486.0893,486.2891,,,,,,,,71,-214,-115,220,122,16,210,28,68,-18,32,-72,215,-127,220,18,-176,27,-216,66,-120,-26,-76,-220,-168,270,180,90,90,360,90,180,90,90,90,180,,,,,,,,,,,486.2891,486.2892,,0,35,35,35,1,9,novel,,,,,,,,,,,,,,,,,,,,,,,,,,,,,,,,,,,,,,,,,,,,,,,,,
,,24,11,${e://Field/PROLIFIC_PID,M,29,2023-11-04_01h56.37.881,MouseEye_CC,2023.2.2,Win32,60.07088364,1.187854856,,,1366,768,36.013999999999996,5.26,"437.7, 425.94, 449.63, 436.43, 469.58, 423.4, 440.41",892.33,6.286267083,33.06576486,27.83653633,Passed,110.7703123,,,,,,,,,,,,,,,,,,,,training,3,5,0,left,a,,,,,486.2896,487.4217,33.25993597,1.5,-2.5,1,0,0,1.132,fixationPoint,487.4217,487.5218,487.5219,490.0369,33.25993597,9502.838849,572.5460406,a,1,2.4968,,490.037,490.2367,,,,,,,,31,-215,72,125,32,121,112,220,122,-176,-175,-209,-208,-25,-27,32,-28,27,-216,208,-118,-17,112,-163,214,90,360,360,180,180,270,180,90,180,180,360,,,,,,,,,,,490.2368,490.2368,,0,36,36,36,1,16,novel,,,,,,,,,,,,,,,,,,,,,,,,,,,,,,,,,,,,,,,,,,,,,,,,,
,,24,11,${e://Field/PROLIFIC_PID,M,29,2023-11-04_01h56.37.881,MouseEye_CC,2023.2.2,Win32,60.07088364,1.187854856,,,1366,768,36.013999999999996,5.26,"437.7, 425.94, 449.63, 436.43, 469.58, 423.4, 440.41",892.33,6.286267083,33.06576486,27.83653633,Passed,110.7703123,,,,,,,,,,,,,,,,,,,,training,3,6,180,right,s,,,,,490.2372,491.3528,33.25993597,1.5,-2.5,1,0,0,1.1155,fixationPoint,491.3528,491.4527,491.4527,494.5343,33.25993597,9502.838849,572.5460406,s,1,3.0632,,494.5344,494.7341,,,,,,,,93,-126,-209,24,113,125,164,169,68,-70,22,-172,16,-72,215,66,-120,160,-126,27,-216,-120,-117,-170,-212,180,90,360,180,270,360,180,180,90,360,90,,,,,,,,,,,494.7341,494.7343,,0,37,37,37,1,5,repeated,,,,,,,,,,,,,,,,,,,,,,,,,,,,,,,,,,,,,,,,,,,,,,,,,
,,24,11,${e://Field/PROLIFIC_PID,M,29,2023-11-04_01h56.37.881,MouseEye_CC,2023.2.2,Win32,60.07088364,1.187854856,,,1366,768,36.013999999999996,5.26,"437.7, 425.94, 449.63, 436.43, 469.58, 423.4, 440.41",892.33,6.286267083,33.06576486,27.83653633,Passed,110.7703123,,,,,,,,,,,,,,,,,,,,training,3,7,180,right,s,,,,,494.7346,495.4671,33.25993597,1.5,-2.5,1,0,0,0.7324,fixationPoint,495.4671,495.5668,495.5669,496.7996,33.25993597,9502.838849,572.5460406,s,1,1.2145,,496.7996,496.9995,,,,,,,,8,124,213,-24,64,-169,117,-163,214,-209,-208,-169,-126,-116,-68,122,-168,118,-31,71,-22,169,68,80,119,180,180,270,270,270,270,360,360,360,270,90,,,,,,,,,,,496.9995,496.9997,,0,38,38,38,1,13,novel,,,,,,,,,,,,,,,,,,,,,,,,,,,,,,,,,,,,,,,,,,,,,,,,,
,,24,11,${e://Field/PROLIFIC_PID,M,29,2023-11-04_01h56.37.881,MouseEye_CC,2023.2.2,Win32,60.07088364,1.187854856,,,1366,768,36.013999999999996,5.26,"437.7, 425.94, 449.63, 436.43, 469.58, 423.4, 440.41",892.33,6.286267083,33.06576486,27.83653633,Passed,110.7703123,,,,,,,,,,,,,,,,,,,,training,3,8,180,right,s,,,,,497,497.7157,33.25993597,1.5,-2.5,1,0,0,0.7156,fixationPoint,497.7157,497.8157,497.8157,500.2476,33.25993597,9502.838849,572.5460406,s,1,2.4234,,500.2477,500.4474,,,,,,,,70,219,-72,220,122,125,32,125,164,-209,221,-169,117,-80,174,-19,-128,-219,-75,-170,-212,24,-65,29,-114,270,180,360,360,360,180,360,270,180,360,90,,,,,,,,,,,500.4474,500.4476,,0,39,39,39,1,8,repeated,,,,,,,,,,,,,,,,,,,,,,,,,,,,,,,,,,,,,,,,,,,,,,,,,
,,24,11,${e://Field/PROLIFIC_PID,M,29,2023-11-04_01h56.37.881,MouseEye_CC,2023.2.2,Win32,60.07088364,1.187854856,,,1366,768,36.013999999999996,5.26,"437.7, 425.94, 449.63, 436.43, 469.58, 423.4, 440.41",892.33,6.286267083,33.06576486,27.83653633,Passed,110.7703123,,,,,,,,,,,,,,,,,,,,training,3,9,180,right,s,,,,,500.4479,501.1638,33.25993597,1.5,-2.5,1,0,0,0.7156,fixationPoint,501.1638,501.2637,501.2637,502.3298,33.25993597,9502.838849,572.5460406,s,1,1.0527,,502.3298,502.5296,,,,,,,,30,220,122,-215,72,-208,125,-72,215,-119,-172,-219,-75,-73,-112,24,-65,168,-76,208,-118,166,115,218,161,270,270,180,90,270,180,90,360,90,180,90,,,,,,,,,,,502.5296,502.5297,,0,40,40,40,1,1,repeated,,,,,,,,,,,,,,,,,,,,,,,,,,,,,,,,,,,,,,,,,,,,,,,,,
,,24,11,${e://Field/PROLIFIC_PID,M,29,2023-11-04_01h56.37.881,MouseEye_CC,2023.2.2,Win32,60.07088364,1.187854856,,,1366,768,36.013999999999996,5.26,"437.7, 425.94, 449.63, 436.43, 469.58, 423.4, 440.41",892.33,6.286267083,33.06576486,27.83653633,Passed,110.7703123,,,,,,,,,,,,,,,,,,,,training,3,10,0,left,a,,,,,502.53,503.2625,33.25993597,1.5,-2.5,1,0,0,0.7323,fixationPoint,503.2626,503.3624,503.3624,505.8943,33.25993597,9502.838849,572.5460406,a,1,2.5159,,505.8943,506.0942,,,,,,,,28,121,112,-215,72,-128,28,-214,166,-68,-170,-26,-218,-120,-117,66,-120,29,-114,116,-77,164,223,218,161,90,180,270,360,90,270,90,90,270,90,90,,,,,,,,,,,506.0942,506.0943,,0,41,41,41,1,2,repeated,,,,,,,,,,,,,,,,,,,,,,,,,,,,,,,,,,,,,,,,,,,,,,,,,
,,24,11,${e://Field/PROLIFIC_PID,M,29,2023-11-04_01h56.37.881,MouseEye_CC,2023.2.2,Win32,60.07088364,1.187854856,,,1366,768,36.013999999999996,5.26,"437.7, 425.94, 449.63, 436.43, 469.58, 423.4, 440.41",892.33,6.286267083,33.06576486,27.83653633,Passed,110.7703123,,,,,,,,,,,,,,,,,,,,training,3,11,0,left,a,,,,,506.0947,506.827,33.25993597,1.5,-2.5,1,0,0,0.7323,fixationPoint,506.8271,506.927,506.927,509.5089,33.25993597,9502.838849,572.5460406,a,1,2.5647,,509.509,509.7088,,,,,,,,29,166,115,-64,123,-208,125,-163,214,-26,-76,-68,-170,-72,-215,18,-176,71,-22,209,-24,80,119,32,28,180,180,360,270,270,90,180,270,90,180,360,,,,,,,,,,,509.7088,509.7089,,0,42,42,42,1,14,novel,,,,,,,,,,,,,,,,,,,,,,,,,,,,,,,,,,,,,,,,,,,,,,,,,
,,24,11,${e://Field/PROLIFIC_PID,M,29,2023-11-04_01h56.37.881,MouseEye_CC,2023.2.2,Win32,60.07088364,1.187854856,,,1366,768,36.013999999999996,5.26,"437.7, 425.94, 449.63, 436.43, 469.58, 423.4, 440.41",892.33,6.286267083,33.06576486,27.83653633,Passed,110.7703123,,,,,,,,,,,,,,,,,,,,training,3,12,180,right,s,,,,,509.7093,510.8581,33.25993597,1.5,-2.5,1,0,0,1.1487,fixationPoint,510.8581,510.9578,510.9579,512.9569,33.25993597,9502.838849,572.5460406,s,1,1.9807,,512.957,513.1568,,,,,,,,14,-80,174,213,26,165,171,164,30,-23,-162,-173,-66,-219,-75,165,-212,216,-223,75,-176,-208,125,-127,220,270,270,90,360,360,180,360,360,90,90,360,,,,,,,,,,,513.1568,513.1569,,0,43,43,43,1,15,novel,,,,,,,,,,,,,,,,,,,,,,,,,,,,,,,,,,,,,,,,,,,,,,,,,
,,24,11,${e://Field/PROLIFIC_PID,M,29,2023-11-04_01h56.37.881,MouseEye_CC,2023.2.2,Win32,60.07088364,1.187854856,,,1366,768,36.013999999999996,5.26,"437.7, 425.94, 449.63, 436.43, 469.58, 423.4, 440.41",892.33,6.286267083,33.06576486,27.83653633,Passed,110.7703123,,,,,,,,,,,,,,,,,,,,training,3,13,180,right,s,,,,,513.1572,514.0562,33.25993597,1.5,-2.5,1,0,0,0.8989,fixationPoint,514.0563,514.1561,514.1561,516.9712,33.25993597,9502.838849,572.5460406,s,1,2.8046,,516.9713,517.1711,,,,,,,,88,122,-168,67,68,220,122,169,68,-80,174,-208,125,-172,16,-221,-24,-120,-117,-169,-126,209,-24,208,-118,360,360,360,90,180,270,90,270,360,180,360,,,,,,,,,,,517.1712,517.1713,,0,44,44,44,1,11,novel,,,,,,,,,,,,,,,,,,,,,,,,,,,,,,,,,,,,,,,,,,,,,,,,,
,,24,11,${e://Field/PROLIFIC_PID,M,29,2023-11-04_01h56.37.881,MouseEye_CC,2023.2.2,Win32,60.07088364,1.187854856,,,1366,768,36.013999999999996,5.26,"437.7, 425.94, 449.63, 436.43, 469.58, 423.4, 440.41",892.33,6.286267083,33.06576486,27.83653633,Passed,110.7703123,,,,,,,,,,,,,,,,,,,,training,3,14,0,left,a,,,,,517.1716,518.2705,33.25993597,1.5,-2.5,1,0,0,1.0987,fixationPoint,518.2705,518.3703,518.3704,520.0361,33.25993597,9502.838849,572.5460406,a,1,1.6476,,520.0361,520.2359,,,,,,,,87,75,-176,67,68,32,28,16,210,-209,221,-169,117,-30,210,-119,-172,-73,-112,-72,-215,18,-176,219,-72,90,270,270,180,180,360,270,360,180,360,90,,,,,,,,,,,520.2359,520.2361,,0,45,45,45,1,7,repeated,,,,,,,,,,,,,,,,,,,,,,,,,,,,,,,,,,,,,,,,,,,,,,,,,
,,24,11,${e://Field/PROLIFIC_PID,M,29,2023-11-04_01h56.37.881,MouseEye_CC,2023.2.2,Win32,60.07088364,1.187854856,,,1366,768,36.013999999999996,5.26,"437.7, 425.94, 449.63, 436.43, 469.58, 423.4, 440.41",892.33,6.286267083,33.06576486,27.83653633,Passed,110.7703123,,,,,,,,,,,,,,,,,,,,training,3,15,0,left,a,,,,,520.2365,521.1021,33.25993597,1.5,-2.5,1,0,0,0.8655,fixationPoint,521.1021,521.2019,521.202,523.4175,33.25993597,9502.838849,572.5460406,a,1,2.2036,,523.4175,523.6173,,,,,,,,13,-114,176,164,30,125,32,169,68,-116,-68,-219,-75,-72,-29,32,-28,211,-165,116,-128,-169,117,-128,28,360,270,270,360,360,270,270,90,360,270,90,,,,,,,,,,,523.6173,523.6175,,0,46,46,46,1,3,repeated,,,,,,,,,,,,,,,,,,,,,,,,,,,,,,,,,,,,,,,,,,,,,,,,,
,,24,11,${e://Field/PROLIFIC_PID,M,29,2023-11-04_01h56.37.881,MouseEye_CC,2023.2.2,Win32,60.07088364,1.187854856,,,1366,768,36.013999999999996,5.26,"437.7, 425.94, 449.63, 436.43, 469.58, 423.4, 440.41",892.33,6.286267083,33.06576486,27.83653633,Passed,110.7703123,,,,,,,,,,,,,,,,,,,,training,3,16,0,left,a,,,,,523.6179,524.6666,33.25993597,1.5,-2.5,1,0,0,1.0487,fixationPoint,524.6667,524.7666,524.7666,527.2153,33.25993597,9502.838849,572.5460406,a,1,2.4316,,527.2153,527.4152,,,,,,,,72,-169,-126,222,223,165,171,28,68,-128,28,-72,215,-114,176,219,-72,27,-216,68,-211,-172,-25,-209,-208,90,90,90,180,360,360,270,90,360,270,180,,,,,,,,,,,527.4152,529.2308,space,0,47,47,47,1,6,repeated,1.7856,,,,,,,,,,,,,,,,,,,,,,,,,,,,,,,,,,,,,,,,,,,,,,,,
,,24,11,${e://Field/PROLIFIC_PID,M,29,2023-11-04_01h56.37.881,MouseEye_CC,2023.2.2,Win32,60.07088364,1.187854856,,,1366,768,36.013999999999996,5.26,"437.7, 425.94, 449.63, 436.43, 469.58, 423.4, 440.41",892.33,6.286267083,33.06576486,27.83653633,Passed,110.7703123,,,,,,,,,,,,,,,,,,,,training,4,1,0,left,a,,,,,529.2313,530.2801,33.25993597,1.5,-2.5,1,0,0,1.0488,fixationPoint,530.2802,530.38,530.38,533.6949,33.25993597,9502.838849,572.5460406,a,1,3.2849,,533.6949,533.8947,,,,,,,,31,-215,72,121,112,220,122,164,30,-126,-25,-176,-175,-170,-212,208,-118,18,-176,160,-126,-128,28,-72,215,90,90,90,180,270,360,90,180,360,180,360,,,,,,,,,,,533.8947,533.8959,,0,48,48,48,1,16,novel,,,,,,,,,,,,,,,,,,,,,,,,,,,,,,,,,,,,,,,,,,,,,,,,,
,,24,11,${e://Field/PROLIFIC_PID,M,29,2023-11-04_01h56.37.881,MouseEye_CC,2023.2.2,Win32,60.07088364,1.187854856,,,1366,768,36.013999999999996,5.26,"437.7, 425.94, 449.63, 436.43, 469.58, 423.4, 440.41",892.33,6.286267083,33.06576486,27.83653633,Passed,110.7703123,,,,,,,,,,,,,,,,,,,,training,4,2,0,left,a,,,,,533.8962,534.8608,33.25993597,1.5,-2.5,1,0,0,0.9645,fixationPoint,534.8608,534.9607,534.9608,536.0102,33.25993597,9502.838849,572.5460406,a,1,1.0182,,536.0102,536.1993,,,,,,,,30,220,122,-215,72,-208,125,-72,215,-119,-172,-219,-75,-73,-112,24,-65,168,-76,208,-118,166,115,218,161,270,270,180,90,180,180,180,90,180,180,360,,,,,,,,,,,536.1994,536.1995,,0,49,49,49,1,1,repeated,,,,,,,,,,,,,,,,,,,,,,,,,,,,,,,,,,,,,,,,,,,,,,,,,
,,24,11,${e://Field/PROLIFIC_PID,M,29,2023-11-04_01h56.37.881,MouseEye_CC,2023.2.2,Win32,60.07088364,1.187854856,,,1366,768,36.013999999999996,5.26,"437.7, 425.94, 449.63, 436.43, 469.58, 423.4, 440.41",892.33,6.286267083,33.06576486,27.83653633,Passed,110.7703123,,,,,,,,,,,,,,,,,,,,training,4,3,180,right,s,,,,,536.1999,536.9096,33.25993597,1.5,-2.5,1,0,0,0.7097,fixationPoint,536.9097,537.0098,537.0098,539.4082,33.25993597,9502.838849,572.5460406,s,1,2.3716,,539.4083,539.608,,,,,,,,93,-126,-209,24,113,125,164,169,68,-70,22,-172,16,-72,215,66,-120,160,-126,27,-216,-120,-117,-170,-212,360,90,360,90,270,90,90,180,270,360,270,,,,,,,,,,,539.608,539.6082,,0,50,50,50,1,5,repeated,,,,,,,,,,,,,,,,,,,,,,,,,,,,,,,,,,,,,,,,,,,,,,,,,
,,24,11,${e://Field/PROLIFIC_PID,M,29,2023-11-04_01h56.37.881,MouseEye_CC,2023.2.2,Win32,60.07088364,1.187854856,,,1366,768,36.013999999999996,5.26,"437.7, 425.94, 449.63, 436.43, 469.58, 423.4, 440.41",892.33,6.286267083,33.06576486,27.83653633,Passed,110.7703123,,,,,,,,,,,,,,,,,,,,training,4,4,0,left,a,,,,,539.6086,540.4742,33.25993597,1.5,-2.5,1,0,0,0.8656,fixationPoint,540.4743,540.5742,540.5742,545.0383,33.25993597,9502.838849,572.5460406,a,1,4.4383,,545.0384,545.2381,,,,,,,,28,121,112,-215,72,-128,28,-214,166,-68,-170,-26,-218,-120,-117,66,-120,29,-114,116,-77,164,223,218,161,360,180,90,360,270,270,270,270,90,180,90,,,,,,,,,,,545.2381,545.2383,,0,51,51,51,1,2,repeated,,,,,,,,,,,,,,,,,,,,,,,,,,,,,,,,,,,,,,,,,,,,,,,,,
,,24,11,${e://Field/PROLIFIC_PID,M,29,2023-11-04_01h56.37.881,MouseEye_CC,2023.2.2,Win32,60.07088364,1.187854856,,,1366,768,36.013999999999996,5.26,"437.7, 425.94, 449.63, 436.43, 469.58, 423.4, 440.41",892.33,6.286267083,33.06576486,27.83653633,Passed,110.7703123,,,,,,,,,,,,,,,,,,,,training,4,5,180,right,s,,,,,545.2387,546.0876,33.25993597,1.5,-2.5,1,0,0,0.8489,fixationPoint,546.0877,546.1875,546.1875,548.0366,33.25993597,9502.838849,572.5460406,s,1,1.8245,,548.0366,548.2364,,,,,,,,8,124,213,-21,173,-114,120,-72,215,-73,-112,-173,-66,-169,-126,112,-212,216,-223,71,-22,126,73,75,217,90,360,270,360,270,90,270,360,180,270,90,,,,,,,,,,,548.2364,548.2366,,0,52,52,52,1,13,novel,,,,,,,,,,,,,,,,,,,,,,,,,,,,,,,,,,,,,,,,,,,,,,,,,
,,24,11,${e://Field/PROLIFIC_PID,M,29,2023-11-04_01h56.37.881,MouseEye_CC,2023.2.2,Win32,60.07088364,1.187854856,,,1366,768,36.013999999999996,5.26,"437.7, 425.94, 449.63, 436.43, 469.58, 423.4, 440.41",892.33,6.286267083,33.06576486,27.83653633,Passed,110.7703123,,,,,,,,,,,,,,,,,,,,training,4,6,180,right,s,,,,,548.2369,549.2192,33.25993597,1.5,-2.5,1,0,0,0.9822,fixationPoint,549.2193,549.319,549.3191,550.785,33.25993597,9502.838849,572.5460406,s,1,1.4387,,550.785,550.9848,,,,,,,,25,-17,112,165,171,16,210,220,122,-73,-112,-170,-212,-120,-117,219,-72,118,-31,165,-212,-18,32,-209,221,90,360,270,180,90,180,270,360,270,270,270,,,,,,,,,,,550.9848,550.9849,,0,53,53,53,1,4,repeated,,,,,,,,,,,,,,,,,,,,,,,,,,,,,,,,,,,,,,,,,,,,,,,,,
,,24,11,${e://Field/PROLIFIC_PID,M,29,2023-11-04_01h56.37.881,MouseEye_CC,2023.2.2,Win32,60.07088364,1.187854856,,,1366,768,36.013999999999996,5.26,"437.7, 425.94, 449.63, 436.43, 469.58, 423.4, 440.41",892.33,6.286267083,33.06576486,27.83653633,Passed,110.7703123,,,,,,,,,,,,,,,,,,,,training,4,7,0,left,a,,,,,550.9853,551.8676,33.25993597,1.5,-2.5,1,0,0,0.8821,fixationPoint,551.8676,551.9675,551.9676,556.7315,33.25993597,9502.838849,572.5460406,a,1,4.731,,556.7316,556.9313,,,,,,,,71,-214,-115,76,28,28,68,16,210,-127,72,-214,166,-128,28,211,-165,168,-76,18,-176,-25,-27,-126,-209,270,180,360,180,90,270,270,270,270,90,270,,,,,,,,,,,556.9313,556.9315,,0,54,54,54,1,9,novel,,,,,,,,,,,,,,,,,,,,,,,,,,,,,,,,,,,,,,,,,,,,,,,,,
,,24,11,${e://Field/PROLIFIC_PID,M,29,2023-11-04_01h56.37.881,MouseEye_CC,2023.2.2,Win32,60.07088364,1.187854856,,,1366,768,36.013999999999996,5.26,"437.7, 425.94, 449.63, 436.43, 469.58, 423.4, 440.41",892.33,6.286267083,33.06576486,27.83653633,Passed,110.7703123,,,,,,,,,,,,,,,,,,,,training,4,8,180,right,s,,,,,556.9319,557.6642,33.25993597,1.5,-2.5,1,0,0,0.7322,fixationPoint,557.6642,557.764,557.764,558.7636,33.25993597,9502.838849,572.5460406,s,1,0.9719,,558.7637,558.9634,,,,,,,,29,166,115,-163,214,-172,16,-80,174,-219,-75,-126,-209,-172,-25,172,-176,165,-212,219,-72,222,223,165,171,270,90,270,360,90,90,90,90,180,360,270,,,,,,,,,,,558.9635,558.9636,,0,55,55,55,1,14,novel,,,,,,,,,,,,,,,,,,,,,,,,,,,,,,,,,,,,,,,,,,,,,,,,,
,,24,11,${e://Field/PROLIFIC_PID,M,29,2023-11-04_01h56.37.881,MouseEye_CC,2023.2.2,Win32,60.07088364,1.187854856,,,1366,768,36.013999999999996,5.26,"437.7, 425.94, 449.63, 436.43, 469.58, 423.4, 440.41",892.33,6.286267083,33.06576486,27.83653633,Passed,110.7703123,,,,,,,,,,,,,,,,,,,,training,4,9,0,left,a,,,,,558.9639,559.8129,33.25993597,1.5,-2.5,1,0,0,0.8489,fixationPoint,559.813,559.9129,559.9129,560.9524,33.25993597,9502.838849,572.5460406,a,1,1.0164,,560.9525,561.1455,,,,,,,,87,75,-176,67,68,32,28,16,210,-209,221,-169,117,-30,210,-119,-172,-73,-112,-72,-215,18,-176,219,-72,270,180,90,90,90,180,270,360,270,180,360,,,,,,,,,,,561.1455,561.1457,,0,56,56,56,1,7,repeated,,,,,,,,,,,,,,,,,,,,,,,,,,,,,,,,,,,,,,,,,,,,,,,,,
,,24,11,${e://Field/PROLIFIC_PID,M,29,2023-11-04_01h56.37.881,MouseEye_CC,2023.2.2,Win32,60.07088364,1.187854856,,,1366,768,36.013999999999996,5.26,"437.7, 425.94, 449.63, 436.43, 469.58, 423.4, 440.41",892.33,6.286267083,33.06576486,27.83653633,Passed,110.7703123,,,,,,,,,,,,,,,,,,,,training,4,10,0,left,a,,,,,561.146,562.1282,33.25993597,1.5,-2.5,1,0,0,0.9821,fixationPoint,562.1283,562.2282,562.2283,564.0108,33.25993597,9502.838849,572.5460406,a,1,1.7595,,564.0108,564.2103,,,,,,,,14,-80,174,76,28,220,122,64,169,-72,-29,-120,-117,-170,-212,116,-77,71,-22,208,-118,-214,166,-68,74,270,90,180,90,180,90,90,270,360,360,180,,,,,,,,,,,564.2103,564.2105,,0,57,57,57,1,15,novel,,,,,,,,,,,,,,,,,,,,,,,,,,,,,,,,,,,,,,,,,,,,,,,,,
,,24,11,${e://Field/PROLIFIC_PID,M,29,2023-11-04_01h56.37.881,MouseEye_CC,2023.2.2,Win32,60.07088364,1.187854856,,,1366,768,36.013999999999996,5.26,"437.7, 425.94, 449.63, 436.43, 469.58, 423.4, 440.41",892.33,6.286267083,33.06576486,27.83653633,Passed,110.7703123,,,,,,,,,,,,,,,,,,,,training,4,11,0,left,a,,,,,564.2109,565.2768,33.25993597,1.5,-2.5,1,0,0,1.0659,fixationPoint,565.2768,565.3764,565.3765,566.6924,33.25993597,9502.838849,572.5460406,a,1,1.283,,566.6924,566.892,,,,,,,,88,122,-168,222,223,16,210,16,164,-64,123,-164,165,-169,117,-119,-172,-25,-27,-209,-208,163,-30,68,-211,360,270,270,360,360,270,270,270,270,270,180,,,,,,,,,,,566.8921,566.8922,,0,58,58,58,1,11,novel,,,,,,,,,,,,,,,,,,,,,,,,,,,,,,,,,,,,,,,,,,,,,,,,,
,,24,11,${e://Field/PROLIFIC_PID,M,29,2023-11-04_01h56.37.881,MouseEye_CC,2023.2.2,Win32,60.07088364,1.187854856,,,1366,768,36.013999999999996,5.26,"437.7, 425.94, 449.63, 436.43, 469.58, 423.4, 440.41",892.33,6.286267083,33.06576486,27.83653633,Passed,110.7703123,,,,,,,,,,,,,,,,,,,,training,4,12,180,right,s,,,,,566.8927,567.6918,33.25993597,1.5,-2.5,1,0,0,0.799,fixationPoint,567.6918,567.7917,567.7918,569.2907,33.25993597,9502.838849,572.5460406,s,1,1.4662,,569.2908,569.4907,,,,,,,,73,-120,-117,165,171,80,119,218,161,-68,74,-21,173,-128,28,71,-22,116,-128,66,-120,-221,-24,-116,-68,270,90,90,180,270,360,360,180,270,90,360,,,,,,,,,,,569.4907,569.4908,,0,59,59,59,1,10,novel,,,,,,,,,,,,,,,,,,,,,,,,,,,,,,,,,,,,,,,,,,,,,,,,,
,,24,11,${e://Field/PROLIFIC_PID,M,29,2023-11-04_01h56.37.881,MouseEye_CC,2023.2.2,Win32,60.07088364,1.187854856,,,1366,768,36.013999999999996,5.26,"437.7, 425.94, 449.63, 436.43, 469.58, 423.4, 440.41",892.33,6.286267083,33.06576486,27.83653633,Passed,110.7703123,,,,,,,,,,,,,,,,,,,,training,4,13,0,left,a,,,,,569.4912,570.3901,33.25993597,1.5,-2.5,1,0,0,0.8987,fixationPoint,570.3902,570.49,570.4901,571.4396,33.25993597,9502.838849,572.5460406,a,1,0.9168,,571.4396,571.6394,,,,,,,,72,-169,-126,222,223,165,171,28,68,-128,28,-72,215,-114,176,219,-72,27,-216,68,-211,-172,-25,-209,-208,90,270,90,360,90,90,360,270,360,90,180,,,,,,,,,,,571.6395,571.6396,,0,60,60,60,1,6,repeated,,,,,,,,,,,,,,,,,,,,,,,,,,,,,,,,,,,,,,,,,,,,,,,,,
,,24,11,${e://Field/PROLIFIC_PID,M,29,2023-11-04_01h56.37.881,MouseEye_CC,2023.2.2,Win32,60.07088364,1.187854856,,,1366,768,36.013999999999996,5.26,"437.7, 425.94, 449.63, 436.43, 469.58, 423.4, 440.41",892.33,6.286267083,33.06576486,27.83653633,Passed,110.7703123,,,,,,,,,,,,,,,,,,,,training,4,14,180,right,s,,,,,571.64,572.5221,33.25993597,1.5,-2.5,1,0,0,0.882,fixationPoint,572.5221,572.6222,572.6222,573.605,33.25993597,9502.838849,572.5460406,s,1,0.9566,,573.6051,573.8048,,,,,,,,76,29,-114,16,164,166,115,126,73,-114,120,-164,165,-128,28,-126,-25,-73,-112,-172,-25,65,-80,66,-120,360,90,180,180,180,180,90,360,270,90,360,,,,,,,,,,,573.8049,573.805,,0,61,61,61,1,12,novel,,,,,,,,,,,,,,,,,,,,,,,,,,,,,,,,,,,,,,,,,,,,,,,,,
,,24,11,${e://Field/PROLIFIC_PID,M,29,2023-11-04_01h56.37.881,MouseEye_CC,2023.2.2,Win32,60.07088364,1.187854856,,,1366,768,36.013999999999996,5.26,"437.7, 425.94, 449.63, 436.43, 469.58, 423.4, 440.41",892.33,6.286267083,33.06576486,27.83653633,Passed,110.7703123,,,,,,,,,,,,,,,,,,,,training,4,15,180,right,s,,,,,573.8053,574.6211,33.25993597,1.5,-2.5,1,0,0,0.8156,fixationPoint,574.6211,574.7209,574.7211,576.9197,33.25993597,9502.838849,572.5460406,s,1,2.1707,,576.9199,577.1195,,,,,,,,13,-114,176,164,30,125,32,169,68,-116,-68,-219,-75,-72,-29,32,-28,211,-165,116,-128,-169,117,-128,28,270,180,180,180,270,90,180,270,90,360,90,,,,,,,,,,,577.1196,577.1197,,0,62,62,62,1,3,repeated,,,,,,,,,,,,,,,,,,,,,,,,,,,,,,,,,,,,,,,,,,,,,,,,,
,,24,11,${e://Field/PROLIFIC_PID,M,29,2023-11-04_01h56.37.881,MouseEye_CC,2023.2.2,Win32,60.07088364,1.187854856,,,1366,768,36.013999999999996,5.26,"437.7, 425.94, 449.63, 436.43, 469.58, 423.4, 440.41",892.33,6.286267083,33.06576486,27.83653633,Passed,110.7703123,,,,,,,,,,,,,,,,,,,,training,4,16,180,right,s,,,,,577.1202,578.0023,33.25993597,1.5,-2.5,1,0,0,0.882,fixationPoint,578.0023,578.0917,578.0918,580.8008,33.25993597,9502.838849,572.5460406,s,1,2.6839,,580.8008,581.0006,,,,,,,,70,219,-72,220,122,125,32,125,164,-209,221,-169,117,-80,174,-19,-128,-219,-75,-170,-212,24,-65,29,-114,270,90,180,90,270,270,90,90,180,360,180,,,,,,,,,,,581.0007,583.0827,space,0,63,63,63,1,8,repeated,2.0371,,,,,,,,,,,,,,,,,,,,,,,,,,,,,,,,,,,,,,,,,,,,,,,,
,,24,11,${e://Field/PROLIFIC_PID,M,29,2023-11-04_01h56.37.881,MouseEye_CC,2023.2.2,Win32,60.07088364,1.187854856,,,1366,768,36.013999999999996,5.26,"437.7, 425.94, 449.63, 436.43, 469.58, 423.4, 440.41",892.33,6.286267083,33.06576486,27.83653633,Passed,110.7703123,,,,,,,,,,,,,,,,,,,,training,5,1,180,right,s,,,,,583.0831,584.182,33.25993597,1.5,-2.5,1,0,0,1.0988,fixationPoint,584.182,584.282,584.282,585.4315,33.25993597,9502.838849,572.5460406,s,1,1.1314,,585.4315,585.6312,,,,,,,,30,220,122,-215,72,-208,125,-72,215,-119,-172,-219,-75,-73,-112,24,-65,168,-76,208,-118,166,115,218,161,360,360,90,180,270,90,90,90,90,270,90,,,,,,,,,,,585.6313,585.6323,,0,64,64,64,1,1,repeated,,,,,,,,,,,,,,,,,,,,,,,,,,,,,,,,,,,,,,,,,,,,,,,,,
,,24,11,${e://Field/PROLIFIC_PID,M,29,2023-11-04_01h56.37.881,MouseEye_CC,2023.2.2,Win32,60.07088364,1.187854856,,,1366,768,36.013999999999996,5.26,"437.7, 425.94, 449.63, 436.43, 469.58, 423.4, 440.41",892.33,6.286267083,33.06576486,27.83653633,Passed,110.7703123,,,,,,,,,,,,,,,,,,,,training,5,2,180,right,s,,,,,585.6326,586.6806,33.25993597,1.5,-2.5,1,0,0,1.048,fixationPoint,586.6806,586.7805,586.7806,587.5802,33.25993597,9502.838849,572.5460406,s,1,0.7816,,587.5803,587.78,,,,,,,,29,166,115,-21,173,-70,22,-68,74,-126,-209,-68,-170,-65,-68,65,-80,216,-223,116,-128,222,223,28,68,90,180,90,270,180,270,180,180,180,360,270,,,,,,,,,,,587.7801,587.7801,,0,65,65,65,1,14,novel,,,,,,,,,,,,,,,,,,,,,,,,,,,,,,,,,,,,,,,,,,,,,,,,,
,,24,11,${e://Field/PROLIFIC_PID,M,29,2023-11-04_01h56.37.881,MouseEye_CC,2023.2.2,Win32,60.07088364,1.187854856,,,1366,768,36.013999999999996,5.26,"437.7, 425.94, 449.63, 436.43, 469.58, 423.4, 440.41",892.33,6.286267083,33.06576486,27.83653633,Passed,110.7703123,,,,,,,,,,,,,,,,,,,,training,5,3,180,right,s,,,,,587.7805,589.1959,33.25993597,1.5,-2.5,1,0,0,1.4152,fixationPoint,589.1959,589.2958,589.2958,592.1941,33.25993597,9502.838849,572.5460406,s,1,2.88,,592.1942,592.3939,,,,,,,,31,-215,72,220,122,213,26,165,171,-65,-68,-72,-215,-176,-175,172,-176,65,-80,209,-24,-30,210,-209,221,180,90,90,180,360,270,180,180,90,360,270,,,,,,,,,,,592.394,592.3941,,0,66,66,66,1,16,novel,,,,,,,,,,,,,,,,,,,,,,,,,,,,,,,,,,,,,,,,,,,,,,,,,
,,24,11,${e://Field/PROLIFIC_PID,M,29,2023-11-04_01h56.37.881,MouseEye_CC,2023.2.2,Win32,60.07088364,1.187854856,,,1366,768,36.013999999999996,5.26,"437.7, 425.94, 449.63, 436.43, 469.58, 423.4, 440.41",892.33,6.286267083,33.06576486,27.83653633,Passed,110.7703123,,,,,,,,,,,,,,,,,,,,training,5,4,180,right,s,,,,,592.3945,593.2102,33.25993597,1.5,-2.5,1,0,0,0.8156,fixationPoint,593.2102,593.31,593.31,594.1763,33.25993597,9502.838849,572.5460406,s,1,0.854,,594.1764,594.3761,,,,,,,,28,121,112,-215,72,-128,28,-214,166,-68,-170,-26,-218,-120,-117,66,-120,29,-114,116,-77,164,223,218,161,270,90,90,180,90,180,180,90,360,270,270,,,,,,,,,,,594.3761,594.3763,,0,67,67,67,1,2,repeated,,,,,,,,,,,,,,,,,,,,,,,,,,,,,,,,,,,,,,,,,,,,,,,,,
,,24,11,${e://Field/PROLIFIC_PID,M,29,2023-11-04_01h56.37.881,MouseEye_CC,2023.2.2,Win32,60.07088364,1.187854856,,,1366,768,36.013999999999996,5.26,"437.7, 425.94, 449.63, 436.43, 469.58, 423.4, 440.41",892.33,6.286267083,33.06576486,27.83653633,Passed,110.7703123,,,,,,,,,,,,,,,,,,,,training,5,5,180,right,s,,,,,594.3766,595.5254,33.25993597,1.5,-2.5,1,0,0,1.1488,fixationPoint,595.5255,595.6254,595.6254,598.607,33.25993597,9502.838849,572.5460406,s,1,2.965,,598.607,598.8069,,,,,,,,8,124,213,-64,123,-127,72,-70,22,-176,-175,-170,-212,-172,-25,68,-211,27,-216,65,-80,164,223,28,68,90,180,360,180,180,360,90,180,270,270,360,,,,,,,,,,,598.8069,598.8071,,0,68,68,68,1,13,novel,,,,,,,,,,,,,,,,,,,,,,,,,,,,,,,,,,,,,,,,,,,,,,,,,
,,24,11,${e://Field/PROLIFIC_PID,M,29,2023-11-04_01h56.37.881,MouseEye_CC,2023.2.2,Win32,60.07088364,1.187854856,,,1366,768,36.013999999999996,5.26,"437.7, 425.94, 449.63, 436.43, 469.58, 423.4, 440.41",892.33,6.286267083,33.06576486,27.83653633,Passed,110.7703123,,,,,,,,,,,,,,,,,,,,training,5,6,0,left,a,,,,,598.8074,599.5397,33.25993597,1.5,-2.5,1,0,0,0.7321,fixationPoint,599.5397,599.6397,599.6398,600.8725,33.25993597,9502.838849,572.5460406,a,1,1.2236,,600.8725,601.0722,,,,,,,,25,-17,112,165,171,16,210,220,122,-73,-112,-170,-212,-120,-117,219,-72,118,-31,165,-212,-18,32,-209,221,180,270,180,90,270,180,270,90,90,180,180,,,,,,,,,,,601.0723,601.0724,,0,69,69,69,1,4,repeated,,,,,,,,,,,,,,,,,,,,,,,,,,,,,,,,,,,,,,,,,,,,,,,,,
,,24,11,${e://Field/PROLIFIC_PID,M,29,2023-11-04_01h56.37.881,MouseEye_CC,2023.2.2,Win32,60.07088364,1.187854856,,,1366,768,36.013999999999996,5.26,"437.7, 425.94, 449.63, 436.43, 469.58, 423.4, 440.41",892.33,6.286267083,33.06576486,27.83653633,Passed,110.7703123,,,,,,,,,,,,,,,,,,,,training,5,7,0,left,a,,,,,601.0728,601.8383,33.25993597,1.5,-2.5,1,0,0,0.7654,fixationPoint,601.8384,601.9383,601.9384,603.0711,33.25993597,9502.838849,572.5460406,a,1,1.1143,,603.0712,603.271,,,,,,,,13,-114,176,164,30,125,32,169,68,-116,-68,-219,-75,-72,-29,32,-28,211,-165,116,-128,-169,117,-128,28,180,180,180,270,270,360,360,360,270,360,180,,,,,,,,,,,603.2711,603.2712,,0,70,70,70,1,3,repeated,,,,,,,,,,,,,,,,,,,,,,,,,,,,,,,,,,,,,,,,,,,,,,,,,
,,24,11,${e://Field/PROLIFIC_PID,M,29,2023-11-04_01h56.37.881,MouseEye_CC,2023.2.2,Win32,60.07088364,1.187854856,,,1366,768,36.013999999999996,5.26,"437.7, 425.94, 449.63, 436.43, 469.58, 423.4, 440.41",892.33,6.286267083,33.06576486,27.83653633,Passed,110.7703123,,,,,,,,,,,,,,,,,,,,training,5,8,0,left,a,,,,,603.2716,604.1872,33.25993597,1.5,-2.5,1,0,0,0.9155,fixationPoint,604.1872,604.287,604.287,605.8862,33.25993597,9502.838849,572.5460406,a,1,1.5813,,605.8862,606.0859,,,,,,,,88,122,-168,164,30,212,67,121,112,-169,117,-208,125,-114,176,-72,-29,-73,-112,-219,-75,208,-118,112,-212,90,90,270,180,90,90,270,180,360,90,90,,,,,,,,,,,606.086,606.0862,,0,71,71,71,1,11,novel,,,,,,,,,,,,,,,,,,,,,,,,,,,,,,,,,,,,,,,,,,,,,,,,,
,,24,11,${e://Field/PROLIFIC_PID,M,29,2023-11-04_01h56.37.881,MouseEye_CC,2023.2.2,Win32,60.07088364,1.187854856,,,1366,768,36.013999999999996,5.26,"437.7, 425.94, 449.63, 436.43, 469.58, 423.4, 440.41",892.33,6.286267083,33.06576486,27.83653633,Passed,110.7703123,,,,,,,,,,,,,,,,,,,,training,5,9,0,left,a,,,,,606.0865,606.8689,33.25993597,1.5,-2.5,1,0,0,0.7823,fixationPoint,606.8689,606.9688,606.9688,609.3175,33.25993597,9502.838849,572.5460406,a,1,2.3325,,609.3176,609.5173,,,,,,,,73,-120,-117,16,164,67,68,28,68,-172,67,-70,22,-208,125,29,-114,160,-126,116,-77,-220,-168,-23,-162,270,90,90,180,90,270,270,180,270,90,360,,,,,,,,,,,609.5173,609.5175,,0,72,72,72,1,10,novel,,,,,,,,,,,,,,,,,,,,,,,,,,,,,,,,,,,,,,,,,,,,,,,,,
,,24,11,${e://Field/PROLIFIC_PID,M,29,2023-11-04_01h56.37.881,MouseEye_CC,2023.2.2,Win32,60.07088364,1.187854856,,,1366,768,36.013999999999996,5.26,"437.7, 425.94, 449.63, 436.43, 469.58, 423.4, 440.41",892.33,6.286267083,33.06576486,27.83653633,Passed,110.7703123,,,,,,,,,,,,,,,,,,,,training,5,10,180,right,s,,,,,609.5179,610.2668,33.25993597,1.5,-2.5,1,0,0,0.7489,fixationPoint,610.267,610.3668,610.3669,612.3324,33.25993597,9502.838849,572.5460406,s,1,1.9536,,612.3324,612.5322,,,,,,,,76,29,-114,213,26,76,28,166,115,-164,165,-214,166,-70,22,-214,-115,-25,-27,-72,-215,122,-168,163,-30,180,270,180,180,360,270,180,90,360,270,360,,,,,,,,,,,612.5322,612.5324,,0,73,73,73,1,12,novel,,,,,,,,,,,,,,,,,,,,,,,,,,,,,,,,,,,,,,,,,,,,,,,,,
,,24,11,${e://Field/PROLIFIC_PID,M,29,2023-11-04_01h56.37.881,MouseEye_CC,2023.2.2,Win32,60.07088364,1.187854856,,,1366,768,36.013999999999996,5.26,"437.7, 425.94, 449.63, 436.43, 469.58, 423.4, 440.41",892.33,6.286267083,33.06576486,27.83653633,Passed,110.7703123,,,,,,,,,,,,,,,,,,,,training,5,11,180,right,s,,,,,612.5328,613.3318,33.25993597,1.5,-2.5,1,0,0,0.799,fixationPoint,613.3319,613.4317,613.4318,615.3973,33.25993597,9502.838849,572.5460406,s,1,1.9572,,615.3973,615.5971,,,,,,,,14,-80,174,16,210,67,68,169,68,-209,-208,-214,-115,-220,-168,112,-212,29,-114,116,-128,-172,67,-68,74,360,360,180,180,90,90,360,180,270,360,90,,,,,,,,,,,615.5972,615.5973,,0,74,74,74,1,15,novel,,,,,,,,,,,,,,,,,,,,,,,,,,,,,,,,,,,,,,,,,,,,,,,,,
,,24,11,${e://Field/PROLIFIC_PID,M,29,2023-11-04_01h56.37.881,MouseEye_CC,2023.2.2,Win32,60.07088364,1.187854856,,,1366,768,36.013999999999996,5.26,"437.7, 425.94, 449.63, 436.43, 469.58, 423.4, 440.41",892.33,6.286267083,33.06576486,27.83653633,Passed,110.7703123,,,,,,,,,,,,,,,,,,,,training,5,12,0,left,a,,,,,615.5977,616.5133,33.25993597,1.5,-2.5,1,0,0,0.9155,fixationPoint,616.5134,616.6131,616.6132,617.6126,33.25993597,9502.838849,572.5460406,a,1,0.9848,,617.6127,617.8125,,,,,,,,87,75,-176,67,68,32,28,16,210,-209,221,-169,117,-30,210,-119,-172,-73,-112,-72,-215,18,-176,219,-72,90,270,90,180,360,270,90,180,90,270,360,,,,,,,,,,,617.8125,617.8127,,0,75,75,75,1,7,repeated,,,,,,,,,,,,,,,,,,,,,,,,,,,,,,,,,,,,,,,,,,,,,,,,,
,,24,11,${e://Field/PROLIFIC_PID,M,29,2023-11-04_01h56.37.881,MouseEye_CC,2023.2.2,Win32,60.07088364,1.187854856,,,1366,768,36.013999999999996,5.26,"437.7, 425.94, 449.63, 436.43, 469.58, 423.4, 440.41",892.33,6.286267083,33.06576486,27.83653633,Passed,110.7703123,,,,,,,,,,,,,,,,,,,,training,5,13,0,left,a,,,,,617.813,618.712,33.25993597,1.5,-2.5,1,0,0,0.899,fixationPoint,618.7121,618.8118,618.8118,620.1445,33.25993597,9502.838849,572.5460406,a,1,1.3144,,620.1445,620.3443,,,,,,,,72,-169,-126,222,223,165,171,28,68,-128,28,-72,215,-114,176,219,-72,27,-216,68,-211,-172,-25,-209,-208,360,90,270,270,180,270,90,270,90,270,180,,,,,,,,,,,620.3443,620.3445,,0,76,76,76,1,6,repeated,,,,,,,,,,,,,,,,,,,,,,,,,,,,,,,,,,,,,,,,,,,,,,,,,
,,24,11,${e://Field/PROLIFIC_PID,M,29,2023-11-04_01h56.37.881,MouseEye_CC,2023.2.2,Win32,60.07088364,1.187854856,,,1366,768,36.013999999999996,5.26,"437.7, 425.94, 449.63, 436.43, 469.58, 423.4, 440.41",892.33,6.286267083,33.06576486,27.83653633,Passed,110.7703123,,,,,,,,,,,,,,,,,,,,training,5,14,0,left,a,,,,,620.3448,621.4604,33.25993597,1.5,-2.5,1,0,0,1.1154,fixationPoint,621.4604,621.5602,621.5603,624.8918,33.25993597,9502.838849,572.5460406,a,1,3.3226,,624.8918,625.0916,,,,,,,,93,-126,-209,24,113,125,164,169,68,-70,22,-172,16,-72,215,66,-120,160,-126,27,-216,-120,-117,-170,-212,90,90,270,360,180,180,180,270,180,180,90,,,,,,,,,,,625.0916,625.0918,,0,77,77,77,1,5,repeated,,,,,,,,,,,,,,,,,,,,,,,,,,,,,,,,,,,,,,,,,,,,,,,,,
,,24,11,${e://Field/PROLIFIC_PID,M,29,2023-11-04_01h56.37.881,MouseEye_CC,2023.2.2,Win32,60.07088364,1.187854856,,,1366,768,36.013999999999996,5.26,"437.7, 425.94, 449.63, 436.43, 469.58, 423.4, 440.41",892.33,6.286267083,33.06576486,27.83653633,Passed,110.7703123,,,,,,,,,,,,,,,,,,,,training,5,15,0,left,a,,,,,625.0921,626.091,33.25993597,1.5,-2.5,1,0,0,0.9988,fixationPoint,626.0911,626.191,626.191,628.7396,33.25993597,9502.838849,572.5460406,a,1,2.5397,,628.7396,628.9393,,,,,,,,70,219,-72,220,122,125,32,125,164,-209,221,-169,117,-80,174,-19,-128,-219,-75,-170,-212,24,-65,29,-114,90,360,90,360,270,270,90,270,180,270,180,,,,,,,,,,,628.9394,628.9395,,0,78,78,78,1,8,repeated,,,,,,,,,,,,,,,,,,,,,,,,,,,,,,,,,,,,,,,,,,,,,,,,,
,,24,11,${e://Field/PROLIFIC_PID,M,29,2023-11-04_01h56.37.881,MouseEye_CC,2023.2.2,Win32,60.07088364,1.187854856,,,1366,768,36.013999999999996,5.26,"437.7, 425.94, 449.63, 436.43, 469.58, 423.4, 440.41",892.33,6.286267083,33.06576486,27.83653633,Passed,110.7703123,,,,,,,,,,,,,,,,,,,,training,5,16,180,right,s,,,,,628.9399,629.7223,33.25993597,1.5,-2.5,1,0,0,0.7824,fixationPoint,629.7223,629.8222,629.8222,633.4202,33.25993597,9502.838849,572.5460406,s,1,3.5797,,633.4202,633.6199,,,,,,,,71,-214,-115,80,119,124,213,212,67,-18,32,-172,67,-172,16,165,-212,116,-128,163,-30,-65,-68,-173,-66,360,180,270,90,180,270,270,360,270,360,270,,,,,,,,,,,633.62,635.7521,space,0,79,79,79,1,9,novel,2.099,,,,,,,,,,,,,,,,,,,,,,,,,,,,,,,,,,,,,,,,,,,,,,,,
,,24,11,${e://Field/PROLIFIC_PID,M,29,2023-11-04_01h56.37.881,MouseEye_CC,2023.2.2,Win32,60.07088364,1.187854856,,,1366,768,36.013999999999996,5.26,"437.7, 425.94, 449.63, 436.43, 469.58, 423.4, 440.41",892.33,6.286267083,33.06576486,27.83653633,Passed,110.7703123,,,,,,,,,,,,,,,,,,,,training,6,1,0,left,a,,,,,635.7525,637.1179,33.25993597,1.5,-2.5,1,0,0,1.3654,fixationPoint,637.1179,637.2178,637.2178,639.6,33.25993597,9502.838849,572.5460406,a,1,2.3747,,639.6002,639.7997,,,,,,,,13,-114,176,164,30,125,32,169,68,-116,-68,-219,-75,-72,-29,32,-28,211,-165,116,-128,-169,117,-128,28,90,360,180,180,180,360,270,90,360,270,90,,,,,,,,,,,639.7997,639.8008,,0,80,80,80,1,3,repeated,,,,,,,,,,,,,,,,,,,,,,,,,,,,,,,,,,,,,,,,,,,,,,,,,
,,24,11,${e://Field/PROLIFIC_PID,M,29,2023-11-04_01h56.37.881,MouseEye_CC,2023.2.2,Win32,60.07088364,1.187854856,,,1366,768,36.013999999999996,5.26,"437.7, 425.94, 449.63, 436.43, 469.58, 423.4, 440.41",892.33,6.286267083,33.06576486,27.83653633,Passed,110.7703123,,,,,,,,,,,,,,,,,,,,training,6,2,0,left,a,,,,,639.8011,640.5826,33.25993597,1.5,-2.5,1,0,0,0.7814,fixationPoint,640.5826,640.6825,640.6825,642.5315,33.25993597,9502.838849,572.5460406,a,1,1.8337,,642.5315,642.7313,,,,,,,,88,122,-168,212,67,16,164,165,171,-172,67,-17,112,-114,120,-72,-215,-25,-27,-172,-25,66,-120,32,-28,270,180,180,90,270,90,90,180,90,90,90,,,,,,,,,,,642.7314,642.7315,,0,81,81,81,1,11,novel,,,,,,,,,,,,,,,,,,,,,,,,,,,,,,,,,,,,,,,,,,,,,,,,,
,,24,11,${e://Field/PROLIFIC_PID,M,29,2023-11-04_01h56.37.881,MouseEye_CC,2023.2.2,Win32,60.07088364,1.187854856,,,1366,768,36.013999999999996,5.26,"437.7, 425.94, 449.63, 436.43, 469.58, 423.4, 440.41",892.33,6.286267083,33.06576486,27.83653633,Passed,110.7703123,,,,,,,,,,,,,,,,,,,,training,6,3,180,right,s,,,,,642.7319,643.6307,33.25993597,1.5,-2.5,1,0,0,0.8987,fixationPoint,643.6308,643.7307,643.7307,646.9455,33.25993597,9502.838849,572.5460406,s,1,3.1998,,646.9456,647.1452,,,,,,,,14,-80,174,222,223,164,223,80,119,-173,-66,-221,-24,-26,-76,112,-212,71,-22,208,-118,-128,28,-127,220,360,180,270,90,180,270,90,270,270,360,180,,,,,,,,,,,647.1453,647.1454,,0,82,82,82,1,15,novel,,,,,,,,,,,,,,,,,,,,,,,,,,,,,,,,,,,,,,,,,,,,,,,,,
,,24,11,${e://Field/PROLIFIC_PID,M,29,2023-11-04_01h56.37.881,MouseEye_CC,2023.2.2,Win32,60.07088364,1.187854856,,,1366,768,36.013999999999996,5.26,"437.7, 425.94, 449.63, 436.43, 469.58, 423.4, 440.41",892.33,6.286267083,33.06576486,27.83653633,Passed,110.7703123,,,,,,,,,,,,,,,,,,,,training,6,4,180,right,s,,,,,647.1458,648.2948,33.25993597,1.5,-2.5,1,0,0,1.149,fixationPoint,648.2949,648.3947,648.3948,650.5269,33.25993597,9502.838849,572.5460406,s,1,2.1248,,650.527,650.7267,,,,,,,,93,-126,-209,24,113,125,164,169,68,-70,22,-172,16,-72,215,66,-120,160,-126,27,-216,-120,-117,-170,-212,90,270,360,90,360,360,180,270,270,180,180,,,,,,,,,,,650.7267,650.7268,,0,83,83,83,1,5,repeated,,,,,,,,,,,,,,,,,,,,,,,,,,,,,,,,,,,,,,,,,,,,,,,,,
,,24,11,${e://Field/PROLIFIC_PID,M,29,2023-11-04_01h56.37.881,MouseEye_CC,2023.2.2,Win32,60.07088364,1.187854856,,,1366,768,36.013999999999996,5.26,"437.7, 425.94, 449.63, 436.43, 469.58, 423.4, 440.41",892.33,6.286267083,33.06576486,27.83653633,Passed,110.7703123,,,,,,,,,,,,,,,,,,,,training,6,5,0,left,a,,,,,650.7272,651.9258,33.25993597,1.5,-2.5,1,0,0,1.1986,fixationPoint,651.9259,652.0259,652.0259,653.0753,33.25993597,9502.838849,572.5460406,a,1,1.0332,,653.0755,653.2752,,,,,,,,30,220,122,-215,72,-208,125,-72,215,-119,-172,-219,-75,-73,-112,24,-65,168,-76,208,-118,166,115,218,161,90,270,270,180,90,90,180,360,360,90,270,,,,,,,,,,,653.2752,653.2754,,0,84,84,84,1,1,repeated,,,,,,,,,,,,,,,,,,,,,,,,,,,,,,,,,,,,,,,,,,,,,,,,,
,,24,11,${e://Field/PROLIFIC_PID,M,29,2023-11-04_01h56.37.881,MouseEye_CC,2023.2.2,Win32,60.07088364,1.187854856,,,1366,768,36.013999999999996,5.26,"437.7, 425.94, 449.63, 436.43, 469.58, 423.4, 440.41",892.33,6.286267083,33.06576486,27.83653633,Passed,110.7703123,,,,,,,,,,,,,,,,,,,,training,6,6,180,right,s,,,,,653.2758,654.2246,33.25993597,1.5,-2.5,1,0,0,0.9488,fixationPoint,654.2247,654.3245,654.3245,655.857,33.25993597,9502.838849,572.5460406,a,0,1.5171,,655.8571,659.8547,,,,,,,,72,-169,-126,222,223,165,171,28,68,-128,28,-72,215,-114,176,219,-72,27,-216,68,-211,-172,-25,-209,-208,90,180,360,90,270,270,180,270,180,360,180,,,,,,,,,,,659.8547,659.8622,,0,85,85,85,1,6,repeated,,,,,,,,,,,,,,,,,,,,,,,,,,,,,,,,,,,,,,,,,,,,,,,,,
,,24,11,${e://Field/PROLIFIC_PID,M,29,2023-11-04_01h56.37.881,MouseEye_CC,2023.2.2,Win32,60.07088364,1.187854856,,,1366,768,36.013999999999996,5.26,"437.7, 425.94, 449.63, 436.43, 469.58, 423.4, 440.41",892.33,6.286267083,33.06576486,27.83653633,Passed,110.7703123,,,,,,,,,,,,,,,,,,,,training,6,7,0,left,a,,,,,659.8627,660.3044,33.25993597,1.5,-2.5,1,0,0,0.4416,fixationPoint,660.3044,660.4043,660.4043,661.254,33.25993597,9502.838849,572.5460406,a,1,0.8313,,661.254,661.4537,,,,,,,,76,29,-114,222,223,164,223,24,113,-208,125,-64,123,-163,214,-68,-170,-25,-27,-126,-209,32,-28,112,-212,90,180,270,270,360,270,360,270,360,180,360,,,,,,,,,,,661.4538,661.4539,,0,86,86,86,1,12,novel,,,,,,,,,,,,,,,,,,,,,,,,,,,,,,,,,,,,,,,,,,,,,,,,,
,,24,11,${e://Field/PROLIFIC_PID,M,29,2023-11-04_01h56.37.881,MouseEye_CC,2023.2.2,Win32,60.07088364,1.187854856,,,1366,768,36.013999999999996,5.26,"437.7, 425.94, 449.63, 436.43, 469.58, 423.4, 440.41",892.33,6.286267083,33.06576486,27.83653633,Passed,110.7703123,,,,,,,,,,,,,,,,,,,,training,6,8,180,right,s,,,,,661.4542,662.4031,33.25993597,1.5,-2.5,1,0,0,0.9488,fixationPoint,662.4032,662.5031,662.5032,663.4694,33.25993597,9502.838849,572.5460406,s,1,0.9569,,663.4694,663.6691,,,,,,,,25,-17,112,165,171,16,210,220,122,-73,-112,-170,-212,-120,-117,219,-72,118,-31,165,-212,-18,32,-209,221,270,360,360,360,90,360,180,270,360,360,180,,,,,,,,,,,663.6692,663.6693,,0,87,87,87,1,4,repeated,,,,,,,,,,,,,,,,,,,,,,,,,,,,,,,,,,,,,,,,,,,,,,,,,
,,24,11,${e://Field/PROLIFIC_PID,M,29,2023-11-04_01h56.37.881,MouseEye_CC,2023.2.2,Win32,60.07088364,1.187854856,,,1366,768,36.013999999999996,5.26,"437.7, 425.94, 449.63, 436.43, 469.58, 423.4, 440.41",892.33,6.286267083,33.06576486,27.83653633,Passed,110.7703123,,,,,,,,,,,,,,,,,,,,training,6,9,0,left,a,,,,,663.6696,664.6519,33.25993597,1.5,-2.5,1,0,0,0.9822,fixationPoint,664.6519,664.7518,664.7519,666.6675,33.25993597,9502.838849,572.5460406,a,1,1.9043,,666.6675,666.8672,,,,,,,,8,124,213,-80,174,-215,72,-30,210,-220,-168,-26,-218,-126,-209,165,-212,163,-30,160,-126,164,30,16,210,90,270,90,270,180,360,90,180,180,360,90,,,,,,,,,,,666.8672,666.8673,,0,88,88,88,1,13,novel,,,,,,,,,,,,,,,,,,,,,,,,,,,,,,,,,,,,,,,,,,,,,,,,,
,,24,11,${e://Field/PROLIFIC_PID,M,29,2023-11-04_01h56.37.881,MouseEye_CC,2023.2.2,Win32,60.07088364,1.187854856,,,1366,768,36.013999999999996,5.26,"437.7, 425.94, 449.63, 436.43, 469.58, 423.4, 440.41",892.33,6.286267083,33.06576486,27.83653633,Passed,110.7703123,,,,,,,,,,,,,,,,,,,,training,6,10,180,right,s,,,,,666.8676,667.8834,33.25993597,1.5,-2.5,1,0,0,1.0156,fixationPoint,667.8835,667.9834,667.9834,668.683,33.25993597,9502.838849,572.5460406,s,1,0.6816,,668.6831,668.8828,,,,,,,,28,121,112,-215,72,-128,28,-214,166,-68,-170,-26,-218,-120,-117,66,-120,29,-114,116,-77,164,223,218,161,270,180,90,360,180,180,180,180,270,90,180,,,,,,,,,,,668.8829,668.883,,0,89,89,89,1,2,repeated,,,,,,,,,,,,,,,,,,,,,,,,,,,,,,,,,,,,,,,,,,,,,,,,,
,,24,11,${e://Field/PROLIFIC_PID,M,29,2023-11-04_01h56.37.881,MouseEye_CC,2023.2.2,Win32,60.07088364,1.187854856,,,1366,768,36.013999999999996,5.26,"437.7, 425.94, 449.63, 436.43, 469.58, 423.4, 440.41",892.33,6.286267083,33.06576486,27.83653633,Passed,110.7703123,,,,,,,,,,,,,,,,,,,,training,6,11,0,left,a,,,,,668.8834,669.9322,33.25993597,1.5,-2.5,1,0,0,1.0487,fixationPoint,669.9323,670.0321,670.0321,673.5466,33.25993597,9502.838849,572.5460406,a,1,3.4964,,673.5467,673.7466,,,,,,,,71,-214,-115,125,32,164,30,16,164,-114,176,-128,28,-30,210,68,-211,219,-72,118,-31,-26,-76,-172,-25,360,360,270,180,180,90,180,90,270,180,90,,,,,,,,,,,673.7467,673.7468,,0,90,90,90,1,9,novel,,,,,,,,,,,,,,,,,,,,,,,,,,,,,,,,,,,,,,,,,,,,,,,,,
,,24,11,${e://Field/PROLIFIC_PID,M,29,2023-11-04_01h56.37.881,MouseEye_CC,2023.2.2,Win32,60.07088364,1.187854856,,,1366,768,36.013999999999996,5.26,"437.7, 425.94, 449.63, 436.43, 469.58, 423.4, 440.41",892.33,6.286267083,33.06576486,27.83653633,Passed,110.7703123,,,,,,,,,,,,,,,,,,,,training,6,12,0,left,a,,,,,673.7471,674.6294,33.25993597,1.5,-2.5,1,0,0,0.8821,fixationPoint,674.6295,674.7293,674.7294,675.7955,33.25993597,9502.838849,572.5460406,a,1,1.0574,,675.7955,675.9953,,,,,,,,29,166,115,-127,220,-209,221,-164,165,-126,-209,-170,-212,-169,-126,66,-120,118,-31,172,-176,24,113,164,30,90,180,180,360,180,270,360,180,90,90,270,,,,,,,,,,,675.9953,675.9955,,0,91,91,91,1,14,novel,,,,,,,,,,,,,,,,,,,,,,,,,,,,,,,,,,,,,,,,,,,,,,,,,
,,24,11,${e://Field/PROLIFIC_PID,M,29,2023-11-04_01h56.37.881,MouseEye_CC,2023.2.2,Win32,60.07088364,1.187854856,,,1366,768,36.013999999999996,5.26,"437.7, 425.94, 449.63, 436.43, 469.58, 423.4, 440.41",892.33,6.286267083,33.06576486,27.83653633,Passed,110.7703123,,,,,,,,,,,,,,,,,,,,training,6,13,0,left,a,,,,,675.9958,676.7783,33.25993597,1.5,-2.5,1,0,0,0.7822,fixationPoint,676.7783,676.8781,676.8781,677.8776,33.25993597,9502.838849,572.5460406,a,1,0.984,,677.8776,678.0775,,,,,,,,87,75,-176,67,68,32,28,16,210,-209,221,-169,117,-30,210,-119,-172,-73,-112,-72,-215,18,-176,219,-72,270,270,270,90,360,270,180,90,360,270,270,,,,,,,,,,,678.0775,678.0776,,0,92,92,92,1,7,repeated,,,,,,,,,,,,,,,,,,,,,,,,,,,,,,,,,,,,,,,,,,,,,,,,,
,,24,11,${e://Field/PROLIFIC_PID,M,29,2023-11-04_01h56.37.881,MouseEye_CC,2023.2.2,Win32,60.07088364,1.187854856,,,1366,768,36.013999999999996,5.26,"437.7, 425.94, 449.63, 436.43, 469.58, 423.4, 440.41",892.33,6.286267083,33.06576486,27.83653633,Passed,110.7703123,,,,,,,,,,,,,,,,,,,,training,6,14,180,right,s,,,,,678.078,678.8103,33.25993597,1.5,-2.5,1,0,0,0.7322,fixationPoint,678.8104,678.9103,678.9104,680.143,33.25993597,9502.838849,572.5460406,s,1,1.2146,,680.143,680.3427,,,,,,,,70,219,-72,220,122,125,32,125,164,-209,221,-169,117,-80,174,-19,-128,-219,-75,-170,-212,24,-65,29,-114,180,360,90,180,360,180,90,90,90,180,360,,,,,,,,,,,680.3428,680.3429,,0,93,93,93,1,8,repeated,,,,,,,,,,,,,,,,,,,,,,,,,,,,,,,,,,,,,,,,,,,,,,,,,
,,24,11,${e://Field/PROLIFIC_PID,M,29,2023-11-04_01h56.37.881,MouseEye_CC,2023.2.2,Win32,60.07088364,1.187854856,,,1366,768,36.013999999999996,5.26,"437.7, 425.94, 449.63, 436.43, 469.58, 423.4, 440.41",892.33,6.286267083,33.06576486,27.83653633,Passed,110.7703123,,,,,,,,,,,,,,,,,,,,training,6,15,180,right,s,,,,,680.3433,681.0257,33.25993597,1.5,-2.5,1,0,0,0.6823,fixationPoint,681.0257,681.1257,681.1258,682.7081,33.25993597,9502.838849,572.5460406,s,1,1.5663,,682.7082,682.908,,,,,,,,31,-215,72,124,213,16,164,24,113,-120,-117,-126,-25,-73,-112,165,-212,66,-120,24,-65,-209,221,-163,214,90,90,360,360,180,270,270,180,360,360,360,,,,,,,,,,,682.908,682.9081,,0,94,94,94,1,16,novel,,,,,,,,,,,,,,,,,,,,,,,,,,,,,,,,,,,,,,,,,,,,,,,,,
,,24,11,${e://Field/PROLIFIC_PID,M,29,2023-11-04_01h56.37.881,MouseEye_CC,2023.2.2,Win32,60.07088364,1.187854856,,,1366,768,36.013999999999996,5.26,"437.7, 425.94, 449.63, 436.43, 469.58, 423.4, 440.41",892.33,6.286267083,33.06576486,27.83653633,Passed,110.7703123,,,,,,,,,,,,,,,,,,,,training,6,16,180,right,s,,,,,682.9085,683.9907,33.25993597,1.5,-2.5,1,0,0,1.0821,fixationPoint,683.9907,684.0906,684.0906,685.4565,33.25993597,9502.838849,572.5460406,s,1,1.3572,,685.4566,685.6563,,,,,,,,73,-120,-117,67,68,125,32,169,68,-172,67,-70,22,-208,125,216,-223,208,-118,24,-65,-68,-170,-173,-66,270,90,180,90,270,360,360,180,90,90,180,,,,,,,,,,,685.6564,687.572,space,0,95,95,95,1,10,novel,1.8796,,,,,,,,,,,,,,,,,,,,,,,,,,,,,,,,,,,,,,,,,,,,,,,,
,,24,11,${e://Field/PROLIFIC_PID,M,29,2023-11-04_01h56.37.881,MouseEye_CC,2023.2.2,Win32,60.07088364,1.187854856,,,1366,768,36.013999999999996,5.26,"437.7, 425.94, 449.63, 436.43, 469.58, 423.4, 440.41",892.33,6.286267083,33.06576486,27.83653633,Passed,110.7703123,,,,,,,,,,,,,,,,,,,,training,7,1,0,left,a,,,,,687.5725,688.8045,33.25993597,1.5,-2.5,1,0,0,1.2318,fixationPoint,688.8046,688.9045,688.9046,690.0206,33.25993597,9502.838849,572.5460406,a,1,1.0831,,690.0207,690.2204,,,,,,,,88,122,-168,213,26,75,217,16,164,-127,220,-24,64,-214,166,-176,-175,-172,-25,-119,-172,29,-114,116,-128,180,90,180,90,180,360,270,180,360,360,180,,,,,,,,,,,690.2204,690.2216,,0,96,96,96,1,11,novel,,,,,,,,,,,,,,,,,,,,,,,,,,,,,,,,,,,,,,,,,,,,,,,,,
,,24,11,${e://Field/PROLIFIC_PID,M,29,2023-11-04_01h56.37.881,MouseEye_CC,2023.2.2,Win32,60.07088364,1.187854856,,,1366,768,36.013999999999996,5.26,"437.7, 425.94, 449.63, 436.43, 469.58, 423.4, 440.41",892.33,6.286267083,33.06576486,27.83653633,Passed,110.7703123,,,,,,,,,,,,,,,,,,,,training,7,2,0,left,a,,,,,690.222,690.9033,33.25993597,1.5,-2.5,1,0,0,0.6812,fixationPoint,690.9034,691.0033,691.0033,692.6857,33.25993597,9502.838849,572.5460406,a,1,1.6539,,692.6858,692.8855,,,,,,,,14,-80,174,164,223,222,223,16,164,-73,-112,-221,-24,-26,-76,219,-72,75,-176,211,-165,-219,20,-127,72,180,360,270,270,180,270,180,360,90,180,180,,,,,,,,,,,692.8855,692.8857,,0,97,97,97,1,15,novel,,,,,,,,,,,,,,,,,,,,,,,,,,,,,,,,,,,,,,,,,,,,,,,,,
,,24,11,${e://Field/PROLIFIC_PID,M,29,2023-11-04_01h56.37.881,MouseEye_CC,2023.2.2,Win32,60.07088364,1.187854856,,,1366,768,36.013999999999996,5.26,"437.7, 425.94, 449.63, 436.43, 469.58, 423.4, 440.41",892.33,6.286267083,33.06576486,27.83653633,Passed,110.7703123,,,,,,,,,,,,,,,,,,,,training,7,3,0,left,a,,,,,692.8861,694.0682,33.25993597,1.5,-2.5,1,0,0,1.182,fixationPoint,694.0682,694.1681,694.1682,697.1831,33.25993597,9502.838849,572.5460406,a,1,2.982,,697.1831,697.3829,,,,,,,,8,124,213,-164,165,-127,220,-208,125,-26,-218,-220,-168,-120,-117,32,-28,27,-216,116,-128,76,28,126,73,180,360,270,180,180,360,360,270,180,360,270,,,,,,,,,,,697.383,697.3832,,0,98,98,98,1,13,novel,,,,,,,,,,,,,,,,,,,,,,,,,,,,,,,,,,,,,,,,,,,,,,,,,
,,24,11,${e://Field/PROLIFIC_PID,M,29,2023-11-04_01h56.37.881,MouseEye_CC,2023.2.2,Win32,60.07088364,1.187854856,,,1366,768,36.013999999999996,5.26,"437.7, 425.94, 449.63, 436.43, 469.58, 423.4, 440.41",892.33,6.286267083,33.06576486,27.83653633,Passed,110.7703123,,,,,,,,,,,,,,,,,,,,training,7,4,180,right,s,,,,,697.3835,698.3824,33.25993597,1.5,-2.5,1,0,0,0.9987,fixationPoint,698.3824,698.4822,698.4823,701.1641,33.25993597,9502.838849,572.5460406,s,1,2.6553,,701.1642,701.3639,,,,,,,,93,-126,-209,24,113,125,164,169,68,-70,22,-172,16,-72,215,66,-120,160,-126,27,-216,-120,-117,-170,-212,180,90,360,270,90,90,90,360,360,90,360,,,,,,,,,,,701.364,701.3641,,0,99,99,99,1,5,repeated,,,,,,,,,,,,,,,,,,,,,,,,,,,,,,,,,,,,,,,,,,,,,,,,,
,,24,11,${e://Field/PROLIFIC_PID,M,29,2023-11-04_01h56.37.881,MouseEye_CC,2023.2.2,Win32,60.07088364,1.187854856,,,1366,768,36.013999999999996,5.26,"437.7, 425.94, 449.63, 436.43, 469.58, 423.4, 440.41",892.33,6.286267083,33.06576486,27.83653633,Passed,110.7703123,,,,,,,,,,,,,,,,,,,,training,7,5,0,left,a,,,,,701.3646,702.1301,33.25993597,1.5,-2.5,1,0,0,0.7654,fixationPoint,702.1302,702.2301,702.2301,704.4287,33.25993597,9502.838849,572.5460406,a,1,2.1754,,704.4288,704.6287,,,,,,,,70,219,-72,220,122,125,32,125,164,-209,221,-169,117,-80,174,-19,-128,-219,-75,-170,-212,24,-65,29,-114,180,270,270,90,180,360,180,180,180,360,180,,,,,,,,,,,704.6287,704.6288,,0,100,100,100,1,8,repeated,,,,,,,,,,,,,,,,,,,,,,,,,,,,,,,,,,,,,,,,,,,,,,,,,
,,24,11,${e://Field/PROLIFIC_PID,M,29,2023-11-04_01h56.37.881,MouseEye_CC,2023.2.2,Win32,60.07088364,1.187854856,,,1366,768,36.013999999999996,5.26,"437.7, 425.94, 449.63, 436.43, 469.58, 423.4, 440.41",892.33,6.286267083,33.06576486,27.83653633,Passed,110.7703123,,,,,,,,,,,,,,,,,,,,training,7,6,180,right,s,,,,,704.6292,705.4948,33.25993597,1.5,-2.5,1,0,0,0.8655,fixationPoint,705.4949,705.5947,705.5948,706.6509,33.25993597,9502.838849,572.5460406,s,1,1.0331,,706.651,706.8441,,,,,,,,28,121,112,-215,72,-128,28,-214,166,-68,-170,-26,-218,-120,-117,66,-120,29,-114,116,-77,164,223,218,161,90,180,270,90,360,90,270,360,180,180,270,,,,,,,,,,,706.8442,706.8444,,0,101,101,101,1,2,repeated,,,,,,,,,,,,,,,,,,,,,,,,,,,,,,,,,,,,,,,,,,,,,,,,,
,,24,11,${e://Field/PROLIFIC_PID,M,29,2023-11-04_01h56.37.881,MouseEye_CC,2023.2.2,Win32,60.07088364,1.187854856,,,1366,768,36.013999999999996,5.26,"437.7, 425.94, 449.63, 436.43, 469.58, 423.4, 440.41",892.33,6.286267083,33.06576486,27.83653633,Passed,110.7703123,,,,,,,,,,,,,,,,,,,,training,7,7,180,right,s,,,,,706.8447,707.7934,33.25993597,1.5,-2.5,1,0,0,0.9486,fixationPoint,707.7935,707.8933,707.8934,708.6764,33.25993597,9502.838849,572.5460406,s,1,0.7502,,708.6764,708.8762,,,,,,,,29,166,115,-208,125,-17,112,-72,215,-220,-168,-68,-170,-25,-27,216,-223,211,-165,209,-24,64,169,126,73,90,180,180,180,180,180,90,360,180,360,360,,,,,,,,,,,708.8762,708.8764,,0,102,102,102,1,14,novel,,,,,,,,,,,,,,,,,,,,,,,,,,,,,,,,,,,,,,,,,,,,,,,,,
,,24,11,${e://Field/PROLIFIC_PID,M,29,2023-11-04_01h56.37.881,MouseEye_CC,2023.2.2,Win32,60.07088364,1.187854856,,,1366,768,36.013999999999996,5.26,"437.7, 425.94, 449.63, 436.43, 469.58, 423.4, 440.41",892.33,6.286267083,33.06576486,27.83653633,Passed,110.7703123,,,,,,,,,,,,,,,,,,,,training,7,8,180,right,s,,,,,708.8768,709.809,33.25993597,1.5,-2.5,1,0,0,0.9321,fixationPoint,709.809,709.9089,709.9089,712.2409,33.25993597,9502.838849,572.5460406,s,1,2.3083,,712.241,712.4408,,,,,,,,71,-214,-115,164,30,125,164,64,169,-24,64,-164,165,-17,112,219,-72,65,-80,122,-168,-72,-29,-126,-25,180,270,90,360,90,90,360,360,180,270,270,,,,,,,,,,,712.4409,712.441,,0,103,103,103,1,9,novel,,,,,,,,,,,,,,,,,,,,,,,,,,,,,,,,,,,,,,,,,,,,,,,,,
,,24,11,${e://Field/PROLIFIC_PID,M,29,2023-11-04_01h56.37.881,MouseEye_CC,2023.2.2,Win32,60.07088364,1.187854856,,,1366,768,36.013999999999996,5.26,"437.7, 425.94, 449.63, 436.43, 469.58, 423.4, 440.41",892.33,6.286267083,33.06576486,27.83653633,Passed,110.7703123,,,,,,,,,,,,,,,,,,,,training,7,9,0,left,a,,,,,712.4414,713.1404,33.25993597,1.5,-2.5,1,0,0,0.6988,fixationPoint,713.1405,713.2464,713.2464,714.5063,33.25993597,9502.838849,572.5460406,a,1,1.2331,,714.5063,714.7062,,,,,,,,30,220,122,-215,72,-208,125,-72,215,-119,-172,-219,-75,-73,-112,24,-65,168,-76,208,-118,166,115,218,161,180,270,270,360,270,270,360,360,90,90,270,,,,,,,,,,,714.7062,714.7064,,0,104,104,104,1,1,repeated,,,,,,,,,,,,,,,,,,,,,,,,,,,,,,,,,,,,,,,,,,,,,,,,,
,,24,11,${e://Field/PROLIFIC_PID,M,29,2023-11-04_01h56.37.881,MouseEye_CC,2023.2.2,Win32,60.07088364,1.187854856,,,1366,768,36.013999999999996,5.26,"437.7, 425.94, 449.63, 436.43, 469.58, 423.4, 440.41",892.33,6.286267083,33.06576486,27.83653633,Passed,110.7703123,,,,,,,,,,,,,,,,,,,,training,7,10,180,right,s,,,,,714.7068,715.5724,33.25993597,1.5,-2.5,1,0,0,0.8655,fixationPoint,715.5724,715.6722,715.6723,716.9285,33.25993597,9502.838849,572.5460406,s,1,1.2333,,716.9286,717.1214,,,,,,,,76,29,-114,80,119,76,28,220,122,-169,117,-215,72,-127,72,-176,-175,-65,-68,-120,-117,216,-223,122,-168,270,270,90,360,360,270,270,360,360,90,90,,,,,,,,,,,717.1215,717.1217,,0,105,105,105,1,12,novel,,,,,,,,,,,,,,,,,,,,,,,,,,,,,,,,,,,,,,,,,,,,,,,,,
,,24,11,${e://Field/PROLIFIC_PID,M,29,2023-11-04_01h56.37.881,MouseEye_CC,2023.2.2,Win32,60.07088364,1.187854856,,,1366,768,36.013999999999996,5.26,"437.7, 425.94, 449.63, 436.43, 469.58, 423.4, 440.41",892.33,6.286267083,33.06576486,27.83653633,Passed,110.7703123,,,,,,,,,,,,,,,,,,,,training,7,11,0,left,a,,,,,717.122,718.2375,33.25993597,1.5,-2.5,1,0,0,1.1153,fixationPoint,718.2375,718.3372,718.3374,720.6861,33.25993597,9502.838849,572.5460406,a,1,2.3229,,720.6861,720.8858,,,,,,,,31,-215,72,164,30,218,161,220,122,-25,-27,-120,-117,-176,-175,65,-80,209,-24,163,-30,-169,117,-24,64,270,180,90,90,270,270,90,180,90,360,180,,,,,,,,,,,720.8859,720.886,,0,106,106,106,1,16,novel,,,,,,,,,,,,,,,,,,,,,,,,,,,,,,,,,,,,,,,,,,,,,,,,,
,,24,11,${e://Field/PROLIFIC_PID,M,29,2023-11-04_01h56.37.881,MouseEye_CC,2023.2.2,Win32,60.07088364,1.187854856,,,1366,768,36.013999999999996,5.26,"437.7, 425.94, 449.63, 436.43, 469.58, 423.4, 440.41",892.33,6.286267083,33.06576486,27.83653633,Passed,110.7703123,,,,,,,,,,,,,,,,,,,,training,7,12,0,left,a,,,,,720.8863,721.6021,33.25993597,1.5,-2.5,1,0,0,0.7157,fixationPoint,721.6023,721.7022,721.7022,723.4079,33.25993597,9502.838849,572.5460406,a,1,1.6827,,723.4081,723.601,,,,,,,,87,75,-176,67,68,32,28,16,210,-209,221,-169,117,-30,210,-119,-172,-73,-112,-72,-215,18,-176,219,-72,180,90,180,90,360,360,360,90,360,90,90,,,,,,,,,,,723.601,723.6012,,0,107,107,107,1,7,repeated,,,,,,,,,,,,,,,,,,,,,,,,,,,,,,,,,,,,,,,,,,,,,,,,,
,,24,11,${e://Field/PROLIFIC_PID,M,29,2023-11-04_01h56.37.881,MouseEye_CC,2023.2.2,Win32,60.07088364,1.187854856,,,1366,768,36.013999999999996,5.26,"437.7, 425.94, 449.63, 436.43, 469.58, 423.4, 440.41",892.33,6.286267083,33.06576486,27.83653633,Passed,110.7703123,,,,,,,,,,,,,,,,,,,,training,7,13,180,right,s,,,,,723.6015,724.6907,33.25993597,1.5,-2.5,1,0,0,1.0891,fixationPoint,724.6908,724.7836,724.7836,726.4161,33.25993597,9502.838849,572.5460406,s,1,1.6065,,726.4161,726.6159,,,,,,,,73,-120,-117,220,122,64,169,67,68,-208,125,-209,221,-163,214,116,-128,163,-30,216,-223,-172,-25,-219,-75,360,270,90,90,90,270,90,270,360,90,360,,,,,,,,,,,726.616,726.6161,,0,108,108,108,1,10,novel,,,,,,,,,,,,,,,,,,,,,,,,,,,,,,,,,,,,,,,,,,,,,,,,,
,,24,11,${e://Field/PROLIFIC_PID,M,29,2023-11-04_01h56.37.881,MouseEye_CC,2023.2.2,Win32,60.07088364,1.187854856,,,1366,768,36.013999999999996,5.26,"437.7, 425.94, 449.63, 436.43, 469.58, 423.4, 440.41",892.33,6.286267083,33.06576486,27.83653633,Passed,110.7703123,,,,,,,,,,,,,,,,,,,,training,7,14,180,right,s,,,,,726.6165,727.5486,33.25993597,1.5,-2.5,1,0,0,0.9321,fixationPoint,727.5487,727.6486,727.6486,729.7475,33.25993597,9502.838849,572.5460406,s,1,2.0735,,729.7476,729.9473,,,,,,,,72,-169,-126,222,223,165,171,28,68,-128,28,-72,215,-114,176,219,-72,27,-216,68,-211,-172,-25,-209,-208,90,180,270,180,270,360,360,360,270,90,360,,,,,,,,,,,729.9473,729.9476,,0,109,109,109,1,6,repeated,,,,,,,,,,,,,,,,,,,,,,,,,,,,,,,,,,,,,,,,,,,,,,,,,
