InstrStartPage.started,InstrStartPage.stopped,participant,designid,prolificid,Gender,Age,date,expName,psychopyVersion,OS,frameRate,ratio_monitor2CRT,VirtualChinrest.started,VirtualChinrest.stopped,xRes,yRes,viewingdistance_cm,pixeldensity_px2mm,BallPos,squarePos,mm2degree,px2degree,CRT_px2degree,PassVirtualChinrest,foveaRadius_inPixel,InstrRedo.started,InstrRedo.stopped,VirtualChinrest_Redo.started,VirtualChinrest_Redo.stopped,Redo_virtualChinrest,Instruction1.started,Instruction1.stopped,keyPractice.started,keyPractice.stopped,key_keyprac.keys,key_keyprac.corr,key_keyprac.rt,key_keyprac.duration,keyPracFeedback.started,keyPracFeedback.stopped,keyPracLoop.thisRepN,keyPracLoop.thisTrialN,keyPracLoop.thisN,keyPracLoop.thisIndex,keyPracLoop.ran,phase,block,trial,targOrientdeg,targOrient,corrAnswer,Instruction2.started,Instruction2.stopped,Instruction3.started,Instruction3.stopped,fixation.started,fixation.stopped,fixationSize,mouseintial.x,mouseintial.y,mouseintial.leftButton,mouseintial.midButton,mouseintial.rightButton,mouseintial.time,mouseintial.clicked_name,greenFixation.started,greenFixation.stopped,trial.started,trial.stopped,letterSize,apertureSize,searchsize,key_respMain.keys,key_respMain.corr,key_respMain.rt,key_respMain.duration,trialFeedback.started,trialFeedback.stopped,trialsPractice.thisRepN,trialsPractice.thisTrialN,trialsPractice.thisN,trialsPractice.thisIndex,trialsPractice.ran,targetQuad,Tcondition,targcell,tlocx,tlocy,d1x,d1y,d2x,d2y,d3x,d3y,d4x,d4y,d5x,d5y,d6x,d6y,d7x,d7y,d8x,d8y,d9x,d9y,d10x,d10y,d11x,d11y,d1Orient,d2Orient,d3Orient,d4Orient,d5Orient,d6Orient,d7Orient,d8Orient,d9Orient,d10Orient,d11Orient,CheckInstr.started,CheckInstr.stopped,key_checkInstr.keys,key_checkInstr.corr,key_checkInstr.rt,key_checkInstr.duration,CheckInstr_FB.started,CheckInstr_FB.stopped,Instruction_MainExp.started,Instruction_MainExp.stopped,TakeABreak.started,TakeABreak.stopped,key_respBreak.keys,trials.thisRepN,trials.thisTrialN,trials.thisN,trials.thisIndex,trials.ran,configurationNumber,CCCondition,key_respBreak.rt,key_respBreak.duration,displayTestingPhase.started,displayTestingPhase.stopped,key_respTesting.keys,key_respTesting.corr,key_respTesting.rt,key_respTesting.duration,TakeABreak2.started,TakeABreak2.stopped,key_RespBreak.keys,Testingtrials.thisRepN,Testingtrials.thisTrialN,Testingtrials.thisN,Testingtrials.thisIndex,Testingtrials.ran,key_RespBreak.rt,key_RespBreak.duration,RecogQuestion.started,RecogQuestion.stopped,key_AnswerQues.keys,key_AnswerQues.rt,key_AnswerQues.duration,Disclose.started,Disclose.stopped,InstrRT.started,InstrRT.stopped,fixation_RT.started,fixation_RT.stopped,mouseInitial.x,mouseInitial.y,mouseInitial.leftButton,mouseInitial.midButton,mouseInitial.rightButton,mouseInitial.time,mouseInitial.clicked_name,displayRT.started,displayRT.stopped,key_respRT.keys,key_respRT.corr,key_respRT.rt,key_respRT.duration,RTtrials.thisRepN,RTtrials.thisTrialN,RTtrials.thisN,RTtrials.thisIndex,RTtrials.ran,EndOfExperiment.started,EndOfExperiment.stopped
0.001,7.602,25,7,${e://Field/PROLIFIC_PID,M,41,2023-11-03_21h49.55.035,MouseEye_CC,2023.2.2,Win32,62.5,1,,,,,,,,,,,,,,,,,,,,,,,,,,,,,,,,,,,,,,,,,,,,,,,,,,,,,,,,,,,,,,,,,,,,,,,,,,,,,,,,,,,,,,,,,,,,,,,,,,,,,,,,,,,,,,,,,,,,,,,,,,,,,,,,,,,,,,,,,,,,,,,,,,,,,,,,,,,,,,,,,,,,,,,,,,,,,,,,,,
,,25,7,${e://Field/PROLIFIC_PID,M,41,2023-11-03_21h49.55.035,MouseEye_CC,2023.2.2,Win32,62.5,1.508232525,7.603,304.907,1712,965,33.64,7.15,"491.2, 350.55, 427.22, 359.16, 309.08, 444.87, 355.96",965,5.871883842,41.98396947,27.83653633,Passed,140.6462977,,,,,,,,,,,,,,,,,,,,,,,,,,,,,,,,,,,,,,,,,,,,,,,,,,,,,,,,,,,,,,,,,,,,,,,,,,,,,,,,,,,,,,,,,,,,,,,,,,,,,,,,,,,,,,,,,,,,,,,,,,,,,,,,,,,,,,,,,,,,,,,,,,,,,,,,,,,,,,,,,,,,,
,,25,7,${e://Field/PROLIFIC_PID,M,41,2023-11-03_21h49.55.035,MouseEye_CC,2023.2.2,Win32,62.5,1.508232525,,,1712,965,33.64,7.15,"491.2, 350.55, 427.22, 359.16, 309.08, 444.87, 355.96",965,5.871883842,41.98396947,27.83653633,Passed,140.6462977,304.908,304.909,,,,,,,,,,,,,,,,,,,,,,,,,,,,,,,,,,,,,,,,,,,,,,,,,,,,,,,,,,,,,,,,,,,,,,,,,,,,,,,,,,,,,,,,,,,,,,,,,,,,,,,,,,,,,,,,,,,,,,,,,,,,,,,,,,,,,,,,,,,,,,,,,,,,,,,,,,,,,,,,,,,
,,25,7,${e://Field/PROLIFIC_PID,M,41,2023-11-03_21h49.55.035,MouseEye_CC,2023.2.2,Win32,62.5,1.28,,,1401,790,53.07899999999999,5.26,"491.2, 350.55, 427.22, 359.16, 309.08, 444.87, 355.96",965,9.264973913,48.73376278,27.83653633,Passed,163.2581053,,,304.909,369.753,failed,,,,,,,,,,,,,,,,,,,,,,,,,,,,,,,,,,,,,,,,,,,,,,,,,,,,,,,,,,,,,,,,,,,,,,,,,,,,,,,,,,,,,,,,,,,,,,,,,,,,,,,,,,,,,,,,,,,,,,,,,,,,,,,,,,,,,,,,,,,,,,,,,,,,,,,,,,,,,,,,
,,25,7,${e://Field/PROLIFIC_PID,M,41,2023-11-03_21h49.55.035,MouseEye_CC,2023.2.2,Win32,62.5,1.28,,,1401,790,53.07899999999999,5.26,"491.2, 350.55, 427.22, 359.16, 309.08, 444.87, 355.96",965,9.264973913,48.73376278,27.83653633,Passed,163.2581053,,,,,,369.753,396.894,,,,,,,,,,,,,,,,,,,,,,,,,,,,,,,,,,,,,,,,,,,,,,,,,,,,,,,,,,,,,,,,,,,,,,,,,,,,,,,,,,,,,,,,,,,,,,,,,,,,,,,,,,,,,,,,,,,,,,,,,,,,,,,,,,,,,,,,,,,,,,,,,,,,,,,,,,,,,,
,,25,7,${e://Field/PROLIFIC_PID,M,41,2023-11-03_21h49.55.035,MouseEye_CC,2023.2.2,Win32,62.5,1.28,,,1401,790,53.07899999999999,5.26,"491.2, 350.55, 427.22, 359.16, 309.08, 444.87, 355.96",965,9.264973913,48.73376278,27.83653633,Passed,163.2581053,,,,,,,,396.901,398.103,s,0,0.677,,398.103,398.603,0,0,0,0,1,practice,1,1,0,left,a,,,,,,,,,,,,,,,,,,,,,,,,,,,,,,,,,,,,,,,,,,,,,,,,,,,,,,,,,,,,,,,,,,,,,,,,,,,,,,,,,,,,,,,,,,,,,,,,,,,,,,,,,,,,,,,,,,,,,,,,,,,,,,,,,,,,,,,,,,,
,,25,7,${e://Field/PROLIFIC_PID,M,41,2023-11-03_21h49.55.035,MouseEye_CC,2023.2.2,Win32,62.5,1.28,,,1401,790,53.07899999999999,5.26,"491.2, 350.55, 427.22, 359.16, 309.08, 444.87, 355.96",965,9.264973913,48.73376278,27.83653633,Passed,163.2581053,,,,,,,,398.604,399.736,a,1,0.611,,399.736,400.23,0,1,1,1,1,practice,1,2,0,left,a,,,,,,,,,,,,,,,,,,,,,,,,,,,,,,,,,,,,,,,,,,,,,,,,,,,,,,,,,,,,,,,,,,,,,,,,,,,,,,,,,,,,,,,,,,,,,,,,,,,,,,,,,,,,,,,,,,,,,,,,,,,,,,,,,,,,,,,,,,,
,,25,7,${e://Field/PROLIFIC_PID,M,41,2023-11-03_21h49.55.035,MouseEye_CC,2023.2.2,Win32,62.5,1.28,,,1401,790,53.07899999999999,5.26,"491.2, 350.55, 427.22, 359.16, 309.08, 444.87, 355.96",965,9.264973913,48.73376278,27.83653633,Passed,163.2581053,,,,,,,,400.23,401.286,a,1,0.524,,401.286,401.787,0,2,2,2,1,practice,1,3,0,left,a,,,,,,,,,,,,,,,,,,,,,,,,,,,,,,,,,,,,,,,,,,,,,,,,,,,,,,,,,,,,,,,,,,,,,,,,,,,,,,,,,,,,,,,,,,,,,,,,,,,,,,,,,,,,,,,,,,,,,,,,,,,,,,,,,,,,,,,,,,,
,,25,7,${e://Field/PROLIFIC_PID,M,41,2023-11-03_21h49.55.035,MouseEye_CC,2023.2.2,Win32,62.5,1.28,,,1401,790,53.07899999999999,5.26,"491.2, 350.55, 427.22, 359.16, 309.08, 444.87, 355.96",965,9.264973913,48.73376278,27.83653633,Passed,163.2581053,,,,,,,,401.787,402.854,s,1,0.541,,402.854,403.354,0,3,3,3,1,practice,1,4,180,right,s,,,,,,,,,,,,,,,,,,,,,,,,,,,,,,,,,,,,,,,,,,,,,,,,,,,,,,,,,,,,,,,,,,,,,,,,,,,,,,,,,,,,,,,,,,,,,,,,,,,,,,,,,,,,,,,,,,,,,,,,,,,,,,,,,,,,,,,,,,,
,,25,7,${e://Field/PROLIFIC_PID,M,41,2023-11-03_21h49.55.035,MouseEye_CC,2023.2.2,Win32,62.5,1.28,,,1401,790,53.07899999999999,5.26,"491.2, 350.55, 427.22, 359.16, 309.08, 444.87, 355.96",965,9.264973913,48.73376278,27.83653633,Passed,163.2581053,,,,,,,,403.354,404.788,s,1,0.899,,404.788,405.286,0,4,4,4,1,practice,1,5,180,right,s,,,,,,,,,,,,,,,,,,,,,,,,,,,,,,,,,,,,,,,,,,,,,,,,,,,,,,,,,,,,,,,,,,,,,,,,,,,,,,,,,,,,,,,,,,,,,,,,,,,,,,,,,,,,,,,,,,,,,,,,,,,,,,,,,,,,,,,,,,,
,,25,7,${e://Field/PROLIFIC_PID,M,41,2023-11-03_21h49.55.035,MouseEye_CC,2023.2.2,Win32,62.5,1.28,,,1401,790,53.07899999999999,5.26,"491.2, 350.55, 427.22, 359.16, 309.08, 444.87, 355.96",965,9.264973913,48.73376278,27.83653633,Passed,163.2581053,,,,,,,,405.286,406.337,a,1,0.548,,406.337,406.836,0,5,5,5,1,practice,1,6,0,left,a,,,,,,,,,,,,,,,,,,,,,,,,,,,,,,,,,,,,,,,,,,,,,,,,,,,,,,,,,,,,,,,,,,,,,,,,,,,,,,,,,,,,,,,,,,,,,,,,,,,,,,,,,,,,,,,,,,,,,,,,,,,,,,,,,,,,,,,,,,,
,,25,7,${e://Field/PROLIFIC_PID,M,41,2023-11-03_21h49.55.035,MouseEye_CC,2023.2.2,Win32,62.5,1.28,,,1401,790,53.07899999999999,5.26,"491.2, 350.55, 427.22, 359.16, 309.08, 444.87, 355.96",965,9.264973913,48.73376278,27.83653633,Passed,163.2581053,,,,,,,,406.837,408.07,s,1,0.717,,408.07,408.573,0,6,6,6,1,practice,1,7,180,right,s,,,,,,,,,,,,,,,,,,,,,,,,,,,,,,,,,,,,,,,,,,,,,,,,,,,,,,,,,,,,,,,,,,,,,,,,,,,,,,,,,,,,,,,,,,,,,,,,,,,,,,,,,,,,,,,,,,,,,,,,,,,,,,,,,,,,,,,,,,,
,,25,7,${e://Field/PROLIFIC_PID,M,41,2023-11-03_21h49.55.035,MouseEye_CC,2023.2.2,Win32,62.5,1.28,,,1401,790,53.07899999999999,5.26,"491.2, 350.55, 427.22, 359.16, 309.08, 444.87, 355.96",965,9.264973913,48.73376278,27.83653633,Passed,163.2581053,,,,,,,,,,,,,,,,,,,,,,,,,,,408.574,414.337,,,,,,,,,,,,,,,,,,,,,,,,,,,,,,,,,,,,,,,,,,,,,,,,,,,,,,,,,,,,,,,,,,,,,,,,,,,,,,,,,,,,,,,,,,,,,,,,,,,,,,,,,,,,,,,,,,,,,,,,,,,,,,,,,,,,,,,,,
,,25,7,${e://Field/PROLIFIC_PID,M,41,2023-11-03_21h49.55.035,MouseEye_CC,2023.2.2,Win32,62.5,1.28,,,1401,790,53.07899999999999,5.26,"491.2, 350.55, 427.22, 359.16, 309.08, 444.87, 355.96",965,9.264973913,48.73376278,27.83653633,Passed,163.2581053,,,,,,,,,,,,,,,,,,,,,,,,,,,,,414.337,425.639,,,,,,,,,,,,,,,,,,,,,,,,,,,,,,,,,,,,,,,,,,,,,,,,,,,,,,,,,,,,,,,,,,,,,,,,,,,,,,,,,,,,,,,,,,,,,,,,,,,,,,,,,,,,,,,,,,,,,,,,,,,,,,,,,,,,,,,
,,25,7,${e://Field/PROLIFIC_PID,M,41,2023-11-03_21h49.55.035,MouseEye_CC,2023.2.2,Win32,62.5,1.28,,,1401,790,53.07899999999999,5.26,"491.2, 350.55, 427.22, 359.16, 309.08, 444.87, 355.96",965,9.264973913,48.73376278,27.83653633,Passed,163.2581053,,,,,,,,,,,,,,,,,,,,,practice,0,1,0,left,a,,,,,425.648,427.458,35.84,2.363647461,-1.68182373,1,0,0,1.81,fixationPoint,427.458,427.557,427.557,431.055,35.84,10240,616.96,a,1,3.472,,431.055,431.254,0,0,0,0,1,4,sparse,90,217,-164,68,123,222,26,214,216,-218,159,-120,223,-110,82,-115,-130,-224,-120,-68,-219,79,-175,19,-128,90,270,360,90,270,270,180,90,90,90,270,,,,,,,,,,,,,,,,,,,,,,,,,,,,,,,,,,,,,,,,,,,,,,,,,,,,,,,,,,,,,,,,,,,,,
,,25,7,${e://Field/PROLIFIC_PID,M,41,2023-11-03_21h49.55.035,MouseEye_CC,2023.2.2,Win32,62.5,1.28,,,1401,790,53.07899999999999,5.26,"491.2, 350.55, 427.22, 359.16, 309.08, 444.87, 355.96",965,9.264973913,48.73376278,27.83653633,Passed,163.2581053,,,,,,,,,,,,,,,,,,,,,practice,0,2,0,left,a,,,,,431.256,433.023,35.84,-4.18182373,3.409088135,1,0,0,1.767,fixationPoint,433.023,433.13,433.13,436.238,35.84,10240,616.96,a,1,3.098,,436.238,436.44,0,1,1,1,1,1,rich,39,169,66,-126,125,-169,169,-130,19,-169,-116,-125,-167,-224,-216,218,-129,171,-218,18,-208,166,26,17,170,180,90,360,270,90,90,90,270,180,180,270,,,,,,,,,,,,,,,,,,,,,,,,,,,,,,,,,,,,,,,,,,,,,,,,,,,,,,,,,,,,,,,,,,,,,
,,25,7,${e://Field/PROLIFIC_PID,M,41,2023-11-03_21h49.55.035,MouseEye_CC,2023.2.2,Win32,62.5,1.28,,,1401,790,53.07899999999999,5.26,"491.2, 350.55, 427.22, 359.16, 309.08, 444.87, 355.96",965,9.264973913,48.73376278,27.83653633,Passed,163.2581053,,,,,,,,,,,,,,,,,,,,,practice,0,3,0,left,a,,,,,436.44,437.172,35.84,-4.18182373,3.409088135,1,0,0,0.732,fixationPoint,437.172,437.273,437.273,438.891,35.84,10240,616.96,a,1,1.603,,438.891,439.087,0,2,2,2,1,2,sparse,22,-162,126,222,26,17,170,126,172,-25,-117,-175,-206,-224,-216,116,-19,130,-174,217,-164,-218,159,-21,162,90,90,180,360,360,270,360,360,360,360,180,,,,,,,,,,,,,,,,,,,,,,,,,,,,,,,,,,,,,,,,,,,,,,,,,,,,,,,,,,,,,,,,,,,,,
,,25,7,${e://Field/PROLIFIC_PID,M,41,2023-11-03_21h49.55.035,MouseEye_CC,2023.2.2,Win32,62.5,1.28,,,1401,790,53.07899999999999,5.26,"491.2, 350.55, 427.22, 359.16, 309.08, 444.87, 355.96",965,9.264973913,48.73376278,27.83653633,Passed,163.2581053,,,,,,,,,,,,,,,,,,,,,practice,0,4,180,right,s,,,,,439.088,439.67,35.84,-4.18182373,3.409088135,1,0,0,0.582,fixationPoint,439.67,439.77,439.77,443.139,35.84,10240,616.96,s,1,3.352,,443.139,443.337,0,3,3,3,1,4,sparse,76,19,-128,159,121,214,216,219,165,-218,159,-162,126,-219,119,-169,-116,-111,-31,-175,-206,18,-208,81,-114,90,270,180,180,270,180,360,360,360,270,360,,,,,,,,,,,,,,,,,,,,,,,,,,,,,,,,,,,,,,,,,,,,,,,,,,,,,,,,,,,,,,,,,,,,,
,,25,7,${e://Field/PROLIFIC_PID,M,41,2023-11-03_21h49.55.035,MouseEye_CC,2023.2.2,Win32,62.5,1.28,,,1401,790,53.07899999999999,5.26,"491.2, 350.55, 427.22, 359.16, 309.08, 444.87, 355.96",965,9.264973913,48.73376278,27.83653633,Passed,163.2581053,,,,,,,,,,,,,,,,,,,,,practice,0,5,180,right,s,,,,,443.337,443.756,35.84,-4.18182373,3.409088135,1,0,0,0.418,fixationPoint,443.756,443.862,443.862,444.706,35.84,10240,616.96,s,1,0.825,,444.706,444.908,0,4,4,4,1,3,sparse,85,-19,-173,219,165,68,123,214,216,-160,68,-64,120,-226,34,162,-21,224,-216,167,-163,-167,-74,-224,-216,360,360,360,90,180,270,90,360,270,270,360,,,,,,,,,,,,,,,,,,,,,,,,,,,,,,,,,,,,,,,,,,,,,,,,,,,,,,,,,,,,,,,,,,,,,
,,25,7,${e://Field/PROLIFIC_PID,M,41,2023-11-03_21h49.55.035,MouseEye_CC,2023.2.2,Win32,62.5,1.28,,,1401,790,53.07899999999999,5.26,"491.2, 350.55, 427.22, 359.16, 309.08, 444.87, 355.96",965,9.264973913,48.73376278,27.83653633,Passed,163.2581053,,,,,,,,,,,,,,,,,,,,,practice,0,6,180,right,s,,,,,444.908,445.754,35.84,-4.18182373,3.409088135,1,0,0,0.845,fixationPoint,445.754,445.855,445.855,454.187,35.84,10240,616.96,s,1,8.303,,454.187,454.387,0,5,5,5,1,3,sparse,95,-21,-224,126,172,219,165,166,26,-166,207,-223,206,-219,119,169,-75,18,-208,224,-216,-72,-121,-115,-130,180,180,360,180,360,180,270,180,90,180,360,,,,,,,,,,,,,,,,,,,,,,,,,,,,,,,,,,,,,,,,,,,,,,,,,,,,,,,,,,,,,,,,,,,,,
,,25,7,${e://Field/PROLIFIC_PID,M,41,2023-11-03_21h49.55.035,MouseEye_CC,2023.2.2,Win32,62.5,1.28,,,1401,790,53.07899999999999,5.26,"491.2, 350.55, 427.22, 359.16, 309.08, 444.87, 355.96",965,9.264973913,48.73376278,27.83653633,Passed,163.2581053,,,,,,,,,,,,,,,,,,,,,practice,0,7,0,left,a,,,,,454.388,454.803,35.84,-4.18182373,3.409088135,1,0,0,0.415,fixationPoint,454.803,454.902,454.902,457.886,35.84,10240,616.96,a,1,2.955,,457.886,458.087,0,6,6,6,1,1,rich,7,62,223,-166,207,-226,34,-162,126,-169,-116,-168,-160,-161,-27,15,-162,162,-21,79,-175,219,165,219,129,180,180,360,180,270,360,180,360,270,180,360,,,,,,,,,,,,,,,,,,,,,,,,,,,,,,,,,,,,,,,,,,,,,,,,,,,,,,,,,,,,,,,,,,,,,
,,25,7,${e://Field/PROLIFIC_PID,M,41,2023-11-03_21h49.55.035,MouseEye_CC,2023.2.2,Win32,62.5,1.28,,,1401,790,53.07899999999999,5.26,"491.2, 350.55, 427.22, 359.16, 309.08, 444.87, 355.96",965,9.264973913,48.73376278,27.83653633,Passed,163.2581053,,,,,,,,,,,,,,,,,,,,,practice,0,8,180,right,s,,,,,458.087,458.437,35.84,-4.18182373,3.409088135,1,0,0,0.349,fixationPoint,458.437,458.537,458.537,461.304,35.84,10240,616.96,s,1,2.736,,461.304,461.503,0,7,7,7,1,2,sparse,24,-64,120,18,215,126,172,33,121,-206,-170,-64,-162,-218,-78,130,-174,211,-74,168,-130,-164,32,-21,162,90,180,270,360,180,90,180,180,180,360,270,,,,,,,,,,,,,,,,,,,,,,,,,,,,,,,,,,,,,,,,,,,,,,,,,,,,,,,,,,,,,,,,,,,,,
,,25,7,${e://Field/PROLIFIC_PID,M,41,2023-11-03_21h49.55.035,MouseEye_CC,2023.2.2,Win32,62.5,1.28,,,1401,790,53.07899999999999,5.26,"491.2, 350.55, 427.22, 359.16, 309.08, 444.87, 355.96",965,9.264973913,48.73376278,27.83653633,Passed,163.2581053,,,,,,,,,,,,,,,,,,,,,practice,0,9,180,right,s,,,,,461.503,461.803,35.84,-4.18182373,3.409088135,1,0,0,0.3,fixationPoint,461.803,461.903,461.903,464.57,35.84,10240,616.96,s,1,2.638,,464.57,464.77,0,8,8,8,1,3,sparse,85,-19,-173,127,30,62,223,217,67,-110,82,-21,162,-80,218,167,-163,126,-79,130,-174,-125,-167,-68,-219,360,360,360,180,360,360,180,270,90,360,180,,,,,,,,,,,,,,,,,,,,,,,,,,,,,,,,,,,,,,,,,,,,,,,,,,,,,,,,,,,,,,,,,,,,,
,,25,7,${e://Field/PROLIFIC_PID,M,41,2023-11-03_21h49.55.035,MouseEye_CC,2023.2.2,Win32,62.5,1.28,,,1401,790,53.07899999999999,5.26,"491.2, 350.55, 427.22, 359.16, 309.08, 444.87, 355.96",965,9.264973913,48.73376278,27.83653633,Passed,163.2581053,,,,,,,,,,,,,,,,,,,,,practice,0,10,180,right,s,,,,,464.771,464.954,35.84,-4.18182373,3.409088135,1,0,0,0.183,fixationPoint,464.954,465.054,465.054,467.704,35.84,10240,616.96,s,1,2.637,,467.704,467.904,0,9,9,9,1,1,rich,9,160,209,-166,207,-226,34,-120,223,-224,-120,-118,-217,-218,-78,112,-209,126,-113,169,-75,178,160,110,129,180,90,90,270,360,270,360,180,360,180,360,,,,,,,,,,,,,,,,,,,,,,,,,,,,,,,,,,,,,,,,,,,,,,,,,,,,,,,,,,,,,,,,,,,,,
,,25,7,${e://Field/PROLIFIC_PID,M,41,2023-11-03_21h49.55.035,MouseEye_CC,2023.2.2,Win32,62.5,1.28,,,1401,790,53.07899999999999,5.26,"491.2, 350.55, 427.22, 359.16, 309.08, 444.87, 355.96",965,9.264973913,48.73376278,27.83653633,Passed,163.2581053,,,,,,,,,,,,,,,,,,,,,practice,0,11,180,right,s,,,,,467.904,468.186,35.84,-4.18182373,3.409088135,1,0,0,0.282,fixationPoint,468.186,468.286,468.286,470.387,35.84,10240,616.96,s,1,2.082,,470.387,470.586,0,10,10,10,1,4,sparse,80,218,-129,62,223,159,121,110,129,-218,159,-223,206,-75,173,-169,-116,-118,-217,-125,-167,217,-164,169,-75,360,270,360,180,360,180,180,270,360,180,90,,,,,,,,,,,,,,,,,,,,,,,,,,,,,,,,,,,,,,,,,,,,,,,,,,,,,,,,,,,,,,,,,,,,,
,,25,7,${e://Field/PROLIFIC_PID,M,41,2023-11-03_21h49.55.035,MouseEye_CC,2023.2.2,Win32,62.5,1.28,,,1401,790,53.07899999999999,5.26,"491.2, 350.55, 427.22, 359.16, 309.08, 444.87, 355.96",965,9.264973913,48.73376278,27.83653633,Passed,163.2581053,,,,,,,,,,,,,,,,,,,,,practice,0,12,0,left,a,,,,,470.586,470.887,35.84,-4.18182373,3.409088135,1,0,0,0.3,fixationPoint,470.887,470.987,470.987,474.404,35.84,10240,616.96,a,1,3.4,,474.404,474.604,0,11,11,11,1,3,sparse,75,-25,-117,110,129,125,63,214,216,-164,32,-27,117,-126,125,171,-218,126,-113,167,-163,-21,-224,-212,-21,270,180,180,360,180,270,360,270,360,180,270,,,,,,,,,,,,,,,,,,,,,,,,,,,,,,,,,,,,,,,,,,,,,,,,,,,,,,,,,,,,,,,,,,,,,
,,25,7,${e://Field/PROLIFIC_PID,M,41,2023-11-03_21h49.55.035,MouseEye_CC,2023.2.2,Win32,62.5,1.28,,,1401,790,53.07899999999999,5.26,"491.2, 350.55, 427.22, 359.16, 309.08, 444.87, 355.96",965,9.264973913,48.73376278,27.83653633,Passed,163.2581053,,,,,,,,,,,,,,,,,,,,,,,,,,,,,,,,,,,,,,,,,,,,,,,,,,,,,,,,,,,,,,,,,,,,,,,,,,,,,,,,,,,,,,,,,,,,,,,,,474.604,478.671,a,1,4.048,,,,,,,,,,,,,,,,,,,,,,,,,,,,,,,,,,,,,,,,,,,,,,,,,,,,,,,,,,,,,,,,
,,25,7,${e://Field/PROLIFIC_PID,M,41,2023-11-03_21h49.55.035,MouseEye_CC,2023.2.2,Win32,62.5,1.28,,,1401,790,53.07899999999999,5.26,"491.2, 350.55, 427.22, 359.16, 309.08, 444.87, 355.96",965,9.264973913,48.73376278,27.83653633,Passed,163.2581053,,,,,,,,,,,,,,,,,,,,,,,,,,,,,,,,,,,,,,,,,,,,,,,,,,,,,,,,,,,,,,,,,,,,,,,,,,,,,,,,,,,,,,,,,,,,,,,,,,,,,,,478.671,480.823,,,,,,,,,,,,,,,,,,,,,,,,,,,,,,,,,,,,,,,,,,,,,,,,,,,,,,,,,,,,,
,,25,7,${e://Field/PROLIFIC_PID,M,41,2023-11-03_21h49.55.035,MouseEye_CC,2023.2.2,Win32,62.5,1.28,,,1401,790,53.07899999999999,5.26,"491.2, 350.55, 427.22, 359.16, 309.08, 444.87, 355.96",965,9.264973913,48.73376278,27.83653633,Passed,163.2581053,,,,,,,,,,,,,,,,,,,,,,,,,,,,,,,,,,,,,,,,,,,,,,,,,,,,,,,,,,,,,,,,,,,,,,,,,,,,,,,,,,,,,,,,,,,,,,,,,,,,,,,,,480.823,490.688,,,,,,,,,,,,,,,,,,,,,,,,,,,,,,,,,,,,,,,,,,,,,,,,,,,,,,,,,,,
,,25,7,${e://Field/PROLIFIC_PID,M,41,2023-11-03_21h49.55.035,MouseEye_CC,2023.2.2,Win32,62.5,1.28,,,1401,790,53.07899999999999,5.26,"491.2, 350.55, 427.22, 359.16, 309.08, 444.87, 355.96",965,9.264973913,48.73376278,27.83653633,Passed,163.2581053,,,,,,,,,,,,,,,,,,,,,training,1,1,0,left,a,,,,,490.739,491.471,35.84,-4.18182373,3.409088135,1,0,0,0.732,fixationPoint,491.471,491.571,491.571,493.131,35.84,10240,616.96,a,1,1.545,,493.132,493.331,,,,,,,,39,168,64,-30,218,-127,116,-26,27,-221,-163,-24,-71,-165,-215,17,-115,214,-74,120,-219,64,72,221,32,270,90,180,360,180,90,270,180,180,360,90,,,,,,,,,,,493.331,493.333,,0,0,0,0,1,14,novel,,,,,,,,,,,,,,,,,,,,,,,,,,,,,,,,,,,,,,,,,,,,,,,,,
,,25,7,${e://Field/PROLIFIC_PID,M,41,2023-11-03_21h49.55.035,MouseEye_CC,2023.2.2,Win32,62.5,1.28,,,1401,790,53.07899999999999,5.26,"491.2, 350.55, 427.22, 359.16, 309.08, 444.87, 355.96",965,9.264973913,48.73376278,27.83653633,Passed,163.2581053,,,,,,,,,,,,,,,,,,,,,training,1,2,180,right,s,,,,,493.333,493.747,35.84,-4.18182373,3.409088135,1,0,0,0.414,fixationPoint,493.748,493.839,493.839,495.271,35.84,10240,616.96,s,1,1.418,,495.271,495.472,,,,,,,,19,165,174,-79,220,-24,73,-66,160,-172,-124,-80,-218,-17,-162,169,-32,120,-219,163,-165,116,28,160,116,90,180,360,270,90,360,90,360,180,270,180,,,,,,,,,,,495.472,495.472,,0,1,1,1,1,1,repeated,,,,,,,,,,,,,,,,,,,,,,,,,,,,,,,,,,,,,,,,,,,,,,,,,
,,25,7,${e://Field/PROLIFIC_PID,M,41,2023-11-03_21h49.55.035,MouseEye_CC,2023.2.2,Win32,62.5,1.28,,,1401,790,53.07899999999999,5.26,"491.2, 350.55, 427.22, 359.16, 309.08, 444.87, 355.96",965,9.264973913,48.73376278,27.83653633,Passed,163.2581053,,,,,,,,,,,,,,,,,,,,,training,1,3,0,left,a,,,,,495.473,495.706,35.84,-4.18182373,3.409088135,1,0,0,0.233,fixationPoint,495.706,495.805,495.805,499.355,35.84,10240,616.96,a,1,3.534,,499.355,499.561,,,,,,,,68,120,-78,224,175,29,23,168,64,-119,212,-20,120,-127,116,-208,-27,-26,-117,-224,-68,215,-113,210,-16,180,270,90,90,90,90,270,360,360,90,180,,,,,,,,,,,499.561,499.561,,0,2,2,2,1,11,novel,,,,,,,,,,,,,,,,,,,,,,,,,,,,,,,,,,,,,,,,,,,,,,,,,
,,25,7,${e://Field/PROLIFIC_PID,M,41,2023-11-03_21h49.55.035,MouseEye_CC,2023.2.2,Win32,62.5,1.28,,,1401,790,53.07899999999999,5.26,"491.2, 350.55, 427.22, 359.16, 309.08, 444.87, 355.96",965,9.264973913,48.73376278,27.83653633,Passed,163.2581053,,,,,,,,,,,,,,,,,,,,,training,1,4,180,right,s,,,,,499.561,499.687,35.84,-4.18182373,3.409088135,1,0,0,0.126,fixationPoint,499.687,499.787,499.788,500.723,35.84,10240,616.96,s,1,0.917,,500.723,500.921,,,,,,,,48,116,28,-162,80,-212,64,-70,72,-172,-32,-114,-116,-72,-80,25,-164,64,-208,27,-74,120,114,73,172,270,90,180,270,360,90,360,360,270,360,360,,,,,,,,,,,500.921,500.922,,0,3,3,3,1,13,novel,,,,,,,,,,,,,,,,,,,,,,,,,,,,,,,,,,,,,,,,,,,,,,,,,
,,25,7,${e://Field/PROLIFIC_PID,M,41,2023-11-03_21h49.55.035,MouseEye_CC,2023.2.2,Win32,62.5,1.28,,,1401,790,53.07899999999999,5.26,"491.2, 350.55, 427.22, 359.16, 309.08, 444.87, 355.96",965,9.264973913,48.73376278,27.83653633,Passed,163.2581053,,,,,,,,,,,,,,,,,,,,,training,1,5,0,left,a,,,,,500.922,501.239,35.84,-4.18182373,3.409088135,1,0,0,0.317,fixationPoint,501.239,501.337,501.337,502.57,35.84,10240,616.96,a,1,1.199,,502.57,502.773,,,,,,,,79,175,-117,29,214,64,72,124,76,-176,168,-213,170,-26,27,-165,-215,-26,-117,-24,-71,215,-113,208,-174,90,90,270,270,90,180,180,270,360,360,270,,,,,,,,,,,502.773,502.773,,0,4,4,4,1,8,repeated,,,,,,,,,,,,,,,,,,,,,,,,,,,,,,,,,,,,,,,,,,,,,,,,,
,,25,7,${e://Field/PROLIFIC_PID,M,41,2023-11-03_21h49.55.035,MouseEye_CC,2023.2.2,Win32,62.5,1.28,,,1401,790,53.07899999999999,5.26,"491.2, 350.55, 427.22, 359.16, 309.08, 444.87, 355.96",965,9.264973913,48.73376278,27.83653633,Passed,163.2581053,,,,,,,,,,,,,,,,,,,,,training,1,6,0,left,a,,,,,502.773,502.987,35.84,-4.18182373,3.409088135,1,0,0,0.214,fixationPoint,502.987,503.089,503.089,505.971,35.84,10240,616.96,a,1,2.861,,505.971,506.171,,,,,,,,94,-80,-218,168,64,67,17,165,174,-172,116,-75,29,-70,72,25,-164,120,-78,116,-24,-68,-176,-24,-216,360,180,90,180,180,180,180,270,270,360,270,,,,,,,,,,,506.171,506.171,,0,5,5,5,1,10,novel,,,,,,,,,,,,,,,,,,,,,,,,,,,,,,,,,,,,,,,,,,,,,,,,,
,,25,7,${e://Field/PROLIFIC_PID,M,41,2023-11-03_21h49.55.035,MouseEye_CC,2023.2.2,Win32,62.5,1.28,,,1401,790,53.07899999999999,5.26,"491.2, 350.55, 427.22, 359.16, 309.08, 444.87, 355.96",965,9.264973913,48.73376278,27.83653633,Passed,163.2581053,,,,,,,,,,,,,,,,,,,,,training,1,7,180,right,s,,,,,506.171,506.389,35.84,-4.18182373,3.409088135,1,0,0,0.217,fixationPoint,506.389,506.488,506.488,507.754,35.84,10240,616.96,s,1,1.25,,507.754,507.954,,,,,,,,96,28,-215,22,117,165,23,215,74,-213,170,-170,217,-220,24,-71,-113,-80,-218,-124,-64,215,-113,71,-114,90,360,180,90,270,90,180,270,90,360,180,,,,,,,,,,,507.954,507.954,,0,6,6,6,1,7,repeated,,,,,,,,,,,,,,,,,,,,,,,,,,,,,,,,,,,,,,,,,,,,,,,,,
,,25,7,${e://Field/PROLIFIC_PID,M,41,2023-11-03_21h49.55.035,MouseEye_CC,2023.2.2,Win32,62.5,1.28,,,1401,790,53.07899999999999,5.26,"491.2, 350.55, 427.22, 359.16, 309.08, 444.87, 355.96",965,9.264973913,48.73376278,27.83653633,Passed,163.2581053,,,,,,,,,,,,,,,,,,,,,training,1,8,0,left,a,,,,,507.954,508.137,35.84,-4.18182373,3.409088135,1,0,0,0.183,fixationPoint,508.137,508.238,508.238,509.623,35.84,10240,616.96,a,1,1.368,,509.623,509.822,,,,,,,,7,79,208,-30,218,-20,120,-77,115,-172,-32,-172,-124,-68,-176,215,-220,116,-24,165,-217,29,161,220,215,180,180,90,270,180,90,360,90,180,270,180,,,,,,,,,,,509.822,509.822,,0,7,7,7,1,2,repeated,,,,,,,,,,,,,,,,,,,,,,,,,,,,,,,,,,,,,,,,,,,,,,,,,
,,25,7,${e://Field/PROLIFIC_PID,M,41,2023-11-03_21h49.55.035,MouseEye_CC,2023.2.2,Win32,62.5,1.28,,,1401,790,53.07899999999999,5.26,"491.2, 350.55, 427.22, 359.16, 309.08, 444.87, 355.96",965,9.264973913,48.73376278,27.83653633,Passed,163.2581053,,,,,,,,,,,,,,,,,,,,,training,1,9,180,right,s,,,,,509.823,510.019,35.84,-4.18182373,3.409088135,1,0,0,0.196,fixationPoint,510.019,510.123,510.123,513.021,35.84,10240,616.96,s,1,2.872,,513.021,513.22,,,,,,,,82,-163,-171,220,215,79,208,73,172,-70,72,-24,73,-172,116,71,-114,27,-74,114,-128,-80,-218,-17,-162,90,180,360,90,360,180,90,180,270,180,270,,,,,,,,,,,513.22,513.22,,0,8,8,8,1,9,novel,,,,,,,,,,,,,,,,,,,,,,,,,,,,,,,,,,,,,,,,,,,,,,,,,
,,25,7,${e://Field/PROLIFIC_PID,M,41,2023-11-03_21h49.55.035,MouseEye_CC,2023.2.2,Win32,62.5,1.28,,,1401,790,53.07899999999999,5.26,"491.2, 350.55, 427.22, 359.16, 309.08, 444.87, 355.96",965,9.264973913,48.73376278,27.83653633,Passed,163.2581053,,,,,,,,,,,,,,,,,,,,,training,1,10,0,left,a,,,,,513.22,513.387,35.84,-4.18182373,3.409088135,1,0,0,0.166,fixationPoint,513.387,513.486,513.486,520.103,35.84,10240,616.96,a,1,6.587,,520.103,520.303,,,,,,,,5,-30,218,68,127,165,222,220,215,-165,-215,-163,-171,-68,-176,114,-128,210,-16,116,-24,-70,72,-220,24,90,180,180,270,270,180,270,270,360,360,180,,,,,,,,,,,520.303,520.303,,0,9,9,9,1,15,novel,,,,,,,,,,,,,,,,,,,,,,,,,,,,,,,,,,,,,,,,,,,,,,,,,
,,25,7,${e://Field/PROLIFIC_PID,M,41,2023-11-03_21h49.55.035,MouseEye_CC,2023.2.2,Win32,62.5,1.28,,,1401,790,53.07899999999999,5.26,"491.2, 350.55, 427.22, 359.16, 309.08, 444.87, 355.96",965,9.264973913,48.73376278,27.83653633,Passed,163.2581053,,,,,,,,,,,,,,,,,,,,,training,1,11,180,right,s,,,,,520.304,520.67,35.84,-4.18182373,3.409088135,1,0,0,0.366,fixationPoint,520.67,520.77,520.77,523.672,35.84,10240,616.96,s,1,2.876,,523.672,523.87,,,,,,,,62,-166,-77,73,172,29,161,29,23,-126,164,-212,64,-75,29,210,-16,28,-215,64,-208,-208,-27,-80,-218,360,270,270,180,180,270,270,180,270,360,90,,,,,,,,,,,523.87,523.87,,0,10,10,10,1,6,repeated,,,,,,,,,,,,,,,,,,,,,,,,,,,,,,,,,,,,,,,,,,,,,,,,,
,,25,7,${e://Field/PROLIFIC_PID,M,41,2023-11-03_21h49.55.035,MouseEye_CC,2023.2.2,Win32,62.5,1.28,,,1401,790,53.07899999999999,5.26,"491.2, 350.55, 427.22, 359.16, 309.08, 444.87, 355.96",965,9.264973913,48.73376278,27.83653633,Passed,163.2581053,,,,,,,,,,,,,,,,,,,,,training,1,12,180,right,s,,,,,523.87,524.056,35.84,-4.18182373,3.409088135,1,0,0,0.186,fixationPoint,524.056,524.154,524.154,528.554,35.84,10240,616.96,s,1,4.383,,528.554,528.753,,,,,,,,53,-128,-18,27,65,168,64,165,23,-217,210,-119,212,-170,217,175,-117,64,-208,27,-74,-17,-162,-68,-176,180,180,90,360,270,180,180,360,180,90,180,,,,,,,,,,,528.753,528.754,,0,11,11,11,1,5,repeated,,,,,,,,,,,,,,,,,,,,,,,,,,,,,,,,,,,,,,,,,,,,,,,,,
,,25,7,${e://Field/PROLIFIC_PID,M,41,2023-11-03_21h49.55.035,MouseEye_CC,2023.2.2,Win32,62.5,1.28,,,1401,790,53.07899999999999,5.26,"491.2, 350.55, 427.22, 359.16, 309.08, 444.87, 355.96",965,9.264973913,48.73376278,27.83653633,Passed,163.2581053,,,,,,,,,,,,,,,,,,,,,training,1,13,0,left,a,,,,,528.754,529.203,35.84,-4.18182373,3.409088135,1,0,0,0.448,fixationPoint,529.204,529.303,529.303,534.788,35.84,10240,616.96,a,1,5.46,,534.788,534.988,,,,,,,,88,126,-169,73,172,220,127,64,72,-213,124,-113,19,-217,210,-31,-24,-80,-218,-163,-171,208,-174,27,-74,180,180,360,180,180,360,180,180,180,270,360,,,,,,,,,,,534.988,534.988,,0,12,12,12,1,12,novel,,,,,,,,,,,,,,,,,,,,,,,,,,,,,,,,,,,,,,,,,,,,,,,,,
,,25,7,${e://Field/PROLIFIC_PID,M,41,2023-11-03_21h49.55.035,MouseEye_CC,2023.2.2,Win32,62.5,1.28,,,1401,790,53.07899999999999,5.26,"491.2, 350.55, 427.22, 359.16, 309.08, 444.87, 355.96",965,9.264973913,48.73376278,27.83653633,Passed,163.2581053,,,,,,,,,,,,,,,,,,,,,training,1,14,0,left,a,,,,,534.988,535.303,35.84,-4.18182373,3.409088135,1,0,0,0.315,fixationPoint,535.303,535.404,535.404,538.71,35.84,10240,616.96,a,1,3.286,,538.71,538.906,,,,,,,,13,-126,164,120,114,221,32,64,72,-72,-80,-210,-224,-24,-71,175,-117,64,-68,17,-115,-213,170,-172,116,180,90,360,270,180,360,180,180,270,180,360,,,,,,,,,,,538.906,538.906,,0,13,13,13,1,4,repeated,,,,,,,,,,,,,,,,,,,,,,,,,,,,,,,,,,,,,,,,,,,,,,,,,
,,25,7,${e://Field/PROLIFIC_PID,M,41,2023-11-03_21h49.55.035,MouseEye_CC,2023.2.2,Win32,62.5,1.28,,,1401,790,53.07899999999999,5.26,"491.2, 350.55, 427.22, 359.16, 309.08, 444.87, 355.96",965,9.264973913,48.73376278,27.83653633,Passed,163.2581053,,,,,,,,,,,,,,,,,,,,,training,1,15,180,right,s,,,,,538.907,539.137,35.84,-4.18182373,3.409088135,1,0,0,0.23,fixationPoint,539.138,539.238,539.238,543.637,35.84,10240,616.96,s,1,4.387,,543.637,543.836,,,,,,,,33,-116,68,27,65,165,174,215,74,-71,-113,-17,-162,-166,-77,120,-78,114,-128,28,-215,-26,27,-75,29,180,360,270,180,270,270,270,270,270,180,270,,,,,,,,,,,543.836,543.836,,0,14,14,14,1,3,repeated,,,,,,,,,,,,,,,,,,,,,,,,,,,,,,,,,,,,,,,,,,,,,,,,,
,,25,7,${e://Field/PROLIFIC_PID,M,41,2023-11-03_21h49.55.035,MouseEye_CC,2023.2.2,Win32,62.5,1.28,,,1401,790,53.07899999999999,5.26,"491.2, 350.55, 427.22, 359.16, 309.08, 444.87, 355.96",965,9.264973913,48.73376278,27.83653633,Passed,163.2581053,,,,,,,,,,,,,,,,,,,,,training,1,16,180,right,s,,,,,543.836,544.02,35.84,-4.18182373,3.409088135,1,0,0,0.184,fixationPoint,544.02,544.121,544.121,547.47,35.84,10240,616.96,s,1,3.332,,547.47,547.671,,,,,,,,22,-172,116,165,222,29,214,220,215,-71,-113,-120,-165,-72,-80,120,-219,126,-169,64,-208,-217,210,-176,168,90,90,180,270,270,90,360,270,360,270,270,,,,,,,,,,,547.671,555.889,space,0,15,15,15,1,16,novel,8.202,,,,,,,,,,,,,,,,,,,,,,,,,,,,,,,,,,,,,,,,,,,,,,,,
,,25,7,${e://Field/PROLIFIC_PID,M,41,2023-11-03_21h49.55.035,MouseEye_CC,2023.2.2,Win32,62.5,1.28,,,1401,790,53.07899999999999,5.26,"491.2, 350.55, 427.22, 359.16, 309.08, 444.87, 355.96",965,9.264973913,48.73376278,27.83653633,Passed,163.2581053,,,,,,,,,,,,,,,,,,,,,training,2,1,180,right,s,,,,,555.9,556.836,35.84,-4.18182373,3.409088135,1,0,0,0.936,fixationPoint,556.836,556.942,556.942,560.406,35.84,10240,616.96,s,1,3.461,,560.406,560.605,,,,,,,,88,126,-169,127,220,27,65,220,215,-77,115,-213,124,-20,120,-72,-80,-114,-116,-163,-171,71,-114,32,-29,270,90,90,270,90,180,360,180,270,180,90,,,,,,,,,,,560.605,560.606,,0,16,16,16,1,12,novel,,,,,,,,,,,,,,,,,,,,,,,,,,,,,,,,,,,,,,,,,,,,,,,,,
,,25,7,${e://Field/PROLIFIC_PID,M,41,2023-11-03_21h49.55.035,MouseEye_CC,2023.2.2,Win32,62.5,1.28,,,1401,790,53.07899999999999,5.26,"491.2, 350.55, 427.22, 359.16, 309.08, 444.87, 355.96",965,9.264973913,48.73376278,27.83653633,Passed,163.2581053,,,,,,,,,,,,,,,,,,,,,training,2,2,180,right,s,,,,,560.606,560.788,35.84,-4.18182373,3.409088135,1,0,0,0.182,fixationPoint,560.789,560.887,560.887,566.555,35.84,10240,616.96,s,1,5.651,,566.555,566.754,,,,,,,,53,-128,-18,27,65,168,64,165,23,-217,210,-119,212,-170,217,175,-117,64,-208,27,-74,-17,-162,-68,-176,180,180,90,270,90,180,180,270,90,270,90,,,,,,,,,,,566.754,566.754,,0,17,17,17,1,5,repeated,,,,,,,,,,,,,,,,,,,,,,,,,,,,,,,,,,,,,,,,,,,,,,,,,
,,25,7,${e://Field/PROLIFIC_PID,M,41,2023-11-03_21h49.55.035,MouseEye_CC,2023.2.2,Win32,62.5,1.28,,,1401,790,53.07899999999999,5.26,"491.2, 350.55, 427.22, 359.16, 309.08, 444.87, 355.96",965,9.264973913,48.73376278,27.83653633,Passed,163.2581053,,,,,,,,,,,,,,,,,,,,,training,2,3,0,left,a,,,,,566.755,566.922,35.84,-4.18182373,3.409088135,1,0,0,0.167,fixationPoint,566.922,567.023,567.023,570.072,35.84,10240,616.96,a,1,3.033,,570.072,570.271,,,,,,,,19,165,174,-79,220,-24,73,-66,160,-172,-124,-80,-218,-17,-162,169,-32,120,-219,163,-165,116,28,160,116,360,270,90,360,360,180,90,90,270,360,90,,,,,,,,,,,570.271,570.271,,0,18,18,18,1,1,repeated,,,,,,,,,,,,,,,,,,,,,,,,,,,,,,,,,,,,,,,,,,,,,,,,,
,,25,7,${e://Field/PROLIFIC_PID,M,41,2023-11-03_21h49.55.035,MouseEye_CC,2023.2.2,Win32,62.5,1.28,,,1401,790,53.07899999999999,5.26,"491.2, 350.55, 427.22, 359.16, 309.08, 444.87, 355.96",965,9.264973913,48.73376278,27.83653633,Passed,163.2581053,,,,,,,,,,,,,,,,,,,,,training,2,4,0,left,a,,,,,570.271,570.606,35.84,-4.18182373,3.409088135,1,0,0,0.335,fixationPoint,570.606,570.704,570.704,573.45,35.84,10240,616.96,a,1,2.724,,573.45,573.654,,,,,,,,94,-80,-218,73,172,29,161,79,208,-79,220,-77,115,-70,72,28,-215,175,-117,176,-74,-166,-77,-68,-176,180,180,90,270,360,90,270,90,360,270,270,,,,,,,,,,,573.654,573.654,,0,19,19,19,1,10,novel,,,,,,,,,,,,,,,,,,,,,,,,,,,,,,,,,,,,,,,,,,,,,,,,,
,,25,7,${e://Field/PROLIFIC_PID,M,41,2023-11-03_21h49.55.035,MouseEye_CC,2023.2.2,Win32,62.5,1.28,,,1401,790,53.07899999999999,5.26,"491.2, 350.55, 427.22, 359.16, 309.08, 444.87, 355.96",965,9.264973913,48.73376278,27.83653633,Passed,163.2581053,,,,,,,,,,,,,,,,,,,,,training,2,5,180,right,s,,,,,573.654,573.938,35.84,-4.18182373,3.409088135,1,0,0,0.284,fixationPoint,573.938,574.037,574.037,575.739,35.84,10240,616.96,s,1,1.685,,575.739,575.937,,,,,,,,79,175,-117,29,214,64,72,124,76,-176,168,-213,170,-26,27,-165,-215,-26,-117,-24,-71,215,-113,208,-174,270,270,90,180,270,90,180,360,90,90,180,,,,,,,,,,,575.937,575.937,,0,20,20,20,1,8,repeated,,,,,,,,,,,,,,,,,,,,,,,,,,,,,,,,,,,,,,,,,,,,,,,,,
,,25,7,${e://Field/PROLIFIC_PID,M,41,2023-11-03_21h49.55.035,MouseEye_CC,2023.2.2,Win32,62.5,1.28,,,1401,790,53.07899999999999,5.26,"491.2, 350.55, 427.22, 359.16, 309.08, 444.87, 355.96",965,9.264973913,48.73376278,27.83653633,Passed,163.2581053,,,,,,,,,,,,,,,,,,,,,training,2,6,0,left,a,,,,,575.938,576.22,35.84,-4.18182373,3.409088135,1,0,0,0.282,fixationPoint,576.22,576.324,576.324,577.77,35.84,10240,616.96,a,1,1.427,,577.77,577.97,,,,,,,,22,-172,116,168,64,220,127,160,116,-221,-163,-70,-19,-124,-64,215,-220,17,-115,163,-165,-176,168,-77,115,180,270,360,180,180,180,360,180,360,180,270,,,,,,,,,,,577.97,577.971,,0,21,21,21,1,16,novel,,,,,,,,,,,,,,,,,,,,,,,,,,,,,,,,,,,,,,,,,,,,,,,,,
,,25,7,${e://Field/PROLIFIC_PID,M,41,2023-11-03_21h49.55.035,MouseEye_CC,2023.2.2,Win32,62.5,1.28,,,1401,790,53.07899999999999,5.26,"491.2, 350.55, 427.22, 359.16, 309.08, 444.87, 355.96",965,9.264973913,48.73376278,27.83653633,Passed,163.2581053,,,,,,,,,,,,,,,,,,,,,training,2,7,180,right,s,,,,,577.972,578.153,35.84,-4.18182373,3.409088135,1,0,0,0.181,fixationPoint,578.153,578.256,578.256,579.521,35.84,10240,616.96,s,1,1.238,,579.521,579.72,,,,,,,,33,-116,68,27,65,165,174,215,74,-71,-113,-17,-162,-166,-77,120,-78,114,-128,28,-215,-26,27,-75,29,180,90,90,180,270,270,180,180,90,90,180,,,,,,,,,,,579.72,579.72,,0,22,22,22,1,3,repeated,,,,,,,,,,,,,,,,,,,,,,,,,,,,,,,,,,,,,,,,,,,,,,,,,
,,25,7,${e://Field/PROLIFIC_PID,M,41,2023-11-03_21h49.55.035,MouseEye_CC,2023.2.2,Win32,62.5,1.28,,,1401,790,53.07899999999999,5.26,"491.2, 350.55, 427.22, 359.16, 309.08, 444.87, 355.96",965,9.264973913,48.73376278,27.83653633,Passed,163.2581053,,,,,,,,,,,,,,,,,,,,,training,2,8,0,left,a,,,,,579.72,580.003,35.84,-4.18182373,3.409088135,1,0,0,0.283,fixationPoint,580.003,580.104,580.104,581.905,35.84,10240,616.96,a,1,1.784,,581.905,582.104,,,,,,,,62,-166,-77,73,172,29,161,29,23,-126,164,-212,64,-75,29,210,-16,28,-215,64,-208,-208,-27,-80,-218,180,270,360,90,270,180,270,180,90,360,360,,,,,,,,,,,582.104,582.104,,0,23,23,23,1,6,repeated,,,,,,,,,,,,,,,,,,,,,,,,,,,,,,,,,,,,,,,,,,,,,,,,,
,,25,7,${e://Field/PROLIFIC_PID,M,41,2023-11-03_21h49.55.035,MouseEye_CC,2023.2.2,Win32,62.5,1.28,,,1401,790,53.07899999999999,5.26,"491.2, 350.55, 427.22, 359.16, 309.08, 444.87, 355.96",965,9.264973913,48.73376278,27.83653633,Passed,163.2581053,,,,,,,,,,,,,,,,,,,,,training,2,9,0,left,a,,,,,582.104,582.253,35.84,-4.18182373,3.409088135,1,0,0,0.149,fixationPoint,582.253,582.353,582.353,584.038,35.84,10240,616.96,a,1,1.674,,584.038,584.237,,,,,,,,48,116,28,-162,80,-16,170,-113,19,-124,-221,-17,-162,-26,-117,163,-165,215,-220,114,-128,29,214,124,162,360,360,360,360,90,180,90,270,90,180,90,,,,,,,,,,,584.237,584.238,,0,24,24,24,1,13,novel,,,,,,,,,,,,,,,,,,,,,,,,,,,,,,,,,,,,,,,,,,,,,,,,,
,,25,7,${e://Field/PROLIFIC_PID,M,41,2023-11-03_21h49.55.035,MouseEye_CC,2023.2.2,Win32,62.5,1.28,,,1401,790,53.07899999999999,5.26,"491.2, 350.55, 427.22, 359.16, 309.08, 444.87, 355.96",965,9.264973913,48.73376278,27.83653633,Passed,163.2581053,,,,,,,,,,,,,,,,,,,,,training,2,10,0,left,a,,,,,584.238,584.589,35.84,-4.18182373,3.409088135,1,0,0,0.351,fixationPoint,584.589,584.687,584.687,587.957,35.84,10240,616.96,a,1,3.254,,587.958,588.155,,,,,,,,68,120,-78,221,32,127,220,124,162,-162,80,-66,160,-172,116,-172,-124,-128,-18,-26,-117,17,-115,215,-220,180,180,270,270,90,360,360,90,360,180,90,,,,,,,,,,,588.155,588.155,,0,25,25,25,1,11,novel,,,,,,,,,,,,,,,,,,,,,,,,,,,,,,,,,,,,,,,,,,,,,,,,,
,,25,7,${e://Field/PROLIFIC_PID,M,41,2023-11-03_21h49.55.035,MouseEye_CC,2023.2.2,Win32,62.5,1.28,,,1401,790,53.07899999999999,5.26,"491.2, 350.55, 427.22, 359.16, 309.08, 444.87, 355.96",965,9.264973913,48.73376278,27.83653633,Passed,163.2581053,,,,,,,,,,,,,,,,,,,,,training,2,11,180,right,s,,,,,588.155,588.487,35.84,-4.18182373,3.409088135,1,0,0,0.332,fixationPoint,588.487,588.588,588.588,590.904,35.84,10240,616.96,s,1,2.3,,590.904,591.104,,,,,,,,5,-30,218,73,172,27,65,165,222,-208,-27,-172,-32,-24,-71,120,-219,126,-169,68,-172,-213,170,-176,168,90,90,90,90,270,360,90,360,180,270,360,,,,,,,,,,,591.104,591.104,,0,26,26,26,1,15,novel,,,,,,,,,,,,,,,,,,,,,,,,,,,,,,,,,,,,,,,,,,,,,,,,,
,,25,7,${e://Field/PROLIFIC_PID,M,41,2023-11-03_21h49.55.035,MouseEye_CC,2023.2.2,Win32,62.5,1.28,,,1401,790,53.07899999999999,5.26,"491.2, 350.55, 427.22, 359.16, 309.08, 444.87, 355.96",965,9.264973913,48.73376278,27.83653633,Passed,163.2581053,,,,,,,,,,,,,,,,,,,,,training,2,12,180,right,s,,,,,591.104,591.304,35.84,-4.18182373,3.409088135,1,0,0,0.2,fixationPoint,591.304,591.415,591.415,593.907,35.84,10240,616.96,s,1,2.487,,593.907,594.104,,,,,,,,82,-163,-171,224,175,124,162,29,161,-16,170,-213,170,-217,210,215,-220,208,-174,210,-16,-31,-24,-214,-118,90,90,360,360,90,270,90,90,360,90,270,,,,,,,,,,,594.104,594.104,,0,27,27,27,1,9,novel,,,,,,,,,,,,,,,,,,,,,,,,,,,,,,,,,,,,,,,,,,,,,,,,,
,,25,7,${e://Field/PROLIFIC_PID,M,41,2023-11-03_21h49.55.035,MouseEye_CC,2023.2.2,Win32,62.5,1.28,,,1401,790,53.07899999999999,5.26,"491.2, 350.55, 427.22, 359.16, 309.08, 444.87, 355.96",965,9.264973913,48.73376278,27.83653633,Passed,163.2581053,,,,,,,,,,,,,,,,,,,,,training,2,13,180,right,s,,,,,594.105,594.222,35.84,-4.18182373,3.409088135,1,0,0,0.117,fixationPoint,594.222,594.321,594.321,596.59,35.84,10240,616.96,s,1,2.252,,596.59,596.787,,,,,,,,13,-126,164,120,114,221,32,64,72,-72,-80,-210,-224,-24,-71,175,-117,64,-68,17,-115,-213,170,-172,116,180,90,180,360,270,270,180,90,90,270,270,,,,,,,,,,,596.787,596.787,,0,28,28,28,1,4,repeated,,,,,,,,,,,,,,,,,,,,,,,,,,,,,,,,,,,,,,,,,,,,,,,,,
,,25,7,${e://Field/PROLIFIC_PID,M,41,2023-11-03_21h49.55.035,MouseEye_CC,2023.2.2,Win32,62.5,1.28,,,1401,790,53.07899999999999,5.26,"491.2, 350.55, 427.22, 359.16, 309.08, 444.87, 355.96",965,9.264973913,48.73376278,27.83653633,Passed,163.2581053,,,,,,,,,,,,,,,,,,,,,training,2,14,0,left,a,,,,,596.787,596.887,35.84,-4.18182373,3.409088135,1,0,0,0.1,fixationPoint,596.887,596.988,596.988,600.856,35.84,10240,616.96,a,1,3.863,,600.856,601.056,,,,,,,,96,28,-215,22,117,165,23,215,74,-213,170,-170,217,-220,24,-71,-113,-80,-218,-124,-64,215,-113,71,-114,360,360,270,270,270,180,270,360,180,270,180,,,,,,,,,,,601.056,601.056,,0,29,29,29,1,7,repeated,,,,,,,,,,,,,,,,,,,,,,,,,,,,,,,,,,,,,,,,,,,,,,,,,
,,25,7,${e://Field/PROLIFIC_PID,M,41,2023-11-03_21h49.55.035,MouseEye_CC,2023.2.2,Win32,62.5,1.28,,,1401,790,53.07899999999999,5.26,"491.2, 350.55, 427.22, 359.16, 309.08, 444.87, 355.96",965,9.264973913,48.73376278,27.83653633,Passed,163.2581053,,,,,,,,,,,,,,,,,,,,,training,2,15,180,right,s,,,,,601.057,601.191,35.84,-4.18182373,3.409088135,1,0,0,0.134,fixationPoint,601.191,601.287,601.288,604.106,35.84,10240,616.96,s,1,2.799,,604.106,604.305,,,,,,,,39,168,64,-212,64,-126,164,-217,210,-210,-224,-31,-24,-24,-71,210,-16,120,-78,27,-74,220,215,27,65,270,360,270,180,270,180,180,180,270,270,360,,,,,,,,,,,604.305,604.305,,0,30,30,30,1,14,novel,,,,,,,,,,,,,,,,,,,,,,,,,,,,,,,,,,,,,,,,,,,,,,,,,
,,25,7,${e://Field/PROLIFIC_PID,M,41,2023-11-03_21h49.55.035,MouseEye_CC,2023.2.2,Win32,62.5,1.28,,,1401,790,53.07899999999999,5.26,"491.2, 350.55, 427.22, 359.16, 309.08, 444.87, 355.96",965,9.264973913,48.73376278,27.83653633,Passed,163.2581053,,,,,,,,,,,,,,,,,,,,,training,2,16,0,left,a,,,,,604.305,604.422,35.84,-4.18182373,3.409088135,1,0,0,0.117,fixationPoint,604.422,604.521,604.521,605.789,35.84,10240,616.96,a,1,1.25,,605.789,605.994,,,,,,,,7,79,208,-30,218,-20,120,-77,115,-172,-32,-172,-124,-68,-176,215,-220,116,-24,165,-217,29,161,220,215,270,180,180,270,360,90,360,360,270,180,180,,,,,,,,,,,605.995,679.888,space,0,31,31,31,1,2,repeated,73.867,,,,,,,,,,,,,,,,,,,,,,,,,,,,,,,,,,,,,,,,,,,,,,,,
,,25,7,${e://Field/PROLIFIC_PID,M,41,2023-11-03_21h49.55.035,MouseEye_CC,2023.2.2,Win32,62.5,1.28,,,1401,790,53.07899999999999,5.26,"491.2, 350.55, 427.22, 359.16, 309.08, 444.87, 355.96",965,9.264973913,48.73376278,27.83653633,Passed,163.2581053,,,,,,,,,,,,,,,,,,,,,training,3,1,180,right,s,,,,,679.893,681.493,35.84,-4.18182373,3.409088135,1,0,0,1.6,fixationPoint,681.494,681.587,681.588,685.141,35.84,10240,616.96,s,1,3.537,,685.141,685.341,,,,,,,,94,-80,-218,165,222,127,220,27,65,-162,80,-164,29,-77,115,169,-32,215,-113,120,-219,-128,-18,-172,-32,180,270,360,180,90,270,180,360,360,90,180,,,,,,,,,,,685.341,685.341,,0,32,32,32,1,10,novel,,,,,,,,,,,,,,,,,,,,,,,,,,,,,,,,,,,,,,,,,,,,,,,,,
,,25,7,${e://Field/PROLIFIC_PID,M,41,2023-11-03_21h49.55.035,MouseEye_CC,2023.2.2,Win32,62.5,1.28,,,1401,790,53.07899999999999,5.26,"491.2, 350.55, 427.22, 359.16, 309.08, 444.87, 355.96",965,9.264973913,48.73376278,27.83653633,Passed,163.2581053,,,,,,,,,,,,,,,,,,,,,training,3,2,180,right,s,,,,,685.341,686.205,35.84,-4.18182373,3.409088135,1,0,0,0.864,fixationPoint,686.205,686.31,686.31,689.138,35.84,10240,616.96,s,1,2.815,,689.138,689.327,,,,,,,,88,126,-169,220,215,160,116,224,175,-212,64,-162,80,-126,164,-163,-171,-80,-218,-114,-116,71,-114,176,-74,180,180,180,90,360,360,360,270,180,180,360,,,,,,,,,,,689.327,689.327,,0,33,33,33,1,12,novel,,,,,,,,,,,,,,,,,,,,,,,,,,,,,,,,,,,,,,,,,,,,,,,,,
,,25,7,${e://Field/PROLIFIC_PID,M,41,2023-11-03_21h49.55.035,MouseEye_CC,2023.2.2,Win32,62.5,1.28,,,1401,790,53.07899999999999,5.26,"491.2, 350.55, 427.22, 359.16, 309.08, 444.87, 355.96",965,9.264973913,48.73376278,27.83653633,Passed,163.2581053,,,,,,,,,,,,,,,,,,,,,training,3,3,0,left,a,,,,,689.327,689.551,35.84,-4.18182373,3.409088135,1,0,0,0.224,fixationPoint,689.551,689.64,689.64,691.588,35.84,10240,616.96,a,1,1.933,,691.588,691.79,,,,,,,,62,-166,-77,73,172,29,161,29,23,-126,164,-212,64,-75,29,210,-16,28,-215,64,-208,-208,-27,-80,-218,270,360,180,90,90,180,90,180,90,180,360,,,,,,,,,,,691.79,691.79,,0,34,34,34,1,6,repeated,,,,,,,,,,,,,,,,,,,,,,,,,,,,,,,,,,,,,,,,,,,,,,,,,
,,25,7,${e://Field/PROLIFIC_PID,M,41,2023-11-03_21h49.55.035,MouseEye_CC,2023.2.2,Win32,62.5,1.28,,,1401,790,53.07899999999999,5.26,"491.2, 350.55, 427.22, 359.16, 309.08, 444.87, 355.96",965,9.264973913,48.73376278,27.83653633,Passed,163.2581053,,,,,,,,,,,,,,,,,,,,,training,3,4,0,left,a,,,,,691.79,691.997,35.84,-4.18182373,3.409088135,1,0,0,0.207,fixationPoint,691.997,692.089,692.089,695.999,35.84,10240,616.96,a,1,3.882,,695.999,696.188,,,,,,,,33,-116,68,27,65,165,174,215,74,-71,-113,-17,-162,-166,-77,120,-78,114,-128,28,-215,-26,27,-75,29,270,270,270,180,360,360,90,360,180,180,270,,,,,,,,,,,696.188,696.188,,0,35,35,35,1,3,repeated,,,,,,,,,,,,,,,,,,,,,,,,,,,,,,,,,,,,,,,,,,,,,,,,,
,,25,7,${e://Field/PROLIFIC_PID,M,41,2023-11-03_21h49.55.035,MouseEye_CC,2023.2.2,Win32,62.5,1.28,,,1401,790,53.07899999999999,5.26,"491.2, 350.55, 427.22, 359.16, 309.08, 444.87, 355.96",965,9.264973913,48.73376278,27.83653633,Passed,163.2581053,,,,,,,,,,,,,,,,,,,,,training,3,5,0,left,a,,,,,696.188,696.355,35.84,-4.18182373,3.409088135,1,0,0,0.167,fixationPoint,696.355,696.459,696.459,700.366,35.84,10240,616.96,a,1,3.88,,700.366,700.572,,,,,,,,53,-128,-18,27,65,168,64,165,23,-217,210,-119,212,-170,217,175,-117,64,-208,27,-74,-17,-162,-68,-176,270,360,180,180,360,270,360,360,360,90,90,,,,,,,,,,,700.572,700.572,,0,36,36,36,1,5,repeated,,,,,,,,,,,,,,,,,,,,,,,,,,,,,,,,,,,,,,,,,,,,,,,,,
,,25,7,${e://Field/PROLIFIC_PID,M,41,2023-11-03_21h49.55.035,MouseEye_CC,2023.2.2,Win32,62.5,1.28,,,1401,790,53.07899999999999,5.26,"491.2, 350.55, 427.22, 359.16, 309.08, 444.87, 355.96",965,9.264973913,48.73376278,27.83653633,Passed,163.2581053,,,,,,,,,,,,,,,,,,,,,training,3,6,0,left,a,,,,,700.572,700.671,35.84,-4.18182373,3.409088135,1,0,0,0.099,fixationPoint,700.671,700.773,700.773,705.694,35.84,10240,616.96,a,1,4.905,,705.694,705.888,,,,,,,,5,-30,218,165,23,124,162,67,17,-114,-116,-210,-224,-165,-215,120,-219,68,-172,169,-32,-116,68,-70,72,270,180,360,360,270,270,90,180,90,270,360,,,,,,,,,,,705.888,705.888,,0,37,37,37,1,15,novel,,,,,,,,,,,,,,,,,,,,,,,,,,,,,,,,,,,,,,,,,,,,,,,,,
,,25,7,${e://Field/PROLIFIC_PID,M,41,2023-11-03_21h49.55.035,MouseEye_CC,2023.2.2,Win32,62.5,1.28,,,1401,790,53.07899999999999,5.26,"491.2, 350.55, 427.22, 359.16, 309.08, 444.87, 355.96",965,9.264973913,48.73376278,27.83653633,Passed,163.2581053,,,,,,,,,,,,,,,,,,,,,training,3,7,180,right,s,,,,,705.889,706.405,35.84,-4.18182373,3.409088135,1,0,0,0.516,fixationPoint,706.405,706.506,706.506,709.938,35.84,10240,616.96,s,1,3.408,,709.938,710.139,,,,,,,,82,-163,-171,29,23,73,172,165,174,-176,168,-79,220,-213,170,64,-24,68,-172,214,-74,-208,-27,-172,-124,90,270,90,180,180,270,270,360,270,270,360,,,,,,,,,,,710.139,710.139,,0,38,38,38,1,9,novel,,,,,,,,,,,,,,,,,,,,,,,,,,,,,,,,,,,,,,,,,,,,,,,,,
,,25,7,${e://Field/PROLIFIC_PID,M,41,2023-11-03_21h49.55.035,MouseEye_CC,2023.2.2,Win32,62.5,1.28,,,1401,790,53.07899999999999,5.26,"491.2, 350.55, 427.22, 359.16, 309.08, 444.87, 355.96",965,9.264973913,48.73376278,27.83653633,Passed,163.2581053,,,,,,,,,,,,,,,,,,,,,training,3,8,180,right,s,,,,,710.139,710.374,35.84,-4.18182373,3.409088135,1,0,0,0.235,fixationPoint,710.374,710.47,710.47,713.128,35.84,10240,616.96,s,1,2.634,,713.128,713.322,,,,,,,,7,79,208,-30,218,-20,120,-77,115,-172,-32,-172,-124,-68,-176,215,-220,116,-24,165,-217,29,161,220,215,270,270,180,360,180,360,270,90,270,180,270,,,,,,,,,,,713.322,713.322,,0,39,39,39,1,2,repeated,,,,,,,,,,,,,,,,,,,,,,,,,,,,,,,,,,,,,,,,,,,,,,,,,
,,25,7,${e://Field/PROLIFIC_PID,M,41,2023-11-03_21h49.55.035,MouseEye_CC,2023.2.2,Win32,62.5,1.28,,,1401,790,53.07899999999999,5.26,"491.2, 350.55, 427.22, 359.16, 309.08, 444.87, 355.96",965,9.264973913,48.73376278,27.83653633,Passed,163.2581053,,,,,,,,,,,,,,,,,,,,,training,3,9,0,left,a,,,,,713.322,713.725,35.84,-4.18182373,3.409088135,1,0,0,0.403,fixationPoint,713.725,713.822,713.822,716.322,35.84,10240,616.96,a,1,2.485,,716.322,716.524,,,,,,,,79,175,-117,29,214,64,72,124,76,-176,168,-213,170,-26,27,-165,-215,-26,-117,-24,-71,215,-113,208,-174,360,180,180,180,180,90,270,180,360,180,180,,,,,,,,,,,716.524,716.525,,0,40,40,40,1,8,repeated,,,,,,,,,,,,,,,,,,,,,,,,,,,,,,,,,,,,,,,,,,,,,,,,,
,,25,7,${e://Field/PROLIFIC_PID,M,41,2023-11-03_21h49.55.035,MouseEye_CC,2023.2.2,Win32,62.5,1.28,,,1401,790,53.07899999999999,5.26,"491.2, 350.55, 427.22, 359.16, 309.08, 444.87, 355.96",965,9.264973913,48.73376278,27.83653633,Passed,163.2581053,,,,,,,,,,,,,,,,,,,,,training,3,10,180,right,s,,,,,716.525,716.626,35.84,-4.18182373,3.409088135,1,0,0,0.101,fixationPoint,716.626,716.722,716.722,719.824,35.84,10240,616.96,s,1,3.084,,719.824,720.021,,,,,,,,39,168,64,-119,212,-213,170,-70,72,-124,-221,-114,-116,-128,-18,163,-165,25,-164,64,-208,124,76,79,208,360,90,180,360,180,270,360,270,180,180,270,,,,,,,,,,,720.021,720.021,,0,41,41,41,1,14,novel,,,,,,,,,,,,,,,,,,,,,,,,,,,,,,,,,,,,,,,,,,,,,,,,,
,,25,7,${e://Field/PROLIFIC_PID,M,41,2023-11-03_21h49.55.035,MouseEye_CC,2023.2.2,Win32,62.5,1.28,,,1401,790,53.07899999999999,5.26,"491.2, 350.55, 427.22, 359.16, 309.08, 444.87, 355.96",965,9.264973913,48.73376278,27.83653633,Passed,163.2581053,,,,,,,,,,,,,,,,,,,,,training,3,11,0,left,a,,,,,720.021,720.137,35.84,-4.18182373,3.409088135,1,0,0,0.116,fixationPoint,720.137,720.241,720.241,721.458,35.84,10240,616.96,a,1,1.201,,721.458,721.654,,,,,,,,19,165,174,-79,220,-24,73,-66,160,-172,-124,-80,-218,-17,-162,169,-32,120,-219,163,-165,116,28,160,116,270,360,180,90,90,180,90,90,90,90,90,,,,,,,,,,,721.654,721.654,,0,42,42,42,1,1,repeated,,,,,,,,,,,,,,,,,,,,,,,,,,,,,,,,,,,,,,,,,,,,,,,,,
,,25,7,${e://Field/PROLIFIC_PID,M,41,2023-11-03_21h49.55.035,MouseEye_CC,2023.2.2,Win32,62.5,1.28,,,1401,790,53.07899999999999,5.26,"491.2, 350.55, 427.22, 359.16, 309.08, 444.87, 355.96",965,9.264973913,48.73376278,27.83653633,Passed,163.2581053,,,,,,,,,,,,,,,,,,,,,training,3,12,180,right,s,,,,,721.655,721.804,35.84,-4.18182373,3.409088135,1,0,0,0.149,fixationPoint,721.804,721.904,721.904,724.287,35.84,10240,616.96,s,1,2.382,,724.287,724.487,,,,,,,,13,-126,164,120,114,221,32,64,72,-72,-80,-210,-224,-24,-71,175,-117,64,-68,17,-115,-213,170,-172,116,360,360,90,270,360,180,180,360,180,270,180,,,,,,,,,,,724.487,724.488,,0,43,43,43,1,4,repeated,,,,,,,,,,,,,,,,,,,,,,,,,,,,,,,,,,,,,,,,,,,,,,,,,
,,25,7,${e://Field/PROLIFIC_PID,M,41,2023-11-03_21h49.55.035,MouseEye_CC,2023.2.2,Win32,62.5,1.28,,,1401,790,53.07899999999999,5.26,"491.2, 350.55, 427.22, 359.16, 309.08, 444.87, 355.96",965,9.264973913,48.73376278,27.83653633,Passed,163.2581053,,,,,,,,,,,,,,,,,,,,,training,3,13,0,left,a,,,,,724.489,724.588,35.84,-4.18182373,3.409088135,1,0,0,0.099,fixationPoint,724.588,724.688,724.688,727.989,35.84,10240,616.96,a,1,3.283,,727.989,728.187,,,,,,,,96,28,-215,22,117,165,23,215,74,-213,170,-170,217,-220,24,-71,-113,-80,-218,-124,-64,215,-113,71,-114,360,90,90,360,180,360,360,270,270,90,180,,,,,,,,,,,728.187,728.187,,0,44,44,44,1,7,repeated,,,,,,,,,,,,,,,,,,,,,,,,,,,,,,,,,,,,,,,,,,,,,,,,,
,,25,7,${e://Field/PROLIFIC_PID,M,41,2023-11-03_21h49.55.035,MouseEye_CC,2023.2.2,Win32,62.5,1.28,,,1401,790,53.07899999999999,5.26,"491.2, 350.55, 427.22, 359.16, 309.08, 444.87, 355.96",965,9.264973913,48.73376278,27.83653633,Passed,163.2581053,,,,,,,,,,,,,,,,,,,,,training,3,14,0,left,a,,,,,728.187,728.321,35.84,-4.18182373,3.409088135,1,0,0,0.134,fixationPoint,728.321,728.42,728.42,729.654,35.84,10240,616.96,a,1,1.213,,729.654,729.854,,,,,,,,68,120,-78,168,64,68,127,160,116,-75,29,-30,218,-176,168,-128,-18,-224,-68,-80,-218,64,-68,163,-165,90,180,360,90,180,180,180,270,360,360,270,,,,,,,,,,,729.854,729.855,,0,45,45,45,1,11,novel,,,,,,,,,,,,,,,,,,,,,,,,,,,,,,,,,,,,,,,,,,,,,,,,,
,,25,7,${e://Field/PROLIFIC_PID,M,41,2023-11-03_21h49.55.035,MouseEye_CC,2023.2.2,Win32,62.5,1.28,,,1401,790,53.07899999999999,5.26,"491.2, 350.55, 427.22, 359.16, 309.08, 444.87, 355.96",965,9.264973913,48.73376278,27.83653633,Passed,163.2581053,,,,,,,,,,,,,,,,,,,,,training,3,15,180,right,s,,,,,729.855,730.004,35.84,-4.18182373,3.409088135,1,0,0,0.149,fixationPoint,730.004,730.104,730.104,732.987,35.84,10240,616.96,s,1,2.88,,732.987,733.188,,,,,,,,22,-172,116,165,222,79,208,73,172,-24,-216,-166,-77,-71,-113,214,-74,163,-165,126,-169,-70,72,-119,212,90,180,90,90,270,360,90,180,90,270,270,,,,,,,,,,,733.188,733.188,,0,46,46,46,1,16,novel,,,,,,,,,,,,,,,,,,,,,,,,,,,,,,,,,,,,,,,,,,,,,,,,,
,,25,7,${e://Field/PROLIFIC_PID,M,41,2023-11-03_21h49.55.035,MouseEye_CC,2023.2.2,Win32,62.5,1.28,,,1401,790,53.07899999999999,5.26,"491.2, 350.55, 427.22, 359.16, 309.08, 444.87, 355.96",965,9.264973913,48.73376278,27.83653633,Passed,163.2581053,,,,,,,,,,,,,,,,,,,,,training,3,16,180,right,s,,,,,733.188,733.253,35.84,-4.18182373,3.409088135,1,0,0,0.065,fixationPoint,733.254,733.354,733.354,735.638,35.84,10240,616.96,s,1,2.263,,735.638,735.838,,,,,,,,48,116,28,-79,220,-172,116,-127,116,-221,-163,-71,-113,-26,-117,17,-115,208,-174,169,-32,73,172,224,175,270,90,270,360,360,180,270,180,90,360,180,,,,,,,,,,,735.838,972.239,space,0,47,47,47,1,13,novel,236.379,,,,,,,,,,,,,,,,,,,,,,,,,,,,,,,,,,,,,,,,,,,,,,,,
,,25,7,${e://Field/PROLIFIC_PID,M,41,2023-11-03_21h49.55.035,MouseEye_CC,2023.2.2,Win32,62.5,1.28,,,1401,790,53.07899999999999,5.26,"491.2, 350.55, 427.22, 359.16, 309.08, 444.87, 355.96",965,9.264973913,48.73376278,27.83653633,Passed,163.2581053,,,,,,,,,,,,,,,,,,,,,training,4,1,180,right,s,,,,,972.245,973.839,35.84,-1.272705078,2.681762695,1,0,0,1.594,fixationPoint,973.839,973.939,973.939,977.472,35.84,10240,616.96,s,1,3.516,,977.472,977.672,,,,,,,,88,126,-169,168,64,79,208,73,172,-77,115,-172,116,-30,218,-17,-162,-72,-80,-26,-117,17,-115,68,-172,180,90,360,360,180,180,180,90,270,270,360,,,,,,,,,,,977.672,977.674,,0,48,48,48,1,12,novel,,,,,,,,,,,,,,,,,,,,,,,,,,,,,,,,,,,,,,,,,,,,,,,,,
,,25,7,${e://Field/PROLIFIC_PID,M,41,2023-11-03_21h49.55.035,MouseEye_CC,2023.2.2,Win32,62.5,1.28,,,1401,790,53.07899999999999,5.26,"491.2, 350.55, 427.22, 359.16, 309.08, 444.87, 355.96",965,9.264973913,48.73376278,27.83653633,Passed,163.2581053,,,,,,,,,,,,,,,,,,,,,training,4,2,180,right,s,,,,,977.674,977.854,35.84,-1.272705078,2.681762695,1,0,0,0.18,fixationPoint,977.854,977.955,977.955,980.155,35.84,10240,616.96,s,1,2.188,,980.155,980.354,,,,,,,,13,-126,164,120,114,221,32,64,72,-72,-80,-210,-224,-24,-71,175,-117,64,-68,17,-115,-213,170,-172,116,360,180,270,270,270,180,270,180,180,360,270,,,,,,,,,,,980.354,980.354,,0,49,49,49,1,4,repeated,,,,,,,,,,,,,,,,,,,,,,,,,,,,,,,,,,,,,,,,,,,,,,,,,
,,25,7,${e://Field/PROLIFIC_PID,M,41,2023-11-03_21h49.55.035,MouseEye_CC,2023.2.2,Win32,62.5,1.28,,,1401,790,53.07899999999999,5.26,"491.2, 350.55, 427.22, 359.16, 309.08, 444.87, 355.96",965,9.264973913,48.73376278,27.83653633,Passed,163.2581053,,,,,,,,,,,,,,,,,,,,,training,4,3,0,left,a,,,,,980.356,980.621,35.84,-1.272705078,2.681762695,1,0,0,0.265,fixationPoint,980.621,980.711,980.711,982.705,35.84,10240,616.96,a,1,1.981,,982.705,982.905,,,,,,,,82,-163,-171,73,172,220,127,120,114,-126,164,-113,19,-20,120,175,-117,163,-165,64,-24,-124,-221,-172,-124,270,360,270,180,90,180,180,270,270,270,90,,,,,,,,,,,982.905,982.905,,0,50,50,50,1,9,novel,,,,,,,,,,,,,,,,,,,,,,,,,,,,,,,,,,,,,,,,,,,,,,,,,
,,25,7,${e://Field/PROLIFIC_PID,M,41,2023-11-03_21h49.55.035,MouseEye_CC,2023.2.2,Win32,62.5,1.28,,,1401,790,53.07899999999999,5.26,"491.2, 350.55, 427.22, 359.16, 309.08, 444.87, 355.96",965,9.264973913,48.73376278,27.83653633,Passed,163.2581053,,,,,,,,,,,,,,,,,,,,,training,4,4,180,right,s,,,,,982.905,983.407,35.84,-1.272705078,2.681762695,1,0,0,0.502,fixationPoint,983.407,983.506,983.506,985.758,35.84,10240,616.96,s,1,2.235,,985.758,985.948,,,,,,,,7,79,208,-30,218,-20,120,-77,115,-172,-32,-172,-124,-68,-176,215,-220,116,-24,165,-217,29,161,220,215,180,360,180,180,270,90,270,180,90,90,270,,,,,,,,,,,985.948,985.949,,0,51,51,51,1,2,repeated,,,,,,,,,,,,,,,,,,,,,,,,,,,,,,,,,,,,,,,,,,,,,,,,,
,,25,7,${e://Field/PROLIFIC_PID,M,41,2023-11-03_21h49.55.035,MouseEye_CC,2023.2.2,Win32,62.5,1.28,,,1401,790,53.07899999999999,5.26,"491.2, 350.55, 427.22, 359.16, 309.08, 444.87, 355.96",965,9.264973913,48.73376278,27.83653633,Passed,163.2581053,,,,,,,,,,,,,,,,,,,,,training,4,5,0,left,a,,,,,985.949,987.105,35.84,-1.272705078,2.681762695,1,0,0,1.156,fixationPoint,987.105,987.205,987.206,990.701,35.84,10240,616.96,a,1,3.468,,990.701,990.905,,,,,,,,33,-116,68,27,65,165,174,215,74,-71,-113,-17,-162,-166,-77,120,-78,114,-128,28,-215,-26,27,-75,29,90,360,180,360,360,360,90,360,90,270,270,,,,,,,,,,,990.905,990.905,,0,52,52,52,1,3,repeated,,,,,,,,,,,,,,,,,,,,,,,,,,,,,,,,,,,,,,,,,,,,,,,,,
,,25,7,${e://Field/PROLIFIC_PID,M,41,2023-11-03_21h49.55.035,MouseEye_CC,2023.2.2,Win32,62.5,1.28,,,1401,790,53.07899999999999,5.26,"491.2, 350.55, 427.22, 359.16, 309.08, 444.87, 355.96",965,9.264973913,48.73376278,27.83653633,Passed,163.2581053,,,,,,,,,,,,,,,,,,,,,training,4,6,0,left,a,,,,,990.905,991.016,35.84,-1.272705078,2.681762695,1,0,0,0.111,fixationPoint,991.016,991.106,991.106,993.305,35.84,10240,616.96,a,1,2.184,,993.305,993.506,,,,,,,,39,168,64,-70,72,-212,64,-170,217,-163,-171,-72,-80,-210,-224,210,-16,32,-29,68,-172,67,17,165,23,180,180,90,180,360,90,90,360,270,180,270,,,,,,,,,,,993.506,993.507,,0,53,53,53,1,14,novel,,,,,,,,,,,,,,,,,,,,,,,,,,,,,,,,,,,,,,,,,,,,,,,,,
,,25,7,${e://Field/PROLIFIC_PID,M,41,2023-11-03_21h49.55.035,MouseEye_CC,2023.2.2,Win32,62.5,1.28,,,1401,790,53.07899999999999,5.26,"491.2, 350.55, 427.22, 359.16, 309.08, 444.87, 355.96",965,9.264973913,48.73376278,27.83653633,Passed,163.2581053,,,,,,,,,,,,,,,,,,,,,training,4,7,180,right,s,,,,,993.507,993.623,35.84,-1.272705078,2.681762695,1,0,0,0.116,fixationPoint,993.623,993.724,993.724,998.106,35.84,10240,616.96,s,1,4.366,,998.106,998.304,,,,,,,,53,-128,-18,27,65,168,64,165,23,-217,210,-119,212,-170,217,175,-117,64,-208,27,-74,-17,-162,-68,-176,90,270,180,90,270,180,90,270,90,270,180,,,,,,,,,,,998.304,998.305,,0,54,54,54,1,5,repeated,,,,,,,,,,,,,,,,,,,,,,,,,,,,,,,,,,,,,,,,,,,,,,,,,
,,25,7,${e://Field/PROLIFIC_PID,M,41,2023-11-03_21h49.55.035,MouseEye_CC,2023.2.2,Win32,62.5,1.28,,,1401,790,53.07899999999999,5.26,"491.2, 350.55, 427.22, 359.16, 309.08, 444.87, 355.96",965,9.264973913,48.73376278,27.83653633,Passed,163.2581053,,,,,,,,,,,,,,,,,,,,,training,4,8,0,left,a,,,,,998.305,998.456,35.84,-1.272705078,2.681762695,1,0,0,0.151,fixationPoint,998.456,998.556,998.556,1002.522,35.84,10240,616.96,a,1,3.953,,1002.522,1002.722,,,,,,,,19,165,174,-79,220,-24,73,-66,160,-172,-124,-80,-218,-17,-162,169,-32,120,-219,163,-165,116,28,160,116,180,180,360,180,90,180,90,360,360,180,360,,,,,,,,,,,1002.722,1002.722,,0,55,55,55,1,1,repeated,,,,,,,,,,,,,,,,,,,,,,,,,,,,,,,,,,,,,,,,,,,,,,,,,
,,25,7,${e://Field/PROLIFIC_PID,M,41,2023-11-03_21h49.55.035,MouseEye_CC,2023.2.2,Win32,62.5,1.28,,,1401,790,53.07899999999999,5.26,"491.2, 350.55, 427.22, 359.16, 309.08, 444.87, 355.96",965,9.264973913,48.73376278,27.83653633,Passed,163.2581053,,,,,,,,,,,,,,,,,,,,,training,4,9,180,right,s,,,,,1002.722,1002.867,35.84,-1.272705078,2.681762695,1,0,0,0.145,fixationPoint,1002.867,1002.966,1002.966,1004.174,35.84,10240,616.96,s,1,1.203,,1004.174,1004.373,,,,,,,,5,-30,218,116,28,73,172,220,127,-26,-117,-214,-118,-208,-27,25,-164,116,-24,64,-68,-119,212,-213,170,90,360,270,180,360,360,270,360,270,360,360,,,,,,,,,,,1004.373,1004.373,,0,56,56,56,1,15,novel,,,,,,,,,,,,,,,,,,,,,,,,,,,,,,,,,,,,,,,,,,,,,,,,,
,,25,7,${e://Field/PROLIFIC_PID,M,41,2023-11-03_21h49.55.035,MouseEye_CC,2023.2.2,Win32,62.5,1.28,,,1401,790,53.07899999999999,5.26,"491.2, 350.55, 427.22, 359.16, 309.08, 444.87, 355.96",965,9.264973913,48.73376278,27.83653633,Passed,163.2581053,,,,,,,,,,,,,,,,,,,,,training,4,10,0,left,a,,,,,1004.373,1004.458,35.84,-1.272705078,2.681762695,1,0,0,0.085,fixationPoint,1004.458,1004.558,1004.558,1006.288,35.84,10240,616.96,a,1,1.716,,1006.288,1006.488,,,,,,,,22,-172,116,120,114,29,161,124,76,-71,-113,-24,-216,-114,-116,17,-115,64,-68,32,-29,-77,115,-176,168,270,180,360,360,90,90,270,270,360,360,180,,,,,,,,,,,1006.488,1006.488,,0,57,57,57,1,16,novel,,,,,,,,,,,,,,,,,,,,,,,,,,,,,,,,,,,,,,,,,,,,,,,,,
,,25,7,${e://Field/PROLIFIC_PID,M,41,2023-11-03_21h49.55.035,MouseEye_CC,2023.2.2,Win32,62.5,1.28,,,1401,790,53.07899999999999,5.26,"491.2, 350.55, 427.22, 359.16, 309.08, 444.87, 355.96",965,9.264973913,48.73376278,27.83653633,Passed,163.2581053,,,,,,,,,,,,,,,,,,,,,training,4,11,0,left,a,,,,,1006.488,1006.589,35.84,-1.272705078,2.681762695,1,0,0,0.101,fixationPoint,1006.589,1006.688,1006.688,1008.672,35.84,10240,616.96,a,1,1.979,,1008.672,1008.871,,,,,,,,68,120,-78,67,17,116,28,165,23,-119,212,-213,170,-66,160,-172,-124,-124,-221,-71,-113,64,-208,68,-172,360,270,270,90,90,270,180,360,180,270,90,,,,,,,,,,,1008.871,1008.872,,0,58,58,58,1,11,novel,,,,,,,,,,,,,,,,,,,,,,,,,,,,,,,,,,,,,,,,,,,,,,,,,
,,25,7,${e://Field/PROLIFIC_PID,M,41,2023-11-03_21h49.55.035,MouseEye_CC,2023.2.2,Win32,62.5,1.28,,,1401,790,53.07899999999999,5.26,"491.2, 350.55, 427.22, 359.16, 309.08, 444.87, 355.96",965,9.264973913,48.73376278,27.83653633,Passed,163.2581053,,,,,,,,,,,,,,,,,,,,,training,4,12,180,right,s,,,,,1008.872,1009.004,35.84,-1.272705078,2.681762695,1,0,0,0.132,fixationPoint,1009.004,1009.096,1009.096,1011.589,35.84,10240,616.96,s,1,2.48,,1011.589,1011.79,,,,,,,,94,-80,-218,168,64,29,23,27,65,-217,210,-164,29,-79,220,175,-117,71,-114,114,-128,-163,-171,-210,-224,270,270,270,360,180,180,270,270,270,90,270,,,,,,,,,,,1011.79,1011.79,,0,59,59,59,1,10,novel,,,,,,,,,,,,,,,,,,,,,,,,,,,,,,,,,,,,,,,,,,,,,,,,,
,,25,7,${e://Field/PROLIFIC_PID,M,41,2023-11-03_21h49.55.035,MouseEye_CC,2023.2.2,Win32,62.5,1.28,,,1401,790,53.07899999999999,5.26,"491.2, 350.55, 427.22, 359.16, 309.08, 444.87, 355.96",965,9.264973913,48.73376278,27.83653633,Passed,163.2581053,,,,,,,,,,,,,,,,,,,,,training,4,13,180,right,s,,,,,1011.79,1011.855,35.84,-1.272705078,2.681762695,1,0,0,0.065,fixationPoint,1011.855,1011.955,1011.955,1014.188,35.84,10240,616.96,s,1,2.226,,1014.188,1014.379,,,,,,,,62,-166,-77,73,172,29,161,29,23,-126,164,-212,64,-75,29,210,-16,28,-215,64,-208,-208,-27,-80,-218,180,180,90,360,180,270,270,270,270,270,180,,,,,,,,,,,1014.379,1014.379,,0,60,60,60,1,6,repeated,,,,,,,,,,,,,,,,,,,,,,,,,,,,,,,,,,,,,,,,,,,,,,,,,
,,25,7,${e://Field/PROLIFIC_PID,M,41,2023-11-03_21h49.55.035,MouseEye_CC,2023.2.2,Win32,62.5,1.28,,,1401,790,53.07899999999999,5.26,"491.2, 350.55, 427.22, 359.16, 309.08, 444.87, 355.96",965,9.264973913,48.73376278,27.83653633,Passed,163.2581053,,,,,,,,,,,,,,,,,,,,,training,4,14,180,right,s,,,,,1014.379,1014.471,35.84,-1.272705078,2.681762695,1,0,0,0.092,fixationPoint,1014.471,1014.572,1014.572,1016.656,35.84,10240,616.96,s,1,2.068,,1016.656,1016.855,,,,,,,,96,28,-215,22,117,165,23,215,74,-213,170,-170,217,-220,24,-71,-113,-80,-218,-124,-64,215,-113,71,-114,180,270,270,90,270,180,360,270,270,180,180,,,,,,,,,,,1016.855,1016.856,,0,61,61,61,1,7,repeated,,,,,,,,,,,,,,,,,,,,,,,,,,,,,,,,,,,,,,,,,,,,,,,,,
,,25,7,${e://Field/PROLIFIC_PID,M,41,2023-11-03_21h49.55.035,MouseEye_CC,2023.2.2,Win32,62.5,1.28,,,1401,790,53.07899999999999,5.26,"491.2, 350.55, 427.22, 359.16, 309.08, 444.87, 355.96",965,9.264973913,48.73376278,27.83653633,Passed,163.2581053,,,,,,,,,,,,,,,,,,,,,training,4,15,0,left,a,,,,,1016.856,1016.922,35.84,-1.272705078,2.681762695,1,0,0,0.066,fixationPoint,1016.922,1017.022,1017.022,1018.358,35.84,10240,616.96,a,1,1.319,,1018.358,1018.556,,,,,,,,79,175,-117,29,214,64,72,124,76,-176,168,-213,170,-26,27,-165,-215,-26,-117,-24,-71,215,-113,208,-174,270,270,360,360,180,180,90,180,90,270,270,,,,,,,,,,,1018.556,1018.556,,0,62,62,62,1,8,repeated,,,,,,,,,,,,,,,,,,,,,,,,,,,,,,,,,,,,,,,,,,,,,,,,,
,,25,7,${e://Field/PROLIFIC_PID,M,41,2023-11-03_21h49.55.035,MouseEye_CC,2023.2.2,Win32,62.5,1.28,,,1401,790,53.07899999999999,5.26,"491.2, 350.55, 427.22, 359.16, 309.08, 444.87, 355.96",965,9.264973913,48.73376278,27.83653633,Passed,163.2581053,,,,,,,,,,,,,,,,,,,,,training,4,16,0,left,a,,,,,1018.557,1018.673,35.84,-1.272705078,2.681762695,1,0,0,0.116,fixationPoint,1018.673,1018.773,1018.773,1019.806,35.84,10240,616.96,a,1,1.018,,1019.806,1020.006,,,,,,,,48,116,28,-66,160,-220,24,-79,220,-71,-113,-124,-221,-17,-162,215,-113,126,-169,175,-117,124,162,220,215,270,270,360,90,180,270,360,90,90,180,90,,,,,,,,,,,1020.006,1109.572,space,0,63,63,63,1,13,novel,89.536,,,,,,,,,,,,,,,,,,,,,,,,,,,,,,,,,,,,,,,,,,,,,,,,
,,25,7,${e://Field/PROLIFIC_PID,M,41,2023-11-03_21h49.55.035,MouseEye_CC,2023.2.2,Win32,62.5,1.28,,,1401,790,53.07899999999999,5.26,"491.2, 350.55, 427.22, 359.16, 309.08, 444.87, 355.96",965,9.264973913,48.73376278,27.83653633,Passed,163.2581053,,,,,,,,,,,,,,,,,,,,,training,5,1,0,left,a,,,,,1109.577,1110.088,35.84,-1.272705078,2.681762695,1,0,0,0.511,fixationPoint,1110.088,1110.189,1110.189,1112.056,35.84,10240,616.96,a,1,1.836,,1112.056,1112.256,,,,,,,,19,165,174,-79,220,-24,73,-66,160,-172,-124,-80,-218,-17,-162,169,-32,120,-219,163,-165,116,28,160,116,270,360,180,90,360,90,270,270,180,90,270,,,,,,,,,,,1112.256,1112.258,,0,64,64,64,1,1,repeated,,,,,,,,,,,,,,,,,,,,,,,,,,,,,,,,,,,,,,,,,,,,,,,,,
,,25,7,${e://Field/PROLIFIC_PID,M,41,2023-11-03_21h49.55.035,MouseEye_CC,2023.2.2,Win32,62.5,1.28,,,1401,790,53.07899999999999,5.26,"491.2, 350.55, 427.22, 359.16, 309.08, 444.87, 355.96",965,9.264973913,48.73376278,27.83653633,Passed,163.2581053,,,,,,,,,,,,,,,,,,,,,training,5,2,0,left,a,,,,,1112.258,1112.425,35.84,-1.272705078,2.681762695,1,0,0,0.167,fixationPoint,1112.425,1112.523,1112.523,1115.433,35.84,10240,616.96,a,1,2.888,,1115.433,1115.632,,,,,,,,96,28,-215,22,117,165,23,215,74,-213,170,-170,217,-220,24,-71,-113,-80,-218,-124,-64,215,-113,71,-114,90,360,270,90,360,360,180,180,270,90,90,,,,,,,,,,,1115.632,1115.633,,0,65,65,65,1,7,repeated,,,,,,,,,,,,,,,,,,,,,,,,,,,,,,,,,,,,,,,,,,,,,,,,,
,,25,7,${e://Field/PROLIFIC_PID,M,41,2023-11-03_21h49.55.035,MouseEye_CC,2023.2.2,Win32,62.5,1.28,,,1401,790,53.07899999999999,5.26,"491.2, 350.55, 427.22, 359.16, 309.08, 444.87, 355.96",965,9.264973913,48.73376278,27.83653633,Passed,163.2581053,,,,,,,,,,,,,,,,,,,,,training,5,3,180,right,s,,,,,1115.633,1115.789,35.84,-1.272705078,2.681762695,1,0,0,0.156,fixationPoint,1115.789,1115.889,1115.889,1117.573,35.84,10240,616.96,s,1,1.668,,1117.574,1117.772,,,,,,,,13,-126,164,120,114,221,32,64,72,-72,-80,-210,-224,-24,-71,175,-117,64,-68,17,-115,-213,170,-172,116,90,90,90,90,270,360,360,360,90,270,90,,,,,,,,,,,1117.772,1117.772,,0,66,66,66,1,4,repeated,,,,,,,,,,,,,,,,,,,,,,,,,,,,,,,,,,,,,,,,,,,,,,,,,
,,25,7,${e://Field/PROLIFIC_PID,M,41,2023-11-03_21h49.55.035,MouseEye_CC,2023.2.2,Win32,62.5,1.28,,,1401,790,53.07899999999999,5.26,"491.2, 350.55, 427.22, 359.16, 309.08, 444.87, 355.96",965,9.264973913,48.73376278,27.83653633,Passed,163.2581053,,,,,,,,,,,,,,,,,,,,,training,5,4,180,right,s,,,,,1117.773,1118.022,35.84,-1.272705078,2.681762695,1,0,0,0.249,fixationPoint,1118.022,1118.122,1118.122,1119.706,35.84,10240,616.96,s,1,1.567,,1119.706,1119.906,,,,,,,,39,168,64,-75,29,-220,24,-79,220,-31,-24,-17,-162,-124,-221,64,-68,25,-164,64,-24,215,74,165,23,360,180,270,360,90,180,180,180,270,180,180,,,,,,,,,,,1119.906,1119.906,,0,67,67,67,1,14,novel,,,,,,,,,,,,,,,,,,,,,,,,,,,,,,,,,,,,,,,,,,,,,,,,,
,,25,7,${e://Field/PROLIFIC_PID,M,41,2023-11-03_21h49.55.035,MouseEye_CC,2023.2.2,Win32,62.5,1.28,,,1401,790,53.07899999999999,5.26,"491.2, 350.55, 427.22, 359.16, 309.08, 444.87, 355.96",965,9.264973913,48.73376278,27.83653633,Passed,163.2581053,,,,,,,,,,,,,,,,,,,,,training,5,5,0,left,a,,,,,1119.907,1120.073,35.84,-1.272705078,2.681762695,1,0,0,0.166,fixationPoint,1120.073,1120.173,1120.173,1122.015,35.84,10240,616.96,a,1,1.827,,1122.015,1122.206,,,,,,,,5,-30,218,79,208,68,127,160,116,-166,-77,-221,-163,-70,-19,64,-24,210,-16,165,-217,-213,170,-176,168,360,90,270,180,360,270,180,180,90,90,180,,,,,,,,,,,1122.206,1122.206,,0,68,68,68,1,15,novel,,,,,,,,,,,,,,,,,,,,,,,,,,,,,,,,,,,,,,,,,,,,,,,,,
,,25,7,${e://Field/PROLIFIC_PID,M,41,2023-11-03_21h49.55.035,MouseEye_CC,2023.2.2,Win32,62.5,1.28,,,1401,790,53.07899999999999,5.26,"491.2, 350.55, 427.22, 359.16, 309.08, 444.87, 355.96",965,9.264973913,48.73376278,27.83653633,Passed,163.2581053,,,,,,,,,,,,,,,,,,,,,training,5,6,180,right,s,,,,,1122.206,1122.323,35.84,-1.272705078,2.681762695,1,0,0,0.117,fixationPoint,1122.323,1122.424,1122.424,1123.689,35.84,10240,616.96,s,1,1.251,,1123.689,1123.889,,,,,,,,22,-172,116,29,23,124,76,165,222,-208,-27,-163,-171,-24,-216,64,-24,169,-32,126,-169,-119,212,-126,164,180,360,270,360,180,90,270,360,270,90,360,,,,,,,,,,,1123.889,1123.889,,0,69,69,69,1,16,novel,,,,,,,,,,,,,,,,,,,,,,,,,,,,,,,,,,,,,,,,,,,,,,,,,
,,25,7,${e://Field/PROLIFIC_PID,M,41,2023-11-03_21h49.55.035,MouseEye_CC,2023.2.2,Win32,62.5,1.28,,,1401,790,53.07899999999999,5.26,"491.2, 350.55, 427.22, 359.16, 309.08, 444.87, 355.96",965,9.264973913,48.73376278,27.83653633,Passed,163.2581053,,,,,,,,,,,,,,,,,,,,,training,5,7,0,left,a,,,,,1123.889,1124.062,35.84,-1.272705078,2.681762695,1,0,0,0.173,fixationPoint,1124.062,1124.159,1124.159,1126.09,35.84,10240,616.96,a,1,1.916,,1126.09,1126.289,,,,,,,,82,-163,-171,160,116,221,32,29,214,-26,27,-113,19,-70,72,28,-215,64,-24,215,-113,-124,-221,-208,-27,90,90,90,270,270,360,360,360,180,270,90,,,,,,,,,,,1126.289,1126.289,,0,70,70,70,1,9,novel,,,,,,,,,,,,,,,,,,,,,,,,,,,,,,,,,,,,,,,,,,,,,,,,,
,,25,7,${e://Field/PROLIFIC_PID,M,41,2023-11-03_21h49.55.035,MouseEye_CC,2023.2.2,Win32,62.5,1.28,,,1401,790,53.07899999999999,5.26,"491.2, 350.55, 427.22, 359.16, 309.08, 444.87, 355.96",965,9.264973913,48.73376278,27.83653633,Passed,163.2581053,,,,,,,,,,,,,,,,,,,,,training,5,8,0,left,a,,,,,1126.289,1126.427,35.84,-1.272705078,2.681762695,1,0,0,0.138,fixationPoint,1126.427,1126.525,1126.525,1127.656,35.84,10240,616.96,a,1,1.117,,1127.656,1127.855,,,,,,,,53,-128,-18,27,65,168,64,165,23,-217,210,-119,212,-170,217,175,-117,64,-208,27,-74,-17,-162,-68,-176,180,360,270,360,90,90,270,90,90,270,270,,,,,,,,,,,1127.855,1127.855,,0,71,71,71,1,5,repeated,,,,,,,,,,,,,,,,,,,,,,,,,,,,,,,,,,,,,,,,,,,,,,,,,
,,25,7,${e://Field/PROLIFIC_PID,M,41,2023-11-03_21h49.55.035,MouseEye_CC,2023.2.2,Win32,62.5,1.28,,,1401,790,53.07899999999999,5.26,"491.2, 350.55, 427.22, 359.16, 309.08, 444.87, 355.96",965,9.264973913,48.73376278,27.83653633,Passed,163.2581053,,,,,,,,,,,,,,,,,,,,,training,5,9,180,right,s,,,,,1127.855,1128.015,35.84,-1.272705078,2.681762695,1,0,0,0.16,fixationPoint,1128.015,1128.106,1128.106,1130.945,35.84,10240,616.96,s,1,2.807,,1130.945,1131.139,,,,,,,,88,126,-169,224,175,168,64,165,23,-24,73,-127,116,-70,72,-68,-176,-31,-24,-24,-216,64,-24,64,-208,360,180,180,360,360,360,90,270,180,360,90,,,,,,,,,,,1131.139,1131.139,,0,72,72,72,1,12,novel,,,,,,,,,,,,,,,,,,,,,,,,,,,,,,,,,,,,,,,,,,,,,,,,,
,,25,7,${e://Field/PROLIFIC_PID,M,41,2023-11-03_21h49.55.035,MouseEye_CC,2023.2.2,Win32,62.5,1.28,,,1401,790,53.07899999999999,5.26,"491.2, 350.55, 427.22, 359.16, 309.08, 444.87, 355.96",965,9.264973913,48.73376278,27.83653633,Passed,163.2581053,,,,,,,,,,,,,,,,,,,,,training,5,10,180,right,s,,,,,1131.14,1131.222,35.84,-1.272705078,2.681762695,1,0,0,0.082,fixationPoint,1131.222,1131.322,1131.322,1132.522,35.84,10240,616.96,s,1,1.18,,1132.522,1132.724,,,,,,,,79,175,-117,29,214,64,72,124,76,-176,168,-213,170,-26,27,-165,-215,-26,-117,-24,-71,215,-113,208,-174,360,360,90,180,360,270,90,180,90,180,180,,,,,,,,,,,1132.724,1132.725,,0,73,73,73,1,8,repeated,,,,,,,,,,,,,,,,,,,,,,,,,,,,,,,,,,,,,,,,,,,,,,,,,
,,25,7,${e://Field/PROLIFIC_PID,M,41,2023-11-03_21h49.55.035,MouseEye_CC,2023.2.2,Win32,62.5,1.28,,,1401,790,53.07899999999999,5.26,"491.2, 350.55, 427.22, 359.16, 309.08, 444.87, 355.96",965,9.264973913,48.73376278,27.83653633,Passed,163.2581053,,,,,,,,,,,,,,,,,,,,,training,5,11,180,right,s,,,,,1132.725,1132.866,35.84,-1.272705078,2.681762695,1,0,0,0.141,fixationPoint,1132.866,1132.968,1132.968,1135.523,35.84,10240,616.96,s,1,2.55,,1135.523,1135.722,,,,,,,,68,120,-78,165,222,221,32,29,23,-77,115,-162,80,-79,220,-26,-117,-80,-218,-68,-176,64,-68,64,-24,180,270,270,90,270,270,90,270,360,90,180,,,,,,,,,,,1135.722,1135.722,,0,74,74,74,1,11,novel,,,,,,,,,,,,,,,,,,,,,,,,,,,,,,,,,,,,,,,,,,,,,,,,,
,,25,7,${e://Field/PROLIFIC_PID,M,41,2023-11-03_21h49.55.035,MouseEye_CC,2023.2.2,Win32,62.5,1.28,,,1401,790,53.07899999999999,5.26,"491.2, 350.55, 427.22, 359.16, 309.08, 444.87, 355.96",965,9.264973913,48.73376278,27.83653633,Passed,163.2581053,,,,,,,,,,,,,,,,,,,,,training,5,12,0,left,a,,,,,1135.722,1135.806,35.84,-1.272705078,2.681762695,1,0,0,0.084,fixationPoint,1135.806,1135.906,1135.906,1139.658,35.84,10240,616.96,a,1,3.735,,1139.658,1139.858,,,,,,,,33,-116,68,27,65,165,174,215,74,-71,-113,-17,-162,-166,-77,120,-78,114,-128,28,-215,-26,27,-75,29,90,180,180,360,360,360,180,90,180,360,180,,,,,,,,,,,1139.858,1139.858,,0,75,75,75,1,3,repeated,,,,,,,,,,,,,,,,,,,,,,,,,,,,,,,,,,,,,,,,,,,,,,,,,
,,25,7,${e://Field/PROLIFIC_PID,M,41,2023-11-03_21h49.55.035,MouseEye_CC,2023.2.2,Win32,62.5,1.28,,,1401,790,53.07899999999999,5.26,"491.2, 350.55, 427.22, 359.16, 309.08, 444.87, 355.96",965,9.264973913,48.73376278,27.83653633,Passed,163.2581053,,,,,,,,,,,,,,,,,,,,,training,5,13,180,right,s,,,,,1139.858,1140.006,35.84,-1.272705078,2.681762695,1,0,0,0.148,fixationPoint,1140.006,1140.093,1140.093,1142.074,35.84,10240,616.96,s,1,1.968,,1142.074,1142.274,,,,,,,,62,-166,-77,73,172,29,161,29,23,-126,164,-212,64,-75,29,210,-16,28,-215,64,-208,-208,-27,-80,-218,180,270,180,270,270,270,90,270,360,360,270,,,,,,,,,,,1142.274,1142.274,,0,76,76,76,1,6,repeated,,,,,,,,,,,,,,,,,,,,,,,,,,,,,,,,,,,,,,,,,,,,,,,,,
,,25,7,${e://Field/PROLIFIC_PID,M,41,2023-11-03_21h49.55.035,MouseEye_CC,2023.2.2,Win32,62.5,1.28,,,1401,790,53.07899999999999,5.26,"491.2, 350.55, 427.22, 359.16, 309.08, 444.87, 355.96",965,9.264973913,48.73376278,27.83653633,Passed,163.2581053,,,,,,,,,,,,,,,,,,,,,training,5,14,0,left,a,,,,,1142.274,1142.64,35.84,-1.272705078,2.681762695,1,0,0,0.365,fixationPoint,1142.64,1142.741,1142.741,1144.973,35.84,10240,616.96,a,1,2.215,,1144.973,1145.172,,,,,,,,7,79,208,-30,218,-20,120,-77,115,-172,-32,-172,-124,-68,-176,215,-220,116,-24,165,-217,29,161,220,215,90,270,180,90,180,180,90,360,270,90,360,,,,,,,,,,,1145.172,1145.172,,0,77,77,77,1,2,repeated,,,,,,,,,,,,,,,,,,,,,,,,,,,,,,,,,,,,,,,,,,,,,,,,,
,,25,7,${e://Field/PROLIFIC_PID,M,41,2023-11-03_21h49.55.035,MouseEye_CC,2023.2.2,Win32,62.5,1.28,,,1401,790,53.07899999999999,5.26,"491.2, 350.55, 427.22, 359.16, 309.08, 444.87, 355.96",965,9.264973913,48.73376278,27.83653633,Passed,163.2581053,,,,,,,,,,,,,,,,,,,,,training,5,15,0,left,a,,,,,1145.172,1145.306,35.84,-1.272705078,2.681762695,1,0,0,0.134,fixationPoint,1145.306,1145.407,1145.407,1146.722,35.84,10240,616.96,a,1,1.3,,1146.723,1146.923,,,,,,,,48,116,28,-220,24,-172,116,-217,210,-224,-68,-124,-221,-214,-118,208,-174,68,-172,71,-114,67,17,165,23,360,90,90,180,270,90,360,360,360,90,180,,,,,,,,,,,1146.923,1146.923,,0,78,78,78,1,13,novel,,,,,,,,,,,,,,,,,,,,,,,,,,,,,,,,,,,,,,,,,,,,,,,,,
,,25,7,${e://Field/PROLIFIC_PID,M,41,2023-11-03_21h49.55.035,MouseEye_CC,2023.2.2,Win32,62.5,1.28,,,1401,790,53.07899999999999,5.26,"491.2, 350.55, 427.22, 359.16, 309.08, 444.87, 355.96",965,9.264973913,48.73376278,27.83653633,Passed,163.2581053,,,,,,,,,,,,,,,,,,,,,training,5,16,180,right,s,,,,,1146.924,1147.023,35.84,-1.272705078,2.681762695,1,0,0,0.099,fixationPoint,1147.023,1147.124,1147.124,1149.772,35.84,10240,616.96,s,1,2.623,,1149.772,1149.987,,,,,,,,94,-80,-218,124,76,79,208,165,222,-176,168,-20,120,-162,80,210,-16,126,-169,120,-78,-172,-124,-26,-117,270,270,90,180,270,270,270,90,360,180,270,,,,,,,,,,,1149.988,1152.808,space,0,79,79,79,1,10,novel,2.795,,,,,,,,,,,,,,,,,,,,,,,,,,,,,,,,,,,,,,,,,,,,,,,,
,,25,7,${e://Field/PROLIFIC_PID,M,41,2023-11-03_21h49.55.035,MouseEye_CC,2023.2.2,Win32,62.5,1.28,,,1401,790,53.07899999999999,5.26,"491.2, 350.55, 427.22, 359.16, 309.08, 444.87, 355.96",965,9.264973913,48.73376278,27.83653633,Passed,163.2581053,,,,,,,,,,,,,,,,,,,,,training,6,1,180,right,s,,,,,1152.808,1153.241,35.84,-1.272705078,2.681762695,1,0,0,0.432,fixationPoint,1153.242,1153.34,1153.34,1154.289,35.84,10240,616.96,s,1,0.948,,1154.289,1154.49,,,,,,,,13,-126,164,120,114,221,32,64,72,-72,-80,-210,-224,-24,-71,175,-117,64,-68,17,-115,-213,170,-172,116,270,270,270,360,90,360,270,180,360,270,180,,,,,,,,,,,1154.49,1154.491,,0,80,80,80,1,4,repeated,,,,,,,,,,,,,,,,,,,,,,,,,,,,,,,,,,,,,,,,,,,,,,,,,
,,25,7,${e://Field/PROLIFIC_PID,M,41,2023-11-03_21h49.55.035,MouseEye_CC,2023.2.2,Win32,62.5,1.28,,,1401,790,53.07899999999999,5.26,"491.2, 350.55, 427.22, 359.16, 309.08, 444.87, 355.96",965,9.264973913,48.73376278,27.83653633,Passed,163.2581053,,,,,,,,,,,,,,,,,,,,,training,6,2,0,left,a,,,,,1154.491,1154.589,35.84,-1.272705078,2.681762695,1,0,0,0.098,fixationPoint,1154.59,1154.688,1154.688,1156.288,35.84,10240,616.96,a,1,1.579,,1156.288,1156.489,,,,,,,,68,120,-78,165,174,220,215,73,172,-20,120,-113,19,-127,116,-214,-118,-172,-32,-165,-215,120,-219,176,-74,90,90,360,360,360,270,90,90,90,360,180,,,,,,,,,,,1156.489,1156.489,,0,81,81,81,1,11,novel,,,,,,,,,,,,,,,,,,,,,,,,,,,,,,,,,,,,,,,,,,,,,,,,,
,,25,7,${e://Field/PROLIFIC_PID,M,41,2023-11-03_21h49.55.035,MouseEye_CC,2023.2.2,Win32,62.5,1.28,,,1401,790,53.07899999999999,5.26,"491.2, 350.55, 427.22, 359.16, 309.08, 444.87, 355.96",965,9.264973913,48.73376278,27.83653633,Passed,163.2581053,,,,,,,,,,,,,,,,,,,,,training,6,3,0,left,a,,,,,1156.489,1156.614,35.84,-1.272705078,2.681762695,1,0,0,0.125,fixationPoint,1156.614,1156.705,1156.705,1158.289,35.84,10240,616.96,a,1,1.56,,1158.289,1158.477,,,,,,,,7,79,208,-30,218,-20,120,-77,115,-172,-32,-172,-124,-68,-176,215,-220,116,-24,165,-217,29,161,220,215,360,360,270,90,180,360,360,270,180,90,180,,,,,,,,,,,1158.477,1158.477,,0,82,82,82,1,2,repeated,,,,,,,,,,,,,,,,,,,,,,,,,,,,,,,,,,,,,,,,,,,,,,,,,
,,25,7,${e://Field/PROLIFIC_PID,M,41,2023-11-03_21h49.55.035,MouseEye_CC,2023.2.2,Win32,62.5,1.28,,,1401,790,53.07899999999999,5.26,"491.2, 350.55, 427.22, 359.16, 309.08, 444.87, 355.96",965,9.264973913,48.73376278,27.83653633,Passed,163.2581053,,,,,,,,,,,,,,,,,,,,,training,6,4,0,left,a,,,,,1158.479,1158.606,35.84,-1.272705078,2.681762695,1,0,0,0.127,fixationPoint,1158.606,1158.706,1158.706,1161.44,35.84,10240,616.96,a,1,2.717,,1161.44,1161.64,,,,,,,,88,126,-169,73,172,27,65,22,117,-30,218,-162,80,-172,116,-166,-77,-165,-215,-24,-71,176,-74,27,-74,270,180,90,90,270,180,270,90,270,360,180,,,,,,,,,,,1161.64,1161.64,,0,83,83,83,1,12,novel,,,,,,,,,,,,,,,,,,,,,,,,,,,,,,,,,,,,,,,,,,,,,,,,,
,,25,7,${e://Field/PROLIFIC_PID,M,41,2023-11-03_21h49.55.035,MouseEye_CC,2023.2.2,Win32,62.5,1.28,,,1401,790,53.07899999999999,5.26,"491.2, 350.55, 427.22, 359.16, 309.08, 444.87, 355.96",965,9.264973913,48.73376278,27.83653633,Passed,163.2581053,,,,,,,,,,,,,,,,,,,,,training,6,5,180,right,s,,,,,1161.641,1161.656,35.84,-1.272705078,2.681762695,1,0,0,0.015,fixationPoint,1161.656,1161.757,1161.757,1164.523,35.84,10240,616.96,s,1,2.751,,1164.523,1164.723,,,,,,,,19,165,174,-79,220,-24,73,-66,160,-172,-124,-80,-218,-17,-162,169,-32,120,-219,163,-165,116,28,160,116,90,180,90,180,360,90,180,270,360,180,90,,,,,,,,,,,1164.723,1164.723,,0,84,84,84,1,1,repeated,,,,,,,,,,,,,,,,,,,,,,,,,,,,,,,,,,,,,,,,,,,,,,,,,
,,25,7,${e://Field/PROLIFIC_PID,M,41,2023-11-03_21h49.55.035,MouseEye_CC,2023.2.2,Win32,62.5,1.28,,,1401,790,53.07899999999999,5.26,"491.2, 350.55, 427.22, 359.16, 309.08, 444.87, 355.96",965,9.264973913,48.73376278,27.83653633,Passed,163.2581053,,,,,,,,,,,,,,,,,,,,,training,6,6,0,left,a,,,,,1164.723,1164.777,35.84,-1.272705078,2.681762695,1,0,0,0.054,fixationPoint,1164.777,1164.873,1164.873,1165.889,35.84,10240,616.96,a,1,1.005,,1165.889,1166.09,,,,,,,,39,168,64,-77,115,-213,124,-176,168,-172,-32,-124,-64,-31,-24,120,-219,17,-115,120,-78,22,117,165,174,180,360,270,90,360,90,360,90,270,90,90,,,,,,,,,,,1166.09,1166.09,,0,85,85,85,1,14,novel,,,,,,,,,,,,,,,,,,,,,,,,,,,,,,,,,,,,,,,,,,,,,,,,,
,,25,7,${e://Field/PROLIFIC_PID,M,41,2023-11-03_21h49.55.035,MouseEye_CC,2023.2.2,Win32,62.5,1.28,,,1401,790,53.07899999999999,5.26,"491.2, 350.55, 427.22, 359.16, 309.08, 444.87, 355.96",965,9.264973913,48.73376278,27.83653633,Passed,163.2581053,,,,,,,,,,,,,,,,,,,,,training,6,7,0,left,a,,,,,1166.09,1166.189,35.84,-1.272705078,2.681762695,1,0,0,0.099,fixationPoint,1166.189,1166.288,1166.289,1168.322,35.84,10240,616.96,a,1,2.003,,1168.322,1168.53,,,,,,,,96,28,-215,22,117,165,23,215,74,-213,170,-170,217,-220,24,-71,-113,-80,-218,-124,-64,215,-113,71,-114,90,180,360,270,270,270,270,360,270,90,90,,,,,,,,,,,1168.53,1168.53,,0,86,86,86,1,7,repeated,,,,,,,,,,,,,,,,,,,,,,,,,,,,,,,,,,,,,,,,,,,,,,,,,
,,25,7,${e://Field/PROLIFIC_PID,M,41,2023-11-03_21h49.55.035,MouseEye_CC,2023.2.2,Win32,62.5,1.28,,,1401,790,53.07899999999999,5.26,"491.2, 350.55, 427.22, 359.16, 309.08, 444.87, 355.96",965,9.264973913,48.73376278,27.83653633,Passed,163.2581053,,,,,,,,,,,,,,,,,,,,,training,6,8,180,right,s,,,,,1168.53,1168.588,35.84,-1.272705078,2.681762695,1,0,0,0.058,fixationPoint,1168.588,1168.689,1168.689,1170.073,35.84,10240,616.96,s,1,1.382,,1170.073,1170.274,,,,,,,,48,116,28,-220,24,-75,29,-113,19,-68,-176,-172,-32,-124,-64,215,-220,210,-16,64,-208,124,162,165,23,360,180,180,360,270,180,90,360,270,360,90,,,,,,,,,,,1170.274,1170.274,,0,87,87,87,1,13,novel,,,,,,,,,,,,,,,,,,,,,,,,,,,,,,,,,,,,,,,,,,,,,,,,,
,,25,7,${e://Field/PROLIFIC_PID,M,41,2023-11-03_21h49.55.035,MouseEye_CC,2023.2.2,Win32,62.5,1.28,,,1401,790,53.07899999999999,5.26,"491.2, 350.55, 427.22, 359.16, 309.08, 444.87, 355.96",965,9.264973913,48.73376278,27.83653633,Passed,163.2581053,,,,,,,,,,,,,,,,,,,,,training,6,9,180,right,s,,,,,1170.274,1170.324,35.84,-1.272705078,2.681762695,1,0,0,0.05,fixationPoint,1170.324,1170.422,1170.422,1171.655,35.84,10240,616.96,s,1,1.216,,1171.655,1171.855,,,,,,,,79,175,-117,29,214,64,72,124,76,-176,168,-213,170,-26,27,-165,-215,-26,-117,-24,-71,215,-113,208,-174,180,180,270,180,360,360,360,180,360,90,90,,,,,,,,,,,1171.855,1171.855,,0,88,88,88,1,8,repeated,,,,,,,,,,,,,,,,,,,,,,,,,,,,,,,,,,,,,,,,,,,,,,,,,
,,25,7,${e://Field/PROLIFIC_PID,M,41,2023-11-03_21h49.55.035,MouseEye_CC,2023.2.2,Win32,62.5,1.28,,,1401,790,53.07899999999999,5.26,"491.2, 350.55, 427.22, 359.16, 309.08, 444.87, 355.96",965,9.264973913,48.73376278,27.83653633,Passed,163.2581053,,,,,,,,,,,,,,,,,,,,,training,6,10,0,left,a,,,,,1171.856,1172.456,35.84,-1.272705078,2.681762695,1,0,0,0.6,fixationPoint,1172.456,1172.556,1172.556,1175.776,35.84,10240,616.96,a,1,3.218,,1175.776,1175.972,,,,,,,,53,-128,-18,27,65,168,64,165,23,-217,210,-119,212,-170,217,175,-117,64,-208,27,-74,-17,-162,-68,-176,180,270,180,180,180,360,90,360,270,90,360,,,,,,,,,,,1175.972,1175.972,,0,89,89,89,1,5,repeated,,,,,,,,,,,,,,,,,,,,,,,,,,,,,,,,,,,,,,,,,,,,,,,,,
,,25,7,${e://Field/PROLIFIC_PID,M,41,2023-11-03_21h49.55.035,MouseEye_CC,2023.2.2,Win32,62.5,1.28,,,1401,790,53.07899999999999,5.26,"491.2, 350.55, 427.22, 359.16, 309.08, 444.87, 355.96",965,9.264973913,48.73376278,27.83653633,Passed,163.2581053,,,,,,,,,,,,,,,,,,,,,training,6,11,0,left,a,,,,,1175.973,1176.006,35.84,-1.272705078,2.681762695,1,0,0,0.033,fixationPoint,1176.006,1176.107,1176.107,1177.139,35.84,10240,616.96,a,1,1.016,,1177.139,1177.339,,,,,,,,5,-30,218,160,116,27,65,29,214,-124,-221,-124,-64,-165,-215,215,-113,176,-74,120,-219,-20,120,-213,124,270,270,360,180,90,90,360,270,90,90,180,,,,,,,,,,,1177.339,1177.339,,0,90,90,90,1,15,novel,,,,,,,,,,,,,,,,,,,,,,,,,,,,,,,,,,,,,,,,,,,,,,,,,
,,25,7,${e://Field/PROLIFIC_PID,M,41,2023-11-03_21h49.55.035,MouseEye_CC,2023.2.2,Win32,62.5,1.28,,,1401,790,53.07899999999999,5.26,"491.2, 350.55, 427.22, 359.16, 309.08, 444.87, 355.96",965,9.264973913,48.73376278,27.83653633,Passed,163.2581053,,,,,,,,,,,,,,,,,,,,,training,6,12,180,right,s,,,,,1177.34,1177.439,35.84,-1.272705078,2.681762695,1,0,0,0.099,fixationPoint,1177.439,1177.539,1177.539,1178.389,35.84,10240,616.96,s,1,0.831,,1178.389,1178.589,,,,,,,,22,-172,116,64,72,116,28,220,215,-24,-71,-210,-224,-68,-176,175,-117,126,-169,163,-165,-75,29,-213,124,270,360,360,360,180,270,180,90,180,360,90,,,,,,,,,,,1178.589,1178.589,,0,91,91,91,1,16,novel,,,,,,,,,,,,,,,,,,,,,,,,,,,,,,,,,,,,,,,,,,,,,,,,,
,,25,7,${e://Field/PROLIFIC_PID,M,41,2023-11-03_21h49.55.035,MouseEye_CC,2023.2.2,Win32,62.5,1.28,,,1401,790,53.07899999999999,5.26,"491.2, 350.55, 427.22, 359.16, 309.08, 444.87, 355.96",965,9.264973913,48.73376278,27.83653633,Passed,163.2581053,,,,,,,,,,,,,,,,,,,,,training,6,13,180,right,s,,,,,1178.59,1178.672,35.84,-1.272705078,2.681762695,1,0,0,0.082,fixationPoint,1178.672,1178.772,1178.772,1181.09,35.84,10240,616.96,s,1,2.316,,1181.09,1181.294,,,,,,,,62,-166,-77,73,172,29,161,29,23,-126,164,-212,64,-75,29,210,-16,28,-215,64,-208,-208,-27,-80,-218,90,90,270,360,90,180,90,270,270,90,360,,,,,,,,,,,1181.294,1181.294,,0,92,92,92,1,6,repeated,,,,,,,,,,,,,,,,,,,,,,,,,,,,,,,,,,,,,,,,,,,,,,,,,
,,25,7,${e://Field/PROLIFIC_PID,M,41,2023-11-03_21h49.55.035,MouseEye_CC,2023.2.2,Win32,62.5,1.28,,,1401,790,53.07899999999999,5.26,"491.2, 350.55, 427.22, 359.16, 309.08, 444.87, 355.96",965,9.264973913,48.73376278,27.83653633,Passed,163.2581053,,,,,,,,,,,,,,,,,,,,,training,6,14,180,right,s,,,,,1181.295,1181.338,35.84,-1.272705078,2.681762695,1,0,0,0.043,fixationPoint,1181.338,1181.44,1181.44,1182.389,35.84,10240,616.96,s,1,0.932,,1182.389,1182.589,,,,,,,,33,-116,68,27,65,165,174,215,74,-71,-113,-17,-162,-166,-77,120,-78,114,-128,28,-215,-26,27,-75,29,270,270,270,360,90,180,270,270,360,90,180,,,,,,,,,,,1182.589,1182.589,,0,93,93,93,1,3,repeated,,,,,,,,,,,,,,,,,,,,,,,,,,,,,,,,,,,,,,,,,,,,,,,,,
,,25,7,${e://Field/PROLIFIC_PID,M,41,2023-11-03_21h49.55.035,MouseEye_CC,2023.2.2,Win32,62.5,1.28,,,1401,790,53.07899999999999,5.26,"491.2, 350.55, 427.22, 359.16, 309.08, 444.87, 355.96",965,9.264973913,48.73376278,27.83653633,Passed,163.2581053,,,,,,,,,,,,,,,,,,,,,training,6,15,0,left,a,,,,,1182.59,1182.639,35.84,-1.272705078,2.681762695,1,0,0,0.049,fixationPoint,1182.639,1182.741,1182.741,1184.556,35.84,10240,616.96,a,1,1.801,,1184.556,1184.746,,,,,,,,82,-163,-171,224,175,124,76,160,116,-66,160,-213,124,-20,120,64,-24,169,-32,116,-24,-172,-124,-24,-71,180,180,180,90,270,360,90,360,90,360,270,,,,,,,,,,,1184.746,1184.747,,0,94,94,94,1,9,novel,,,,,,,,,,,,,,,,,,,,,,,,,,,,,,,,,,,,,,,,,,,,,,,,,
,,25,7,${e://Field/PROLIFIC_PID,M,41,2023-11-03_21h49.55.035,MouseEye_CC,2023.2.2,Win32,62.5,1.28,,,1401,790,53.07899999999999,5.26,"491.2, 350.55, 427.22, 359.16, 309.08, 444.87, 355.96",965,9.264973913,48.73376278,27.83653633,Passed,163.2581053,,,,,,,,,,,,,,,,,,,,,training,6,16,180,right,s,,,,,1184.747,1184.823,35.84,-1.272705078,2.681762695,1,0,0,0.076,fixationPoint,1184.823,1184.922,1184.922,1186.722,35.84,10240,616.96,s,1,1.772,,1186.722,1186.923,,,,,,,,94,-80,-218,79,208,27,65,127,220,-116,68,-176,168,-126,164,210,-16,120,-78,32,-29,-68,-176,-221,-163,180,270,270,90,90,180,180,90,270,360,270,,,,,,,,,,,1186.923,1192.675,space,0,95,95,95,1,10,novel,5.728,,,,,,,,,,,,,,,,,,,,,,,,,,,,,,,,,,,,,,,,,,,,,,,,
,,25,7,${e://Field/PROLIFIC_PID,M,41,2023-11-03_21h49.55.035,MouseEye_CC,2023.2.2,Win32,62.5,1.28,,,1401,790,53.07899999999999,5.26,"491.2, 350.55, 427.22, 359.16, 309.08, 444.87, 355.96",965,9.264973913,48.73376278,27.83653633,Passed,163.2581053,,,,,,,,,,,,,,,,,,,,,training,7,1,0,left,a,,,,,1192.679,1193.739,35.84,-1.272705078,2.681762695,1,0,0,1.06,fixationPoint,1193.739,1193.838,1193.838,1197.022,35.84,10240,616.96,a,1,3.18,,1197.022,1197.223,,,,,,,,19,165,174,-79,220,-24,73,-66,160,-172,-124,-80,-218,-17,-162,169,-32,120,-219,163,-165,116,28,160,116,360,180,360,270,270,360,180,270,180,360,270,,,,,,,,,,,1197.223,1197.224,,0,96,96,96,1,1,repeated,,,,,,,,,,,,,,,,,,,,,,,,,,,,,,,,,,,,,,,,,,,,,,,,,
,,25,7,${e://Field/PROLIFIC_PID,M,41,2023-11-03_21h49.55.035,MouseEye_CC,2023.2.2,Win32,62.5,1.28,,,1401,790,53.07899999999999,5.26,"491.2, 350.55, 427.22, 359.16, 309.08, 444.87, 355.96",965,9.264973913,48.73376278,27.83653633,Passed,163.2581053,,,,,,,,,,,,,,,,,,,,,training,7,2,180,right,s,,,,,1197.224,1197.307,35.84,-1.272705078,2.681762695,1,0,0,0.083,fixationPoint,1197.307,1197.406,1197.406,1199.489,35.84,10240,616.96,s,1,2.069,,1199.489,1199.689,,,,,,,,79,175,-117,29,214,64,72,124,76,-176,168,-213,170,-26,27,-165,-215,-26,-117,-24,-71,215,-113,208,-174,360,90,360,270,360,90,360,360,180,270,270,,,,,,,,,,,1199.689,1199.689,,0,97,97,97,1,8,repeated,,,,,,,,,,,,,,,,,,,,,,,,,,,,,,,,,,,,,,,,,,,,,,,,,
,,25,7,${e://Field/PROLIFIC_PID,M,41,2023-11-03_21h49.55.035,MouseEye_CC,2023.2.2,Win32,62.5,1.28,,,1401,790,53.07899999999999,5.26,"491.2, 350.55, 427.22, 359.16, 309.08, 444.87, 355.96",965,9.264973913,48.73376278,27.83653633,Passed,163.2581053,,,,,,,,,,,,,,,,,,,,,training,7,3,0,left,a,,,,,1199.689,1199.706,35.84,-1.272705078,2.681762695,1,0,0,0.017,fixationPoint,1199.706,1199.806,1199.806,1201.607,35.84,10240,616.96,a,1,1.775,,1201.607,1201.805,,,,,,,,82,-163,-171,64,72,221,32,27,65,-126,164,-220,24,-30,218,114,-128,28,-215,68,-172,-24,-216,-210,-224,90,90,270,180,180,90,270,180,360,180,90,,,,,,,,,,,1201.805,1201.805,,0,98,98,98,1,9,novel,,,,,,,,,,,,,,,,,,,,,,,,,,,,,,,,,,,,,,,,,,,,,,,,,
,,25,7,${e://Field/PROLIFIC_PID,M,41,2023-11-03_21h49.55.035,MouseEye_CC,2023.2.2,Win32,62.5,1.28,,,1401,790,53.07899999999999,5.26,"491.2, 350.55, 427.22, 359.16, 309.08, 444.87, 355.96",965,9.264973913,48.73376278,27.83653633,Passed,163.2581053,,,,,,,,,,,,,,,,,,,,,training,7,4,0,left,a,,,,,1201.805,1201.872,35.84,-1.272705078,2.681762695,1,0,0,0.067,fixationPoint,1201.872,1201.968,1201.968,1203.372,35.84,10240,616.96,a,1,1.386,,1203.372,1203.573,,,,,,,,68,120,-78,165,23,124,162,73,172,-213,124,-70,72,-30,218,-17,-162,-24,-71,-128,-18,165,-217,126,-169,180,270,360,360,180,270,90,360,270,90,180,,,,,,,,,,,1203.573,1203.573,,0,99,99,99,1,11,novel,,,,,,,,,,,,,,,,,,,,,,,,,,,,,,,,,,,,,,,,,,,,,,,,,
,,25,7,${e://Field/PROLIFIC_PID,M,41,2023-11-03_21h49.55.035,MouseEye_CC,2023.2.2,Win32,62.5,1.28,,,1401,790,53.07899999999999,5.26,"491.2, 350.55, 427.22, 359.16, 309.08, 444.87, 355.96",965,9.264973913,48.73376278,27.83653633,Passed,163.2581053,,,,,,,,,,,,,,,,,,,,,training,7,5,180,right,s,,,,,1203.573,1203.64,35.84,-1.272705078,2.681762695,1,0,0,0.067,fixationPoint,1203.64,1203.739,1203.739,1205.289,35.84,10240,616.96,s,1,1.548,,1205.29,1205.489,,,,,,,,48,116,28,-170,217,-30,218,-66,160,-26,-117,-24,-71,-124,-221,17,-115,163,-165,68,-172,127,220,124,76,90,360,180,360,90,90,360,180,180,180,360,,,,,,,,,,,1205.489,1205.489,,0,100,100,100,1,13,novel,,,,,,,,,,,,,,,,,,,,,,,,,,,,,,,,,,,,,,,,,,,,,,,,,
,,25,7,${e://Field/PROLIFIC_PID,M,41,2023-11-03_21h49.55.035,MouseEye_CC,2023.2.2,Win32,62.5,1.28,,,1401,790,53.07899999999999,5.26,"491.2, 350.55, 427.22, 359.16, 309.08, 444.87, 355.96",965,9.264973913,48.73376278,27.83653633,Passed,163.2581053,,,,,,,,,,,,,,,,,,,,,training,7,6,180,right,s,,,,,1205.489,1205.94,35.84,-1.272705078,2.681762695,1,0,0,0.451,fixationPoint,1205.94,1206.047,1206.047,1208.473,35.84,10240,616.96,s,1,2.415,,1208.473,1208.673,,,,,,,,94,-80,-218,224,175,168,64,221,32,-172,116,-212,64,-20,120,215,-113,120,-219,64,-24,-166,-77,-210,-224,270,360,360,360,270,360,180,360,180,360,360,,,,,,,,,,,1208.673,1208.673,,0,101,101,101,1,10,novel,,,,,,,,,,,,,,,,,,,,,,,,,,,,,,,,,,,,,,,,,,,,,,,,,
,,25,7,${e://Field/PROLIFIC_PID,M,41,2023-11-03_21h49.55.035,MouseEye_CC,2023.2.2,Win32,62.5,1.28,,,1401,790,53.07899999999999,5.26,"491.2, 350.55, 427.22, 359.16, 309.08, 444.87, 355.96",965,9.264973913,48.73376278,27.83653633,Passed,163.2581053,,,,,,,,,,,,,,,,,,,,,training,7,7,180,right,s,,,,,1208.673,1208.739,35.84,-1.272705078,2.681762695,1,0,0,0.066,fixationPoint,1208.739,1208.84,1208.84,1210.749,35.84,10240,616.96,s,1,1.888,,1210.749,1210.939,,,,,,,,88,126,-169,124,76,160,116,127,220,-79,220,-162,80,-26,27,-165,-215,-80,-218,-124,-64,32,-29,214,-74,360,90,180,270,180,180,90,90,90,90,360,,,,,,,,,,,1210.939,1210.939,,0,102,102,102,1,12,novel,,,,,,,,,,,,,,,,,,,,,,,,,,,,,,,,,,,,,,,,,,,,,,,,,
,,25,7,${e://Field/PROLIFIC_PID,M,41,2023-11-03_21h49.55.035,MouseEye_CC,2023.2.2,Win32,62.5,1.28,,,1401,790,53.07899999999999,5.26,"491.2, 350.55, 427.22, 359.16, 309.08, 444.87, 355.96",965,9.264973913,48.73376278,27.83653633,Passed,163.2581053,,,,,,,,,,,,,,,,,,,,,training,7,8,0,left,a,,,,,1210.939,1211.011,35.84,-1.272705078,2.681762695,1,0,0,0.072,fixationPoint,1211.011,1211.107,1211.107,1212.191,35.84,10240,616.96,a,1,1.067,,1212.191,1212.391,,,,,,,,7,79,208,-30,218,-20,120,-77,115,-172,-32,-172,-124,-68,-176,215,-220,116,-24,165,-217,29,161,220,215,90,360,270,360,270,360,360,90,180,270,180,,,,,,,,,,,1212.391,1212.391,,0,103,103,103,1,2,repeated,,,,,,,,,,,,,,,,,,,,,,,,,,,,,,,,,,,,,,,,,,,,,,,,,
,,25,7,${e://Field/PROLIFIC_PID,M,41,2023-11-03_21h49.55.035,MouseEye_CC,2023.2.2,Win32,62.5,1.28,,,1401,790,53.07899999999999,5.26,"491.2, 350.55, 427.22, 359.16, 309.08, 444.87, 355.96",965,9.264973913,48.73376278,27.83653633,Passed,163.2581053,,,,,,,,,,,,,,,,,,,,,training,7,9,180,right,s,,,,,1212.391,1212.491,35.84,-1.272705078,2.681762695,1,0,0,0.1,fixationPoint,1212.491,1212.589,1212.589,1214.873,35.84,10240,616.96,s,1,2.28,,1214.873,1215.073,,,,,,,,96,28,-215,22,117,165,23,215,74,-213,170,-170,217,-220,24,-71,-113,-80,-218,-124,-64,215,-113,71,-114,90,90,90,270,180,90,360,180,180,360,90,,,,,,,,,,,1215.073,1215.073,,0,104,104,104,1,7,repeated,,,,,,,,,,,,,,,,,,,,,,,,,,,,,,,,,,,,,,,,,,,,,,,,,
,,25,7,${e://Field/PROLIFIC_PID,M,41,2023-11-03_21h49.55.035,MouseEye_CC,2023.2.2,Win32,62.5,1.28,,,1401,790,53.07899999999999,5.26,"491.2, 350.55, 427.22, 359.16, 309.08, 444.87, 355.96",965,9.264973913,48.73376278,27.83653633,Passed,163.2581053,,,,,,,,,,,,,,,,,,,,,training,7,10,180,right,s,,,,,1215.073,1215.158,35.84,-1.272705078,2.681762695,1,0,0,0.085,fixationPoint,1215.158,1215.256,1215.256,1216.775,35.84,10240,616.96,s,1,1.516,,1216.775,1216.963,,,,,,,,5,-30,218,29,23,73,172,124,76,-214,-118,-26,-117,-24,-216,120,-78,68,-172,215,-113,-176,168,-77,115,180,90,270,90,90,90,270,360,180,180,90,,,,,,,,,,,1216.963,1216.963,,0,105,105,105,1,15,novel,,,,,,,,,,,,,,,,,,,,,,,,,,,,,,,,,,,,,,,,,,,,,,,,,
,,25,7,${e://Field/PROLIFIC_PID,M,41,2023-11-03_21h49.55.035,MouseEye_CC,2023.2.2,Win32,62.5,1.28,,,1401,790,53.07899999999999,5.26,"491.2, 350.55, 427.22, 359.16, 309.08, 444.87, 355.96",965,9.264973913,48.73376278,27.83653633,Passed,163.2581053,,,,,,,,,,,,,,,,,,,,,training,7,11,0,left,a,,,,,1216.963,1217.09,35.84,-1.272705078,2.681762695,1,0,0,0.126,fixationPoint,1217.09,1217.185,1217.185,1219.023,35.84,10240,616.96,a,1,1.833,,1219.023,1219.223,,,,,,,,22,-172,116,165,174,220,127,215,74,-224,-68,-172,-124,-72,-80,64,-68,71,-114,215,-113,-164,29,-30,218,270,90,270,180,360,360,90,180,270,360,90,,,,,,,,,,,1219.223,1219.223,,0,106,106,106,1,16,novel,,,,,,,,,,,,,,,,,,,,,,,,,,,,,,,,,,,,,,,,,,,,,,,,,
,,25,7,${e://Field/PROLIFIC_PID,M,41,2023-11-03_21h49.55.035,MouseEye_CC,2023.2.2,Win32,62.5,1.28,,,1401,790,53.07899999999999,5.26,"491.2, 350.55, 427.22, 359.16, 309.08, 444.87, 355.96",965,9.264973913,48.73376278,27.83653633,Passed,163.2581053,,,,,,,,,,,,,,,,,,,,,training,7,12,0,left,a,,,,,1219.223,1219.322,35.84,-1.272705078,2.681762695,1,0,0,0.099,fixationPoint,1219.322,1219.424,1219.424,1220.406,35.84,10240,616.96,a,1,0.966,,1220.406,1220.6,,,,,,,,33,-116,68,27,65,165,174,215,74,-71,-113,-17,-162,-166,-77,120,-78,114,-128,28,-215,-26,27,-75,29,360,180,360,270,90,180,270,90,180,270,270,,,,,,,,,,,1220.6,1220.6,,0,107,107,107,1,3,repeated,,,,,,,,,,,,,,,,,,,,,,,,,,,,,,,,,,,,,,,,,,,,,,,,,
,,25,7,${e://Field/PROLIFIC_PID,M,41,2023-11-03_21h49.55.035,MouseEye_CC,2023.2.2,Win32,62.5,1.28,,,1401,790,53.07899999999999,5.26,"491.2, 350.55, 427.22, 359.16, 309.08, 444.87, 355.96",965,9.264973913,48.73376278,27.83653633,Passed,163.2581053,,,,,,,,,,,,,,,,,,,,,training,7,13,0,left,a,,,,,1220.6,1220.722,35.84,-1.272705078,2.681762695,1,0,0,0.122,fixationPoint,1220.722,1220.824,1220.824,1222.457,35.84,10240,616.96,a,1,1.619,,1222.457,1222.655,,,,,,,,62,-166,-77,73,172,29,161,29,23,-126,164,-212,64,-75,29,210,-16,28,-215,64,-208,-208,-27,-80,-218,270,270,360,360,360,360,90,90,360,270,270,,,,,,,,,,,1222.655,1222.655,,0,108,108,108,1,6,repeated,,,,,,,,,,,,,,,,,,,,,,,,,,,,,,,,,,,,,,,,,,,,,,,,,
,,25,7,${e://Field/PROLIFIC_PID,M,41,2023-11-03_21h49.55.035,MouseEye_CC,2023.2.2,Win32,62.5,1.28,,,1401,790,53.07899999999999,5.26,"491.2, 350.55, 427.22, 359.16, 309.08, 444.87, 355.96",965,9.264973913,48.73376278,27.83653633,Passed,163.2581053,,,,,,,,,,,,,,,,,,,,,training,7,14,180,right,s,,,,,1222.655,1222.755,35.84,-1.272705078,2.681762695,1,0,0,0.1,fixationPoint,1222.755,1222.859,1222.859,1224.09,35.84,10240,616.96,s,1,1.228,,1224.09,1224.289,,,,,,,,39,168,64,-20,120,-220,24,-16,170,-24,-71,-172,-124,-166,-77,17,-115,175,-117,64,-68,124,76,220,127,360,90,270,90,270,90,180,90,90,270,90,,,,,,,,,,,1224.289,1224.289,,0,109,109,109,1,14,novel,,,,,,,,,,,,,,,,,,,,,,,,,,,,,,,,,,,,,,,,,,,,,,,,,
,,25,7,${e://Field/PROLIFIC_PID,M,41,2023-11-03_21h49.55.035,MouseEye_CC,2023.2.2,Win32,62.5,1.28,,,1401,790,53.07899999999999,5.26,"491.2, 350.55, 427.22, 359.16, 309.08, 444.87, 355.96",965,9.264973913,48.73376278,27.83653633,Passed,163.2581053,,,,,,,,,,,,,,,,,,,,,training,7,15,180,right,s,,,,,1224.289,1224.356,35.84,-1.272705078,2.681762695,1,0,0,0.067,fixationPoint,1224.356,1224.458,1224.458,1226.855,35.84,10240,616.96,s,1,2.37,,1226.855,1227.056,,,,,,,,53,-128,-18,27,65,168,64,165,23,-217,210,-119,212,-170,217,175,-117,64,-208,27,-74,-17,-162,-68,-176,90,270,270,90,90,270,180,180,270,180,90,,,,,,,,,,,1227.056,1227.056,,0,110,110,110,1,5,repeated,,,,,,,,,,,,,,,,,,,,,,,,,,,,,,,,,,,,,,,,,,,,,,,,,
,,25,7,${e://Field/PROLIFIC_PID,M,41,2023-11-03_21h49.55.035,MouseEye_CC,2023.2.2,Win32,62.5,1.28,,,1401,790,53.07899999999999,5.26,"491.2, 350.55, 427.22, 359.16, 309.08, 444.87, 355.96",965,9.264973913,48.73376278,27.83653633,Passed,163.2581053,,,,,,,,,,,,,,,,,,,,,training,7,16,0,left,a,,,,,1227.057,1227.162,35.84,-1.272705078,2.681762695,1,0,0,0.105,fixationPoint,1227.162,1227.257,1227.257,1228.222,35.84,10240,616.96,a,1,0.95,,1228.222,1228.423,,,,,,,,13,-126,164,120,114,221,32,64,72,-72,-80,-210,-224,-24,-71,175,-117,64,-68,17,-115,-213,170,-172,116,90,270,360,90,90,180,270,180,180,90,180,,,,,,,,,,,1228.423,1230.757,space,0,111,111,111,1,4,repeated,2.307,,,,,,,,,,,,,,,,,,,,,,,,,,,,,,,,,,,,,,,,,,,,,,,,
,,25,7,${e://Field/PROLIFIC_PID,M,41,2023-11-03_21h49.55.035,MouseEye_CC,2023.2.2,Win32,62.5,1.28,,,1401,790,53.07899999999999,5.26,"491.2, 350.55, 427.22, 359.16, 309.08, 444.87, 355.96",965,9.264973913,48.73376278,27.83653633,Passed,163.2581053,,,,,,,,,,,,,,,,,,,,,training,8,1,180,right,s,,,,,1230.757,1231.091,35.84,-1.272705078,2.681762695,1,0,0,0.334,fixationPoint,1231.091,1231.189,1231.189,1232.505,35.84,10240,616.96,s,1,1.312,,1232.505,1232.706,,,,,,,,79,175,-117,29,214,64,72,124,76,-176,168,-213,170,-26,27,-165,-215,-26,-117,-24,-71,215,-113,208,-174,180,360,180,360,270,180,90,180,90,360,180,,,,,,,,,,,1232.706,1232.707,,0,112,112,112,1,8,repeated,,,,,,,,,,,,,,,,,,,,,,,,,,,,,,,,,,,,,,,,,,,,,,,,,
,,25,7,${e://Field/PROLIFIC_PID,M,41,2023-11-03_21h49.55.035,MouseEye_CC,2023.2.2,Win32,62.5,1.28,,,1401,790,53.07899999999999,5.26,"491.2, 350.55, 427.22, 359.16, 309.08, 444.87, 355.96",965,9.264973913,48.73376278,27.83653633,Passed,163.2581053,,,,,,,,,,,,,,,,,,,,,training,8,2,0,left,a,,,,,1232.708,1232.822,35.84,-1.272705078,2.681762695,1,0,0,0.114,fixationPoint,1232.822,1232.924,1232.924,1233.807,35.84,10240,616.96,a,1,0.854,,1233.807,1234.006,,,,,,,,68,120,-78,124,76,67,17,29,161,-70,72,-213,170,-20,120,-71,-113,-68,-176,-24,-216,215,-113,163,-165,180,360,180,90,270,270,180,360,180,180,180,,,,,,,,,,,1234.006,1234.007,,0,113,113,113,1,11,novel,,,,,,,,,,,,,,,,,,,,,,,,,,,,,,,,,,,,,,,,,,,,,,,,,
,,25,7,${e://Field/PROLIFIC_PID,M,41,2023-11-03_21h49.55.035,MouseEye_CC,2023.2.2,Win32,62.5,1.28,,,1401,790,53.07899999999999,5.26,"491.2, 350.55, 427.22, 359.16, 309.08, 444.87, 355.96",965,9.264973913,48.73376278,27.83653633,Passed,163.2581053,,,,,,,,,,,,,,,,,,,,,training,8,3,180,right,s,,,,,1234.007,1234.123,35.84,-1.272705078,2.681762695,1,0,0,0.116,fixationPoint,1234.123,1234.222,1234.222,1236.824,35.84,10240,616.96,s,1,2.598,,1236.824,1237.023,,,,,,,,53,-128,-18,27,65,168,64,165,23,-217,210,-119,212,-170,217,175,-117,64,-208,27,-74,-17,-162,-68,-176,360,180,270,360,90,180,360,90,360,270,270,,,,,,,,,,,1237.023,1237.024,,0,114,114,114,1,5,repeated,,,,,,,,,,,,,,,,,,,,,,,,,,,,,,,,,,,,,,,,,,,,,,,,,
,,25,7,${e://Field/PROLIFIC_PID,M,41,2023-11-03_21h49.55.035,MouseEye_CC,2023.2.2,Win32,62.5,1.28,,,1401,790,53.07899999999999,5.26,"491.2, 350.55, 427.22, 359.16, 309.08, 444.87, 355.96",965,9.264973913,48.73376278,27.83653633,Passed,163.2581053,,,,,,,,,,,,,,,,,,,,,training,8,4,0,left,a,,,,,1237.024,1237.123,35.84,-1.272705078,2.681762695,1,0,0,0.099,fixationPoint,1237.123,1237.222,1237.222,1239.124,35.84,10240,616.96,a,1,1.885,,1239.124,1239.323,,,,,,,,88,126,-169,29,214,165,222,224,175,-217,210,-75,29,-127,116,-24,-71,-114,-116,-124,-221,114,-128,169,-32,90,180,90,360,270,270,360,360,270,180,360,,,,,,,,,,,1239.323,1239.323,,0,115,115,115,1,12,novel,,,,,,,,,,,,,,,,,,,,,,,,,,,,,,,,,,,,,,,,,,,,,,,,,
