InstrStartPage.started,InstrStartPage.stopped,participant,designid,prolificid,Gender,Age,date,expName,psychopyVersion,OS,frameRate,ratio_monitor2CRT,VirtualChinrest.started,VirtualChinrest.stopped,xRes,yRes,viewingdistance_cm,pixeldensity_px2mm,BallPos,squarePos,mm2degree,px2degree,CRT_px2degree,PassVirtualChinrest,foveaRadius_inPixel,InstrRedo.started,InstrRedo.stopped,VirtualChinrest_Redo.started,VirtualChinrest_Redo.stopped,Redo_virtualChinrest,Instruction1.started,Instruction1.stopped,keyPractice.started,keyPractice.stopped,key_keyprac.keys,key_keyprac.corr,key_keyprac.rt,key_keyprac.duration,keyPracFeedback.started,keyPracFeedback.stopped,keyPracLoop.thisRepN,keyPracLoop.thisTrialN,keyPracLoop.thisN,keyPracLoop.thisIndex,keyPracLoop.ran,phase,block,trial,targOrientdeg,targOrient,corrAnswer,Instruction2.started,Instruction2.stopped,Instruction3.started,Instruction3.stopped,fixation.started,fixation.stopped,fixationSize,mouseintial.x,mouseintial.y,mouseintial.leftButton,mouseintial.midButton,mouseintial.rightButton,mouseintial.time,mouseintial.clicked_name,greenFixation.started,greenFixation.stopped,trial.started,trial.stopped,letterSize,apertureSize,searchsize,key_respMain.keys,key_respMain.corr,key_respMain.rt,key_respMain.duration,trialFeedback.started,trialFeedback.stopped,trialsPractice.thisRepN,trialsPractice.thisTrialN,trialsPractice.thisN,trialsPractice.thisIndex,trialsPractice.ran,targetQuad,Tcondition,targcell,tlocx,tlocy,d1x,d1y,d2x,d2y,d3x,d3y,d4x,d4y,d5x,d5y,d6x,d6y,d7x,d7y,d8x,d8y,d9x,d9y,d10x,d10y,d11x,d11y,d1Orient,d2Orient,d3Orient,d4Orient,d5Orient,d6Orient,d7Orient,d8Orient,d9Orient,d10Orient,d11Orient,CheckInstr.started,CheckInstr.stopped,key_checkInstr.keys,key_checkInstr.corr,key_checkInstr.rt,key_checkInstr.duration,CheckInstr_FB.started,CheckInstr_FB.stopped,Instruction_MainExp.started,Instruction_MainExp.stopped,TakeABreak.started,TakeABreak.stopped,key_respBreak.keys,trials.thisRepN,trials.thisTrialN,trials.thisN,trials.thisIndex,trials.ran,configurationNumber,CCCondition,key_respBreak.rt,key_respBreak.duration,displayTestingPhase.started,displayTestingPhase.stopped,key_respTesting.keys,key_respTesting.corr,key_respTesting.rt,key_respTesting.duration,TakeABreak2.started,TakeABreak2.stopped,key_RespBreak.keys,Testingtrials.thisRepN,Testingtrials.thisTrialN,Testingtrials.thisN,Testingtrials.thisIndex,Testingtrials.ran,key_RespBreak.rt,key_RespBreak.duration,RecogQuestion.started,RecogQuestion.stopped,key_AnswerQues.keys,key_AnswerQues.rt,key_AnswerQues.duration,Disclose.started,Disclose.stopped,InstrRT.started,InstrRT.stopped,fixation_RT.started,fixation_RT.stopped,mouseInitial.x,mouseInitial.y,mouseInitial.leftButton,mouseInitial.midButton,mouseInitial.rightButton,mouseInitial.time,mouseInitial.clicked_name,displayRT.started,displayRT.stopped,key_respRT.keys,key_respRT.corr,key_respRT.rt,key_respRT.duration,RTtrials.thisRepN,RTtrials.thisTrialN,RTtrials.thisN,RTtrials.thisIndex,RTtrials.ran,EndOfExperiment.started,EndOfExperiment.stopped
0.0002,9.842,26,4,${e://Field/PROLIFIC_PID,M,31,2023-11-04_03h43.33.991,MouseEye_CC,2023.2.2,Win32,61.10228523,1,,,,,,,,,,,,,,,,,,,,,,,,,,,,,,,,,,,,,,,,,,,,,,,,,,,,,,,,,,,,,,,,,,,,,,,,,,,,,,,,,,,,,,,,,,,,,,,,,,,,,,,,,,,,,,,,,,,,,,,,,,,,,,,,,,,,,,,,,,,,,,,,,,,,,,,,,,,,,,,,,,,,,,,,,,,,,,,,,,
,,26,4,${e://Field/PROLIFIC_PID,M,31,2023-11-04_03h43.33.991,MouseEye_CC,2023.2.2,Win32,61.10228523,1.643124544,9.8427,260.6066,1536,864,57.973,4.52,"130.65, 146.62, 153.67, 163.02, 140.83, 144.32, 164.48",778.79,10.11922479,45.73889605,27.83653633,Failed,153.2253018,,,,,,,,,,,,,,,,,,,,,,,,,,,,,,,,,,,,,,,,,,,,,,,,,,,,,,,,,,,,,,,,,,,,,,,,,,,,,,,,,,,,,,,,,,,,,,,,,,,,,,,,,,,,,,,,,,,,,,,,,,,,,,,,,,,,,,,,,,,,,,,,,,,,,,,,,,,,,,,,,,,,,
,,26,4,${e://Field/PROLIFIC_PID,M,31,2023-11-04_03h43.33.991,MouseEye_CC,2023.2.2,Win32,61.10228523,1.643124544,,,1536,864,57.973,4.52,"130.65, 146.62, 153.67, 163.02, 140.83, 144.32, 164.48",778.79,10.11922479,45.73889605,27.83653633,Failed,153.2253018,260.6074,274.0328,,,,,,,,,,,,,,,,,,,,,,,,,,,,,,,,,,,,,,,,,,,,,,,,,,,,,,,,,,,,,,,,,,,,,,,,,,,,,,,,,,,,,,,,,,,,,,,,,,,,,,,,,,,,,,,,,,,,,,,,,,,,,,,,,,,,,,,,,,,,,,,,,,,,,,,,,,,,,,,,,,,
,,26,4,${e://Field/PROLIFIC_PID,M,31,2023-11-04_03h43.33.991,MouseEye_CC,2023.2.2,Win32,61.10228523,1.28,,,1536,864,50.284,4.52,"130.65, 146.62, 153.67, 163.02, 140.83, 144.32, 164.48",778.79,8.777104849,39.67251392,27.83653633,Failed,132.9029216,,,274.033,349.4576,failed,,,,,,,,,,,,,,,,,,,,,,,,,,,,,,,,,,,,,,,,,,,,,,,,,,,,,,,,,,,,,,,,,,,,,,,,,,,,,,,,,,,,,,,,,,,,,,,,,,,,,,,,,,,,,,,,,,,,,,,,,,,,,,,,,,,,,,,,,,,,,,,,,,,,,,,,,,,,,,,,
,,26,4,${e://Field/PROLIFIC_PID,M,31,2023-11-04_03h43.33.991,MouseEye_CC,2023.2.2,Win32,61.10228523,1.28,,,1536,864,50.284,4.52,"130.65, 146.62, 153.67, 163.02, 140.83, 144.32, 164.48",778.79,8.777104849,39.67251392,27.83653633,Failed,132.9029216,,,,,,349.4583,369.989,,,,,,,,,,,,,,,,,,,,,,,,,,,,,,,,,,,,,,,,,,,,,,,,,,,,,,,,,,,,,,,,,,,,,,,,,,,,,,,,,,,,,,,,,,,,,,,,,,,,,,,,,,,,,,,,,,,,,,,,,,,,,,,,,,,,,,,,,,,,,,,,,,,,,,,,,,,,,,
,,26,4,${e://Field/PROLIFIC_PID,M,31,2023-11-04_03h43.33.991,MouseEye_CC,2023.2.2,Win32,61.10228523,1.28,,,1536,864,50.284,4.52,"130.65, 146.62, 153.67, 163.02, 140.83, 144.32, 164.48",778.79,8.777104849,39.67251392,27.83653633,Failed,132.9029216,,,,,,,,370.0394,370.988,a,1,0.4059,,370.9887,371.4872,0,0,0,0,1,practice,1,1,0,left,a,,,,,,,,,,,,,,,,,,,,,,,,,,,,,,,,,,,,,,,,,,,,,,,,,,,,,,,,,,,,,,,,,,,,,,,,,,,,,,,,,,,,,,,,,,,,,,,,,,,,,,,,,,,,,,,,,,,,,,,,,,,,,,,,,,,,,,,,,,,
,,26,4,${e://Field/PROLIFIC_PID,M,31,2023-11-04_03h43.33.991,MouseEye_CC,2023.2.2,Win32,61.10228523,1.28,,,1536,864,50.284,4.52,"130.65, 146.62, 153.67, 163.02, 140.83, 144.32, 164.48",778.79,8.777104849,39.67251392,27.83653633,Failed,132.9029216,,,,,,,,371.489,372.5025,a,1,0.485,,372.5027,373.0024,0,1,1,1,1,practice,1,2,0,left,a,,,,,,,,,,,,,,,,,,,,,,,,,,,,,,,,,,,,,,,,,,,,,,,,,,,,,,,,,,,,,,,,,,,,,,,,,,,,,,,,,,,,,,,,,,,,,,,,,,,,,,,,,,,,,,,,,,,,,,,,,,,,,,,,,,,,,,,,,,,
,,26,4,${e://Field/PROLIFIC_PID,M,31,2023-11-04_03h43.33.991,MouseEye_CC,2023.2.2,Win32,61.10228523,1.28,,,1536,864,50.284,4.52,"130.65, 146.62, 153.67, 163.02, 140.83, 144.32, 164.48",778.79,8.777104849,39.67251392,27.83653633,Failed,132.9029216,,,,,,,,373.0039,373.8852,a,1,0.3695,,373.8853,374.3851,0,2,2,2,1,practice,1,3,0,left,a,,,,,,,,,,,,,,,,,,,,,,,,,,,,,,,,,,,,,,,,,,,,,,,,,,,,,,,,,,,,,,,,,,,,,,,,,,,,,,,,,,,,,,,,,,,,,,,,,,,,,,,,,,,,,,,,,,,,,,,,,,,,,,,,,,,,,,,,,,,
,,26,4,${e://Field/PROLIFIC_PID,M,31,2023-11-04_03h43.33.991,MouseEye_CC,2023.2.2,Win32,61.10228523,1.28,,,1536,864,50.284,4.52,"130.65, 146.62, 153.67, 163.02, 140.83, 144.32, 164.48",778.79,8.777104849,39.67251392,27.83653633,Failed,132.9029216,,,,,,,,374.3861,375.4516,s,1,0.5344,,375.4518,375.9517,0,3,3,3,1,practice,1,4,180,right,s,,,,,,,,,,,,,,,,,,,,,,,,,,,,,,,,,,,,,,,,,,,,,,,,,,,,,,,,,,,,,,,,,,,,,,,,,,,,,,,,,,,,,,,,,,,,,,,,,,,,,,,,,,,,,,,,,,,,,,,,,,,,,,,,,,,,,,,,,,,
,,26,4,${e://Field/PROLIFIC_PID,M,31,2023-11-04_03h43.33.991,MouseEye_CC,2023.2.2,Win32,61.10228523,1.28,,,1536,864,50.284,4.52,"130.65, 146.62, 153.67, 163.02, 140.83, 144.32, 164.48",778.79,8.777104849,39.67251392,27.83653633,Failed,132.9029216,,,,,,,,375.9528,376.9182,s,1,0.4186,,376.9183,377.4181,0,4,4,4,1,practice,1,5,180,right,s,,,,,,,,,,,,,,,,,,,,,,,,,,,,,,,,,,,,,,,,,,,,,,,,,,,,,,,,,,,,,,,,,,,,,,,,,,,,,,,,,,,,,,,,,,,,,,,,,,,,,,,,,,,,,,,,,,,,,,,,,,,,,,,,,,,,,,,,,,,
,,26,4,${e://Field/PROLIFIC_PID,M,31,2023-11-04_03h43.33.991,MouseEye_CC,2023.2.2,Win32,61.10228523,1.28,,,1536,864,50.284,4.52,"130.65, 146.62, 153.67, 163.02, 140.83, 144.32, 164.48",778.79,8.777104849,39.67251392,27.83653633,Failed,132.9029216,,,,,,,,377.4191,378.4677,a,1,0.5079,,378.4679,378.9573,0,5,5,5,1,practice,1,6,0,left,a,,,,,,,,,,,,,,,,,,,,,,,,,,,,,,,,,,,,,,,,,,,,,,,,,,,,,,,,,,,,,,,,,,,,,,,,,,,,,,,,,,,,,,,,,,,,,,,,,,,,,,,,,,,,,,,,,,,,,,,,,,,,,,,,,,,,,,,,,,,
,,26,4,${e://Field/PROLIFIC_PID,M,31,2023-11-04_03h43.33.991,MouseEye_CC,2023.2.2,Win32,61.10228523,1.28,,,1536,864,50.284,4.52,"130.65, 146.62, 153.67, 163.02, 140.83, 144.32, 164.48",778.79,8.777104849,39.67251392,27.83653633,Failed,132.9029216,,,,,,,,,,,,,,,,,,,,,,,,,,,378.9598,389.692,,,,,,,,,,,,,,,,,,,,,,,,,,,,,,,,,,,,,,,,,,,,,,,,,,,,,,,,,,,,,,,,,,,,,,,,,,,,,,,,,,,,,,,,,,,,,,,,,,,,,,,,,,,,,,,,,,,,,,,,,,,,,,,,,,,,,,,,,
,,26,4,${e://Field/PROLIFIC_PID,M,31,2023-11-04_03h43.33.991,MouseEye_CC,2023.2.2,Win32,61.10228523,1.28,,,1536,864,50.284,4.52,"130.65, 146.62, 153.67, 163.02, 140.83, 144.32, 164.48",778.79,8.777104849,39.67251392,27.83653633,Failed,132.9029216,,,,,,,,,,,,,,,,,,,,,,,,,,,,,389.6926,405.5816,,,,,,,,,,,,,,,,,,,,,,,,,,,,,,,,,,,,,,,,,,,,,,,,,,,,,,,,,,,,,,,,,,,,,,,,,,,,,,,,,,,,,,,,,,,,,,,,,,,,,,,,,,,,,,,,,,,,,,,,,,,,,,,,,,,,,,,
,,26,4,${e://Field/PROLIFIC_PID,M,31,2023-11-04_03h43.33.991,MouseEye_CC,2023.2.2,Win32,61.10228523,1.28,,,1536,864,50.284,4.52,"130.65, 146.62, 153.67, 163.02, 140.83, 144.32, 164.48",778.79,8.777104849,39.67251392,27.83653633,Failed,132.9029216,,,,,,,,,,,,,,,,,,,,,practice,0,1,0,left,a,,,,,405.621,407.1307,35.84,-0.799987793,1.600006104,1,0,0,1.5087,fixationPoint,407.1316,407.2293,407.2303,409.5634,35.84,10240,616.96,a,1,2.3078,,409.5641,409.7628,0,0,0,0,1,4,sparse,90,217,-164,68,123,222,26,214,216,-218,159,-120,223,-110,82,-115,-130,-224,-120,-68,-219,79,-175,19,-128,90,270,360,90,270,270,180,90,90,90,270,,,,,,,,,,,,,,,,,,,,,,,,,,,,,,,,,,,,,,,,,,,,,,,,,,,,,,,,,,,,,,,,,,,,,
,,26,4,${e://Field/PROLIFIC_PID,M,31,2023-11-04_03h43.33.991,MouseEye_CC,2023.2.2,Win32,61.10228523,1.28,,,1536,864,50.284,4.52,"130.65, 146.62, 153.67, 163.02, 140.83, 144.32, 164.48",778.79,8.777104849,39.67251392,27.83653633,Failed,132.9029216,,,,,,,,,,,,,,,,,,,,,practice,0,2,0,left,a,,,,,409.7645,410.8196,35.84,-0.799987793,1.600006104,1,0,0,1.0547,fixationPoint,410.8197,410.9112,410.9114,412.5618,35.84,10240,616.96,a,1,1.6215,,412.562,412.761,0,1,1,1,1,1,rich,39,169,66,-126,125,-169,169,-130,19,-169,-116,-125,-167,-224,-216,218,-129,171,-218,18,-208,166,26,17,170,180,90,360,270,90,90,90,270,180,180,270,,,,,,,,,,,,,,,,,,,,,,,,,,,,,,,,,,,,,,,,,,,,,,,,,,,,,,,,,,,,,,,,,,,,,
,,26,4,${e://Field/PROLIFIC_PID,M,31,2023-11-04_03h43.33.991,MouseEye_CC,2023.2.2,Win32,61.10228523,1.28,,,1536,864,50.284,4.52,"130.65, 146.62, 153.67, 163.02, 140.83, 144.32, 164.48",778.79,8.777104849,39.67251392,27.83653633,Failed,132.9029216,,,,,,,,,,,,,,,,,,,,,practice,0,3,0,left,a,,,,,412.7622,413.6116,35.84,-0.799987793,1.600006104,1,0,0,0.8487,fixationPoint,413.6118,413.7107,413.711,418.6934,35.84,10240,616.96,a,1,4.9566,,418.6937,418.8938,0,2,2,2,1,2,sparse,22,-162,126,222,26,17,170,126,172,-25,-117,-175,-206,-224,-216,116,-19,130,-174,217,-164,-218,159,-21,162,90,90,180,360,360,270,360,360,360,360,180,,,,,,,,,,,,,,,,,,,,,,,,,,,,,,,,,,,,,,,,,,,,,,,,,,,,,,,,,,,,,,,,,,,,,
,,26,4,${e://Field/PROLIFIC_PID,M,31,2023-11-04_03h43.33.991,MouseEye_CC,2023.2.2,Win32,61.10228523,1.28,,,1536,864,50.284,4.52,"130.65, 146.62, 153.67, 163.02, 140.83, 144.32, 164.48",778.79,8.777104849,39.67251392,27.83653633,Failed,132.9029216,,,,,,,,,,,,,,,,,,,,,practice,0,4,180,right,s,,,,,418.8954,419.9769,35.84,-0.799987793,1.600006104,1,0,0,1.0807,fixationPoint,419.9772,420.0763,420.0765,421.1489,35.84,10240,616.96,s,1,1.0505,,421.1491,421.3432,0,3,3,3,1,4,sparse,76,19,-128,159,121,214,216,219,165,-218,159,-162,126,-219,119,-169,-116,-111,-31,-175,-206,18,-208,81,-114,90,270,180,180,270,180,360,360,360,270,360,,,,,,,,,,,,,,,,,,,,,,,,,,,,,,,,,,,,,,,,,,,,,,,,,,,,,,,,,,,,,,,,,,,,,
,,26,4,${e://Field/PROLIFIC_PID,M,31,2023-11-04_03h43.33.991,MouseEye_CC,2023.2.2,Win32,61.10228523,1.28,,,1536,864,50.284,4.52,"130.65, 146.62, 153.67, 163.02, 140.83, 144.32, 164.48",778.79,8.777104849,39.67251392,27.83653633,Failed,132.9029216,,,,,,,,,,,,,,,,,,,,,practice,0,5,180,right,s,,,,,421.345,422.0098,35.84,-0.799987793,1.600006104,1,0,0,0.6643,fixationPoint,422.01,422.0984,422.0985,423.4925,35.84,10240,616.96,s,1,1.371,,423.4928,423.6921,0,4,4,4,1,3,sparse,85,-19,-173,219,165,68,123,214,216,-160,68,-64,120,-226,34,162,-21,224,-216,167,-163,-167,-74,-224,-216,360,360,360,90,180,270,90,360,270,270,360,,,,,,,,,,,,,,,,,,,,,,,,,,,,,,,,,,,,,,,,,,,,,,,,,,,,,,,,,,,,,,,,,,,,,
,,26,4,${e://Field/PROLIFIC_PID,M,31,2023-11-04_03h43.33.991,MouseEye_CC,2023.2.2,Win32,61.10228523,1.28,,,1536,864,50.284,4.52,"130.65, 146.62, 153.67, 163.02, 140.83, 144.32, 164.48",778.79,8.777104849,39.67251392,27.83653633,Failed,132.9029216,,,,,,,,,,,,,,,,,,,,,practice,0,6,180,right,s,,,,,423.6935,424.3413,35.84,-0.799987793,1.600006104,1,0,0,0.6474,fixationPoint,424.3415,424.4411,424.4413,427.1589,35.84,10240,616.96,s,1,2.6917,,427.1592,427.3582,0,5,5,5,1,3,sparse,95,-21,-224,126,172,219,165,166,26,-166,207,-223,206,-219,119,169,-75,18,-208,224,-216,-72,-121,-115,-130,180,180,360,180,360,180,270,180,90,180,360,,,,,,,,,,,,,,,,,,,,,,,,,,,,,,,,,,,,,,,,,,,,,,,,,,,,,,,,,,,,,,,,,,,,,
,,26,4,${e://Field/PROLIFIC_PID,M,31,2023-11-04_03h43.33.991,MouseEye_CC,2023.2.2,Win32,61.10228523,1.28,,,1536,864,50.284,4.52,"130.65, 146.62, 153.67, 163.02, 140.83, 144.32, 164.48",778.79,8.777104849,39.67251392,27.83653633,Failed,132.9029216,,,,,,,,,,,,,,,,,,,,,practice,0,7,0,left,a,,,,,427.3597,428.1854,35.84,-0.799987793,1.600006104,1,0,0,0.8251,fixationPoint,428.1855,428.2744,428.2746,431.0244,35.84,10240,616.96,a,1,2.7184,,431.0248,431.224,0,6,6,6,1,1,rich,7,62,223,-166,207,-226,34,-162,126,-169,-116,-168,-160,-161,-27,15,-162,162,-21,79,-175,219,165,219,129,180,180,360,180,270,360,180,360,270,180,360,,,,,,,,,,,,,,,,,,,,,,,,,,,,,,,,,,,,,,,,,,,,,,,,,,,,,,,,,,,,,,,,,,,,,
,,26,4,${e://Field/PROLIFIC_PID,M,31,2023-11-04_03h43.33.991,MouseEye_CC,2023.2.2,Win32,61.10228523,1.28,,,1536,864,50.284,4.52,"130.65, 146.62, 153.67, 163.02, 140.83, 144.32, 164.48",778.79,8.777104849,39.67251392,27.83653633,Failed,132.9029216,,,,,,,,,,,,,,,,,,,,,practice,0,8,180,right,s,,,,,431.2255,432.1734,35.84,-0.799987793,1.600006104,1,0,0,0.9474,fixationPoint,432.1736,432.274,432.2742,433.158,35.84,10240,616.96,s,1,0.8524,,433.1582,433.3571,0,7,7,7,1,2,sparse,24,-64,120,18,215,126,172,33,121,-206,-170,-64,-162,-218,-78,130,-174,211,-74,168,-130,-164,32,-21,162,90,180,270,360,180,90,180,180,180,360,270,,,,,,,,,,,,,,,,,,,,,,,,,,,,,,,,,,,,,,,,,,,,,,,,,,,,,,,,,,,,,,,,,,,,,
,,26,4,${e://Field/PROLIFIC_PID,M,31,2023-11-04_03h43.33.991,MouseEye_CC,2023.2.2,Win32,61.10228523,1.28,,,1536,864,50.284,4.52,"130.65, 146.62, 153.67, 163.02, 140.83, 144.32, 164.48",778.79,8.777104849,39.67251392,27.83653633,Failed,132.9029216,,,,,,,,,,,,,,,,,,,,,practice,0,9,180,right,s,,,,,433.3587,433.8572,35.84,-0.799987793,1.600006104,1,0,0,0.4981,fixationPoint,433.8575,433.9576,433.9579,434.6739,35.84,10240,616.96,s,1,0.6888,,434.6742,434.8799,0,8,8,8,1,3,sparse,85,-19,-173,127,30,62,223,217,67,-110,82,-21,162,-80,218,167,-163,126,-79,130,-174,-125,-167,-68,-219,360,360,360,180,360,360,180,270,90,360,180,,,,,,,,,,,,,,,,,,,,,,,,,,,,,,,,,,,,,,,,,,,,,,,,,,,,,,,,,,,,,,,,,,,,,
,,26,4,${e://Field/PROLIFIC_PID,M,31,2023-11-04_03h43.33.991,MouseEye_CC,2023.2.2,Win32,61.10228523,1.28,,,1536,864,50.284,4.52,"130.65, 146.62, 153.67, 163.02, 140.83, 144.32, 164.48",778.79,8.777104849,39.67251392,27.83653633,Failed,132.9029216,,,,,,,,,,,,,,,,,,,,,practice,0,10,180,right,s,,,,,434.8808,435.3736,35.84,-0.799987793,1.600006104,1,0,0,0.4924,fixationPoint,435.3737,435.4735,435.4738,439.127,35.84,10240,616.96,s,1,3.6305,,439.1271,439.3227,0,9,9,9,1,1,rich,9,160,209,-166,207,-226,34,-120,223,-224,-120,-118,-217,-218,-78,112,-209,126,-113,169,-75,178,160,110,129,180,90,90,270,360,270,360,180,360,180,360,,,,,,,,,,,,,,,,,,,,,,,,,,,,,,,,,,,,,,,,,,,,,,,,,,,,,,,,,,,,,,,,,,,,,
,,26,4,${e://Field/PROLIFIC_PID,M,31,2023-11-04_03h43.33.991,MouseEye_CC,2023.2.2,Win32,61.10228523,1.28,,,1536,864,50.284,4.52,"130.65, 146.62, 153.67, 163.02, 140.83, 144.32, 164.48",778.79,8.777104849,39.67251392,27.83653633,Failed,132.9029216,,,,,,,,,,,,,,,,,,,,,practice,0,11,180,right,s,,,,,439.3239,439.8897,35.84,-0.799987793,1.600006104,1,0,0,0.5651,fixationPoint,439.8898,439.9891,439.9892,441.9887,35.84,10240,616.96,s,1,1.9757,,441.989,442.1884,0,10,10,10,1,4,sparse,80,218,-129,62,223,159,121,110,129,-218,159,-223,206,-75,173,-169,-116,-118,-217,-125,-167,217,-164,169,-75,360,270,360,180,360,180,180,270,360,180,90,,,,,,,,,,,,,,,,,,,,,,,,,,,,,,,,,,,,,,,,,,,,,,,,,,,,,,,,,,,,,,,,,,,,,
,,26,4,${e://Field/PROLIFIC_PID,M,31,2023-11-04_03h43.33.991,MouseEye_CC,2023.2.2,Win32,61.10228523,1.28,,,1536,864,50.284,4.52,"130.65, 146.62, 153.67, 163.02, 140.83, 144.32, 164.48",778.79,8.777104849,39.67251392,27.83653633,Failed,132.9029216,,,,,,,,,,,,,,,,,,,,,practice,0,12,0,left,a,,,,,442.1893,442.8223,35.84,-0.799987793,0.799987793,1,0,0,0.6325,fixationPoint,442.8225,442.9212,442.9213,444.155,35.84,10240,616.96,a,1,1.2034,,444.1553,444.3443,0,11,11,11,1,3,sparse,75,-25,-117,110,129,125,63,214,216,-164,32,-27,117,-126,125,171,-218,126,-113,167,-163,-21,-224,-212,-21,270,180,180,360,180,270,360,270,360,180,270,,,,,,,,,,,,,,,,,,,,,,,,,,,,,,,,,,,,,,,,,,,,,,,,,,,,,,,,,,,,,,,,,,,,,
,,26,4,${e://Field/PROLIFIC_PID,M,31,2023-11-04_03h43.33.991,MouseEye_CC,2023.2.2,Win32,61.10228523,1.28,,,1536,864,50.284,4.52,"130.65, 146.62, 153.67, 163.02, 140.83, 144.32, 164.48",778.79,8.777104849,39.67251392,27.83653633,Failed,132.9029216,,,,,,,,,,,,,,,,,,,,,,,,,,,,,,,,,,,,,,,,,,,,,,,,,,,,,,,,,,,,,,,,,,,,,,,,,,,,,,,,,,,,,,,,,,,,,,,,,444.3465,452.0223,a,1,7.6479,,,,,,,,,,,,,,,,,,,,,,,,,,,,,,,,,,,,,,,,,,,,,,,,,,,,,,,,,,,,,,,,
,,26,4,${e://Field/PROLIFIC_PID,M,31,2023-11-04_03h43.33.991,MouseEye_CC,2023.2.2,Win32,61.10228523,1.28,,,1536,864,50.284,4.52,"130.65, 146.62, 153.67, 163.02, 140.83, 144.32, 164.48",778.79,8.777104849,39.67251392,27.83653633,Failed,132.9029216,,,,,,,,,,,,,,,,,,,,,,,,,,,,,,,,,,,,,,,,,,,,,,,,,,,,,,,,,,,,,,,,,,,,,,,,,,,,,,,,,,,,,,,,,,,,,,,,,,,,,,,452.0229,457.8036,,,,,,,,,,,,,,,,,,,,,,,,,,,,,,,,,,,,,,,,,,,,,,,,,,,,,,,,,,,,,
,,26,4,${e://Field/PROLIFIC_PID,M,31,2023-11-04_03h43.33.991,MouseEye_CC,2023.2.2,Win32,61.10228523,1.28,,,1536,864,50.284,4.52,"130.65, 146.62, 153.67, 163.02, 140.83, 144.32, 164.48",778.79,8.777104849,39.67251392,27.83653633,Failed,132.9029216,,,,,,,,,,,,,,,,,,,,,,,,,,,,,,,,,,,,,,,,,,,,,,,,,,,,,,,,,,,,,,,,,,,,,,,,,,,,,,,,,,,,,,,,,,,,,,,,,,,,,,,,,457.8038,485.5498,,,,,,,,,,,,,,,,,,,,,,,,,,,,,,,,,,,,,,,,,,,,,,,,,,,,,,,,,,,
,,26,4,${e://Field/PROLIFIC_PID,M,31,2023-11-04_03h43.33.991,MouseEye_CC,2023.2.2,Win32,61.10228523,1.28,,,1536,864,50.284,4.52,"130.65, 146.62, 153.67, 163.02, 140.83, 144.32, 164.48",778.79,8.777104849,39.67251392,27.83653633,Failed,132.9029216,,,,,,,,,,,,,,,,,,,,,training,1,1,0,left,a,,,,,485.644,487.6798,35.84,-0.799987793,0.799987793,1,0,0,2.0353,fixationPoint,487.68,487.7792,487.7792,489.546,35.84,10240,616.96,a,1,1.7526,,489.5461,489.7451,,,,,,,,96,20,-222,208,24,222,168,169,125,-174,115,-128,76,-68,174,-218,-30,-170,-118,-65,-160,168,-220,19,-127,360,360,180,180,360,360,360,360,270,180,270,,,,,,,,,,,489.7456,489.7477,,0,0,0,0,1,12,novel,,,,,,,,,,,,,,,,,,,,,,,,,,,,,,,,,,,,,,,,,,,,,,,,,
,,26,4,${e://Field/PROLIFIC_PID,M,31,2023-11-04_03h43.33.991,MouseEye_CC,2023.2.2,Win32,61.10228523,1.28,,,1536,864,50.284,4.52,"130.65, 146.62, 153.67, 163.02, 140.83, 144.32, 164.48",778.79,8.777104849,39.67251392,27.83653633,Failed,132.9029216,,,,,,,,,,,,,,,,,,,,,training,1,2,0,left,a,,,,,489.748,490.9952,35.84,4.799987793,-0.800018311,1,0,0,1.2469,fixationPoint,490.9954,491.095,491.0951,495.4507,35.84,10240,616.96,a,1,4.3481,,495.4508,495.6452,,,,,,,,4,-80,213,21,68,208,24,120,66,-224,-218,-218,-30,-65,-160,80,-120,124,-170,72,-221,-221,25,-16,126,270,360,180,90,270,90,360,270,360,90,360,,,,,,,,,,,495.6453,495.6456,,0,1,1,1,1,15,novel,,,,,,,,,,,,,,,,,,,,,,,,,,,,,,,,,,,,,,,,,,,,,,,,,
,,26,4,${e://Field/PROLIFIC_PID,M,31,2023-11-04_03h43.33.991,MouseEye_CC,2023.2.2,Win32,61.10228523,1.28,,,1536,864,50.284,4.52,"130.65, 146.62, 153.67, 163.02, 140.83, 144.32, 164.48",778.79,8.777104849,39.67251392,27.83653633,Failed,132.9029216,,,,,,,,,,,,,,,,,,,,,training,1,3,180,right,s,,,,,495.6464,497.1102,35.84,-8,-4,1,0,0,1.4636,fixationPoint,497.1102,497.2109,497.2111,501.394,35.84,10240,616.96,s,1,4.1516,,501.3942,501.5937,,,,,,,,97,72,-221,169,125,175,209,26,171,-20,212,-216,125,-160,70,-176,-68,-170,-118,-169,-161,127,-127,80,-120,180,180,180,270,180,90,180,180,360,90,360,,,,,,,,,,,501.5938,501.5943,,0,2,2,2,1,7,repeated,,,,,,,,,,,,,,,,,,,,,,,,,,,,,,,,,,,,,,,,,,,,,,,,,
,,26,4,${e://Field/PROLIFIC_PID,M,31,2023-11-04_03h43.33.991,MouseEye_CC,2023.2.2,Win32,61.10228523,1.28,,,1536,864,50.284,4.52,"130.65, 146.62, 153.67, 163.02, 140.83, 144.32, 164.48",778.79,8.777104849,39.67251392,27.83653633,Failed,132.9029216,,,,,,,,,,,,,,,,,,,,,training,1,4,180,right,s,,,,,501.5954,503.4254,35.84,4,3.199981689,1,0,0,1.8299,fixationPoint,503.4254,503.5263,503.5265,505.2589,35.84,10240,616.96,s,1,1.7027,,505.259,505.4592,,,,,,,,25,-16,126,26,217,20,116,72,175,-31,-65,-117,-167,-121,-18,126,-28,209,-208,163,-120,-128,76,-116,112,180,360,180,90,90,360,180,90,90,360,360,,,,,,,,,,,505.4594,505.4599,,0,3,3,3,1,3,repeated,,,,,,,,,,,,,,,,,,,,,,,,,,,,,,,,,,,,,,,,,,,,,,,,,
,,26,4,${e://Field/PROLIFIC_PID,M,31,2023-11-04_03h43.33.991,MouseEye_CC,2023.2.2,Win32,61.10228523,1.28,,,1536,864,50.284,4.52,"130.65, 146.62, 153.67, 163.02, 140.83, 144.32, 164.48",778.79,8.777104849,39.67251392,27.83653633,Failed,132.9029216,,,,,,,,,,,,,,,,,,,,,training,1,5,0,left,a,,,,,505.461,506.4922,35.84,2.400024414,3.199981689,1,0,0,1.0309,fixationPoint,506.4923,506.5919,506.5921,508.7417,35.84,10240,616.96,a,1,2.1225,,508.7419,508.9411,,,,,,,,62,-176,-68,208,24,120,66,80,222,-208,172,-174,115,-80,213,222,-126,164,-173,20,-222,-24,-17,-117,-167,270,360,90,90,90,360,180,360,180,270,270,,,,,,,,,,,508.9412,508.9417,,0,4,4,4,1,10,novel,,,,,,,,,,,,,,,,,,,,,,,,,,,,,,,,,,,,,,,,,,,,,,,,,
,,26,4,${e://Field/PROLIFIC_PID,M,31,2023-11-04_03h43.33.991,MouseEye_CC,2023.2.2,Win32,61.10228523,1.28,,,1536,864,50.284,4.52,"130.65, 146.62, 153.67, 163.02, 140.83, 144.32, 164.48",778.79,8.777104849,39.67251392,27.83653633,Failed,132.9029216,,,,,,,,,,,,,,,,,,,,,training,1,6,180,right,s,,,,,508.9425,509.9415,35.84,-3.200012207,-6.399993896,1,0,0,0.9988,fixationPoint,509.9416,510.0471,510.0471,513.3413,35.84,10240,616.96,s,1,3.2747,,513.3416,513.541,,,,,,,,13,-126,173,77,23,212,128,123,112,-31,-65,-65,-160,-20,-123,211,-168,27,-68,27,-27,-176,26,-73,119,180,270,360,90,270,270,270,90,360,180,90,,,,,,,,,,,513.5413,513.5423,,0,5,5,5,1,16,novel,,,,,,,,,,,,,,,,,,,,,,,,,,,,,,,,,,,,,,,,,,,,,,,,,
,,26,4,${e://Field/PROLIFIC_PID,M,31,2023-11-04_03h43.33.991,MouseEye_CC,2023.2.2,Win32,61.10228523,1.28,,,1536,864,50.284,4.52,"130.65, 146.62, 153.67, 163.02, 140.83, 144.32, 164.48",778.79,8.777104849,39.67251392,27.83653633,Failed,132.9029216,,,,,,,,,,,,,,,,,,,,,training,1,7,0,left,a,,,,,513.5434,514.5569,35.84,1.600036621,4,1,0,0,1.0133,fixationPoint,514.5571,514.6624,514.6624,517.2419,35.84,10240,616.96,a,1,2.5609,,517.2423,517.4405,,,,,,,,39,164,76,-174,115,-160,70,-20,212,-163,-220,-19,-223,-65,-160,68,-64,27,-27,169,-32,72,175,218,80,180,180,270,90,90,270,90,180,270,270,270,,,,,,,,,,,517.4407,517.4415,,0,6,6,6,1,2,repeated,,,,,,,,,,,,,,,,,,,,,,,,,,,,,,,,,,,,,,,,,,,,,,,,,
,,26,4,${e://Field/PROLIFIC_PID,M,31,2023-11-04_03h43.33.991,MouseEye_CC,2023.2.2,Win32,61.10228523,1.28,,,1536,864,50.284,4.52,"130.65, 146.62, 153.67, 163.02, 140.83, 144.32, 164.48",778.79,8.777104849,39.67251392,27.83653633,Failed,132.9029216,,,,,,,,,,,,,,,,,,,,,training,1,8,0,left,a,,,,,517.4425,518.474,35.84,-1.599975586,-0.800018311,1,0,0,1.0311,fixationPoint,518.4741,518.5738,518.5741,520.112,35.84,10240,616.96,a,1,1.517,,520.1121,520.3065,,,,,,,,72,-170,-118,66,72,222,168,169,125,-30,28,-212,69,-117,22,174,-70,68,-64,124,-170,-70,-67,-218,-30,270,180,360,360,360,360,360,90,180,180,90,,,,,,,,,,,520.3066,520.3072,,0,7,7,7,1,6,repeated,,,,,,,,,,,,,,,,,,,,,,,,,,,,,,,,,,,,,,,,,,,,,,,,,
,,26,4,${e://Field/PROLIFIC_PID,M,31,2023-11-04_03h43.33.991,MouseEye_CC,2023.2.2,Win32,61.10228523,1.28,,,1536,864,50.284,4.52,"130.65, 146.62, 153.67, 163.02, 140.83, 144.32, 164.48",778.79,8.777104849,39.67251392,27.83653633,Failed,132.9029216,,,,,,,,,,,,,,,,,,,,,training,1,9,0,left,a,,,,,520.3079,521.3397,35.84,-11.20001221,-1.600006104,1,0,0,1.0315,fixationPoint,521.3398,521.4392,521.4394,523.5393,35.84,10240,616.96,a,1,2.068,,523.5394,523.7395,,,,,,,,27,69,127,-160,70,-115,218,-28,64,-224,-218,-169,-161,-219,-120,124,-170,164,-173,174,-70,21,68,161,170,90,270,180,360,180,180,180,180,270,90,270,,,,,,,,,,,523.7397,523.7403,,0,8,8,8,1,1,repeated,,,,,,,,,,,,,,,,,,,,,,,,,,,,,,,,,,,,,,,,,,,,,,,,,
,,26,4,${e://Field/PROLIFIC_PID,M,31,2023-11-04_03h43.33.991,MouseEye_CC,2023.2.2,Win32,61.10228523,1.28,,,1536,864,50.284,4.52,"130.65, 146.62, 153.67, 163.02, 140.83, 144.32, 164.48",778.79,8.777104849,39.67251392,27.83653633,Failed,132.9029216,,,,,,,,,,,,,,,,,,,,,training,1,10,180,right,s,,,,,523.7415,524.2612,35.84,7.200012207,-4.800018311,0,0,1,0.5195,fixationPoint,524.2613,524.356,524.3562,526.622,35.84,10240,616.96,s,1,2.2435,,526.6221,526.8218,,,,,,,,38,120,66,-70,75,-80,16,-221,25,-31,-65,-220,-68,-116,-73,211,-168,72,-221,127,-127,217,219,169,125,90,270,360,270,360,270,90,180,270,180,270,,,,,,,,,,,526.822,526.8225,,0,9,9,9,1,13,novel,,,,,,,,,,,,,,,,,,,,,,,,,,,,,,,,,,,,,,,,,,,,,,,,,
,,26,4,${e://Field/PROLIFIC_PID,M,31,2023-11-04_03h43.33.991,MouseEye_CC,2023.2.2,Win32,61.10228523,1.28,,,1536,864,50.284,4.52,"130.65, 146.62, 153.67, 163.02, 140.83, 144.32, 164.48",778.79,8.777104849,39.67251392,27.83653633,Failed,132.9029216,,,,,,,,,,,,,,,,,,,,,training,1,11,180,right,s,,,,,526.8233,529.3061,35.84,-4,1.600006104,1,0,0,2.4823,fixationPoint,529.3062,529.4044,529.4045,533.0871,35.84,10240,616.96,s,1,3.6569,,533.0873,533.2762,,,,,,,,88,124,-170,166,16,217,219,169,125,-117,22,-16,126,-126,173,-24,-17,-65,-160,-224,-218,19,-127,169,-32,360,270,180,180,180,360,90,270,360,90,360,,,,,,,,,,,533.2763,533.2768,,0,10,10,10,1,8,repeated,,,,,,,,,,,,,,,,,,,,,,,,,,,,,,,,,,,,,,,,,,,,,,,,,
,,26,4,${e://Field/PROLIFIC_PID,M,31,2023-11-04_03h43.33.991,MouseEye_CC,2023.2.2,Win32,61.10228523,1.28,,,1536,864,50.284,4.52,"130.65, 146.62, 153.67, 163.02, 140.83, 144.32, 164.48",778.79,8.777104849,39.67251392,27.83653633,Failed,132.9029216,,,,,,,,,,,,,,,,,,,,,training,1,12,180,right,s,,,,,533.2776,534.7535,35.84,-4,-1.600006104,1,0,0,1.4756,fixationPoint,534.7536,534.8535,534.8536,537.274,35.84,10240,616.96,s,1,2.3971,,537.2743,537.4699,,,,,,,,29,169,125,-115,218,-28,64,-68,174,-72,-128,-75,-24,-127,-212,68,-64,112,-215,211,-168,218,80,118,20,90,180,360,90,270,180,360,180,360,90,180,,,,,,,,,,,537.47,537.4709,,0,11,11,11,1,14,novel,,,,,,,,,,,,,,,,,,,,,,,,,,,,,,,,,,,,,,,,,,,,,,,,,
,,26,4,${e://Field/PROLIFIC_PID,M,31,2023-11-04_03h43.33.991,MouseEye_CC,2023.2.2,Win32,61.10228523,1.28,,,1536,864,50.284,4.52,"130.65, 146.62, 153.67, 163.02, 140.83, 144.32, 164.48",778.79,8.777104849,39.67251392,27.83653633,Failed,132.9029216,,,,,,,,,,,,,,,,,,,,,training,1,13,0,left,a,,,,,537.4716,538.4197,35.84,4.799987793,2.399993896,1,0,0,0.9478,fixationPoint,538.4198,538.5192,538.5193,539.8028,35.84,10240,616.96,a,1,1.2547,,539.8029,540.0026,,,,,,,,74,-72,-128,164,76,21,68,114,216,-172,214,-212,69,-73,119,72,-221,164,-173,20,-222,-19,-223,-219,-120,360,360,270,360,270,360,360,180,90,180,270,,,,,,,,,,,540.0026,540.003,,0,12,12,12,1,9,novel,,,,,,,,,,,,,,,,,,,,,,,,,,,,,,,,,,,,,,,,,,,,,,,,,
,,26,4,${e://Field/PROLIFIC_PID,M,31,2023-11-04_03h43.33.991,MouseEye_CC,2023.2.2,Win32,61.10228523,1.28,,,1536,864,50.284,4.52,"130.65, 146.62, 153.67, 163.02, 140.83, 144.32, 164.48",778.79,8.777104849,39.67251392,27.83653633,Failed,132.9029216,,,,,,,,,,,,,,,,,,,,,training,1,14,180,right,s,,,,,540.0038,540.7358,35.84,10.40002441,0,1,0,0,0.7318,fixationPoint,540.736,540.8349,540.8351,547.4013,35.84,10240,616.96,s,1,6.5405,,547.4014,547.6014,,,,,,,,76,19,-127,169,125,69,127,118,20,-174,115,-126,173,-210,215,-117,-167,-163,-220,-68,-221,222,-126,127,-127,180,180,270,180,270,360,180,270,90,180,360,,,,,,,,,,,547.6016,547.6023,,0,13,13,13,1,11,novel,,,,,,,,,,,,,,,,,,,,,,,,,,,,,,,,,,,,,,,,,,,,,,,,,
,,26,4,${e://Field/PROLIFIC_PID,M,31,2023-11-04_03h43.33.991,MouseEye_CC,2023.2.2,Win32,61.10228523,1.28,,,1536,864,50.284,4.52,"130.65, 146.62, 153.67, 163.02, 140.83, 144.32, 164.48",778.79,8.777104849,39.67251392,27.83653633,Failed,132.9029216,,,,,,,,,,,,,,,,,,,,,training,1,15,0,left,a,,,,,547.6036,548.517,35.84,3.200012207,7.199981689,1,0,0,0.9131,fixationPoint,548.517,548.617,548.617,551.3341,35.84,10240,616.96,a,1,2.6854,,551.3344,551.5334,,,,,,,,63,-116,-73,21,68,212,128,66,72,-221,25,-128,76,-208,172,19,-127,127,-127,163,-120,-121,-18,-72,-128,270,360,180,360,90,360,360,270,90,180,360,,,,,,,,,,,551.5336,551.5339,,0,14,14,14,1,5,repeated,,,,,,,,,,,,,,,,,,,,,,,,,,,,,,,,,,,,,,,,,,,,,,,,,
,,26,4,${e://Field/PROLIFIC_PID,M,31,2023-11-04_03h43.33.991,MouseEye_CC,2023.2.2,Win32,61.10228523,1.28,,,1536,864,50.284,4.52,"130.65, 146.62, 153.67, 163.02, 140.83, 144.32, 164.48",778.79,8.777104849,39.67251392,27.83653633,Failed,132.9029216,,,,,,,,,,,,,,,,,,,,,training,1,16,180,right,s,,,,,551.5348,552.0494,35.84,15.20001221,15.19998169,1,0,0,0.5144,fixationPoint,552.0495,552.15,552.1502,554.9495,35.84,10240,616.96,s,1,2.7699,,554.9498,555.1494,,,,,,,,5,-20,212,28,21,120,66,77,23,-20,-123,-224,-218,-218,-30,20,-222,19,-127,80,-120,-115,218,-117,22,180,270,360,270,270,360,360,90,90,180,360,,,,,,,,,,,555.1496,562.5322,space,0,15,15,15,1,4,repeated,7.3469,,,,,,,,,,,,,,,,,,,,,,,,,,,,,,,,,,,,,,,,,,,,,,,,
,,26,4,${e://Field/PROLIFIC_PID,M,31,2023-11-04_03h43.33.991,MouseEye_CC,2023.2.2,Win32,61.10228523,1.28,,,1536,864,50.284,4.52,"130.65, 146.62, 153.67, 163.02, 140.83, 144.32, 164.48",778.79,8.777104849,39.67251392,27.83653633,Failed,132.9029216,,,,,,,,,,,,,,,,,,,,,training,2,1,0,left,a,,,,,562.5583,563.6651,35.84,-2.399963379,4,1,0,0,1.1065,fixationPoint,563.6654,563.7646,563.7647,565.5138,35.84,10240,616.96,a,1,1.7247,,565.514,565.7146,,,,,,,,62,-176,-68,208,24,21,68,222,168,-126,173,-175,164,-176,26,211,-168,127,-127,124,-170,-169,-161,-20,-123,90,270,180,90,360,90,180,90,270,90,180,,,,,,,,,,,565.7147,565.7181,,0,16,16,16,1,10,novel,,,,,,,,,,,,,,,,,,,,,,,,,,,,,,,,,,,,,,,,,,,,,,,,,
,,26,4,${e://Field/PROLIFIC_PID,M,31,2023-11-04_03h43.33.991,MouseEye_CC,2023.2.2,Win32,61.10228523,1.28,,,1536,864,50.284,4.52,"130.65, 146.62, 153.67, 163.02, 140.83, 144.32, 164.48",778.79,8.777104849,39.67251392,27.83653633,Failed,132.9029216,,,,,,,,,,,,,,,,,,,,,training,2,2,180,right,s,,,,,565.7187,566.5643,35.84,4,-0.800018311,1,0,0,0.8453,fixationPoint,566.5643,566.6643,566.6645,570.2854,35.84,10240,616.96,s,1,3.5989,,570.2855,570.4799,,,,,,,,72,-170,-118,66,72,222,168,169,125,-30,28,-212,69,-117,22,174,-70,68,-64,124,-170,-70,-67,-218,-30,360,270,360,360,360,360,180,180,180,180,270,,,,,,,,,,,570.48,570.4805,,0,17,17,17,1,6,repeated,,,,,,,,,,,,,,,,,,,,,,,,,,,,,,,,,,,,,,,,,,,,,,,,,
,,26,4,${e://Field/PROLIFIC_PID,M,31,2023-11-04_03h43.33.991,MouseEye_CC,2023.2.2,Win32,61.10228523,1.28,,,1536,864,50.284,4.52,"130.65, 146.62, 153.67, 163.02, 140.83, 144.32, 164.48",778.79,8.777104849,39.67251392,27.83653633,Failed,132.9029216,,,,,,,,,,,,,,,,,,,,,training,2,3,0,left,a,,,,,570.4814,571.2628,35.84,-2.399963379,1.600006104,1,0,0,0.781,fixationPoint,571.2631,571.3629,571.3631,574.1795,35.84,10240,616.96,a,1,2.7875,,574.1796,574.3793,,,,,,,,4,-80,213,166,16,222,168,118,20,-169,-161,-31,-65,-218,-30,222,-126,119,-76,163,-120,-68,174,-172,214,90,180,270,90,180,270,90,90,90,360,180,,,,,,,,,,,574.3795,574.3799,,0,18,18,18,1,15,novel,,,,,,,,,,,,,,,,,,,,,,,,,,,,,,,,,,,,,,,,,,,,,,,,,
,,26,4,${e://Field/PROLIFIC_PID,M,31,2023-11-04_03h43.33.991,MouseEye_CC,2023.2.2,Win32,61.10228523,1.28,,,1536,864,50.284,4.52,"130.65, 146.62, 153.67, 163.02, 140.83, 144.32, 164.48",778.79,8.777104849,39.67251392,27.83653633,Failed,132.9029216,,,,,,,,,,,,,,,,,,,,,training,2,4,180,right,s,,,,,574.3812,575.2788,35.84,-2.399963379,-2.399993896,1,0,0,0.8974,fixationPoint,575.279,575.3789,575.379,577.7122,35.84,10240,616.96,s,1,2.3071,,577.7125,577.9122,,,,,,,,88,124,-170,166,16,217,219,169,125,-117,22,-16,126,-126,173,-24,-17,-65,-160,-224,-218,19,-127,169,-32,90,90,270,270,360,270,360,180,180,180,360,,,,,,,,,,,577.9123,577.9131,,0,19,19,19,1,8,repeated,,,,,,,,,,,,,,,,,,,,,,,,,,,,,,,,,,,,,,,,,,,,,,,,,
,,26,4,${e://Field/PROLIFIC_PID,M,31,2023-11-04_03h43.33.991,MouseEye_CC,2023.2.2,Win32,61.10228523,1.28,,,1536,864,50.284,4.52,"130.65, 146.62, 153.67, 163.02, 140.83, 144.32, 164.48",778.79,8.777104849,39.67251392,27.83653633,Failed,132.9029216,,,,,,,,,,,,,,,,,,,,,training,2,5,180,right,s,,,,,577.9142,578.7619,35.84,0.799987793,-4.800018311,1,0,0,0.8473,fixationPoint,578.7621,578.8613,578.8615,580.185,35.84,10240,616.96,s,1,1.3016,,580.1851,580.3776,,,,,,,,76,19,-127,20,116,175,209,164,76,-208,172,-176,26,-80,16,-65,-160,-19,-176,-163,-220,80,-120,119,-76,270,270,360,180,90,360,180,90,180,360,360,,,,,,,,,,,580.3777,580.378,,0,20,20,20,1,11,novel,,,,,,,,,,,,,,,,,,,,,,,,,,,,,,,,,,,,,,,,,,,,,,,,,
,,26,4,${e://Field/PROLIFIC_PID,M,31,2023-11-04_03h43.33.991,MouseEye_CC,2023.2.2,Win32,61.10228523,1.28,,,1536,864,50.284,4.52,"130.65, 146.62, 153.67, 163.02, 140.83, 144.32, 164.48",778.79,8.777104849,39.67251392,27.83653633,Failed,132.9029216,,,,,,,,,,,,,,,,,,,,,training,2,6,180,right,s,,,,,580.3789,581.1939,35.84,-1.599975586,12,1,0,0,0.8149,fixationPoint,581.194,581.294,581.2941,583.8435,35.84,10240,616.96,s,1,2.5408,,583.8436,584.0435,,,,,,,,5,-20,212,28,21,120,66,77,23,-20,-123,-224,-218,-218,-30,20,-222,19,-127,80,-120,-115,218,-117,22,360,270,360,90,270,270,270,360,180,360,90,,,,,,,,,,,584.0436,584.0439,,0,21,21,21,1,4,repeated,,,,,,,,,,,,,,,,,,,,,,,,,,,,,,,,,,,,,,,,,,,,,,,,,
,,26,4,${e://Field/PROLIFIC_PID,M,31,2023-11-04_03h43.33.991,MouseEye_CC,2023.2.2,Win32,61.10228523,1.28,,,1536,864,50.284,4.52,"130.65, 146.62, 153.67, 163.02, 140.83, 144.32, 164.48",778.79,8.777104849,39.67251392,27.83653633,Failed,132.9029216,,,,,,,,,,,,,,,,,,,,,training,2,7,180,right,s,,,,,584.0448,585.2761,35.84,-4,-1.600006104,1,0,0,1.2312,fixationPoint,585.2762,585.3763,585.3763,587.5431,35.84,10240,616.96,s,1,2.1483,,587.5432,587.7433,,,,,,,,27,69,127,-160,70,-115,218,-28,64,-224,-218,-169,-161,-219,-120,124,-170,164,-173,174,-70,21,68,161,170,270,90,360,90,90,270,270,270,180,180,90,,,,,,,,,,,587.7435,587.7438,,0,22,22,22,1,1,repeated,,,,,,,,,,,,,,,,,,,,,,,,,,,,,,,,,,,,,,,,,,,,,,,,,
,,26,4,${e://Field/PROLIFIC_PID,M,31,2023-11-04_03h43.33.991,MouseEye_CC,2023.2.2,Win32,61.10228523,1.28,,,1536,864,50.284,4.52,"130.65, 146.62, 153.67, 163.02, 140.83, 144.32, 164.48",778.79,8.777104849,39.67251392,27.83653633,Failed,132.9029216,,,,,,,,,,,,,,,,,,,,,training,2,8,0,left,a,,,,,587.7447,588.7599,35.84,-0.799987793,-3.200012207,1,0,0,1.0148,fixationPoint,588.7599,588.8593,588.8593,591.2084,35.84,10240,616.96,a,1,2.3395,,591.2085,591.4089,,,,,,,,25,-16,126,26,217,20,116,72,175,-31,-65,-117,-167,-121,-18,126,-28,209,-208,163,-120,-128,76,-116,112,360,270,270,360,180,180,90,180,360,270,360,,,,,,,,,,,591.409,591.4097,,0,23,23,23,1,3,repeated,,,,,,,,,,,,,,,,,,,,,,,,,,,,,,,,,,,,,,,,,,,,,,,,,
,,26,4,${e://Field/PROLIFIC_PID,M,31,2023-11-04_03h43.33.991,MouseEye_CC,2023.2.2,Win32,61.10228523,1.28,,,1536,864,50.284,4.52,"130.65, 146.62, 153.67, 163.02, 140.83, 144.32, 164.48",778.79,8.777104849,39.67251392,27.83653633,Failed,132.9029216,,,,,,,,,,,,,,,,,,,,,training,2,9,0,left,a,,,,,591.4109,592.1746,35.84,4.799987793,3.199981689,1,0,0,0.7635,fixationPoint,592.1747,592.2755,592.2757,596.6582,35.84,10240,616.96,a,1,4.3637,,596.6583,596.8579,,,,,,,,97,72,-221,169,125,175,209,26,171,-20,212,-216,125,-160,70,-176,-68,-170,-118,-169,-161,127,-127,80,-120,270,90,180,180,180,180,90,180,90,360,360,,,,,,,,,,,596.858,596.8584,,0,24,24,24,1,7,repeated,,,,,,,,,,,,,,,,,,,,,,,,,,,,,,,,,,,,,,,,,,,,,,,,,
,,26,4,${e://Field/PROLIFIC_PID,M,31,2023-11-04_03h43.33.991,MouseEye_CC,2023.2.2,Win32,61.10228523,1.28,,,1536,864,50.284,4.52,"130.65, 146.62, 153.67, 163.02, 140.83, 144.32, 164.48",778.79,8.777104849,39.67251392,27.83653633,Failed,132.9029216,,,,,,,,,,,,,,,,,,,,,training,2,10,180,right,s,,,,,596.8598,597.8409,35.84,-0.799987793,2.399993896,1,0,0,0.9809,fixationPoint,597.8411,597.941,597.941,599.5242,35.84,10240,616.96,s,1,1.5671,,599.5243,599.724,,,,,,,,96,20,-222,212,128,80,222,161,170,-210,215,-70,75,-20,212,-20,-123,-224,-218,-19,-176,27,-68,126,-28,360,360,360,360,180,360,180,180,270,360,90,,,,,,,,,,,599.724,599.7245,,0,25,25,25,1,12,novel,,,,,,,,,,,,,,,,,,,,,,,,,,,,,,,,,,,,,,,,,,,,,,,,,
,,26,4,${e://Field/PROLIFIC_PID,M,31,2023-11-04_03h43.33.991,MouseEye_CC,2023.2.2,Win32,61.10228523,1.28,,,1536,864,50.284,4.52,"130.65, 146.62, 153.67, 163.02, 140.83, 144.32, 164.48",778.79,8.777104849,39.67251392,27.83653633,Failed,132.9029216,,,,,,,,,,,,,,,,,,,,,training,2,11,180,right,s,,,,,599.7254,600.4404,35.84,0,-4.800018311,1,0,0,0.7146,fixationPoint,600.4405,600.5401,600.5401,602.3741,35.84,10240,616.96,s,1,1.8171,,602.3744,602.5738,,,,,,,,39,164,76,-174,115,-160,70,-20,212,-163,-220,-19,-223,-65,-160,68,-64,27,-27,169,-32,72,175,218,80,360,180,360,90,180,360,360,90,360,180,360,,,,,,,,,,,602.5739,602.5742,,0,26,26,26,1,2,repeated,,,,,,,,,,,,,,,,,,,,,,,,,,,,,,,,,,,,,,,,,,,,,,,,,
,,26,4,${e://Field/PROLIFIC_PID,M,31,2023-11-04_03h43.33.991,MouseEye_CC,2023.2.2,Win32,61.10228523,1.28,,,1536,864,50.284,4.52,"130.65, 146.62, 153.67, 163.02, 140.83, 144.32, 164.48",778.79,8.777104849,39.67251392,27.83653633,Failed,132.9029216,,,,,,,,,,,,,,,,,,,,,training,2,12,0,left,a,,,,,602.5752,603.2902,35.84,8.799987793,8,1,0,0,0.7147,fixationPoint,603.2904,603.3896,603.3896,606.656,35.84,10240,616.96,a,1,3.2491,,606.656,606.8561,,,,,,,,74,-72,-128,212,128,222,168,218,80,-80,213,-20,212,-126,173,79,-175,126,-28,163,-120,-220,-68,-68,-221,270,90,90,90,180,360,90,360,90,360,360,,,,,,,,,,,606.8562,606.8565,,0,27,27,27,1,9,novel,,,,,,,,,,,,,,,,,,,,,,,,,,,,,,,,,,,,,,,,,,,,,,,,,
,,26,4,${e://Field/PROLIFIC_PID,M,31,2023-11-04_03h43.33.991,MouseEye_CC,2023.2.2,Win32,61.10228523,1.28,,,1536,864,50.284,4.52,"130.65, 146.62, 153.67, 163.02, 140.83, 144.32, 164.48",778.79,8.777104849,39.67251392,27.83653633,Failed,132.9029216,,,,,,,,,,,,,,,,,,,,,training,2,13,0,left,a,,,,,606.8572,607.6384,35.84,0,-5.600006104,1,0,0,0.781,fixationPoint,607.6385,607.7389,607.739,610.2213,35.84,10240,616.96,a,1,2.4701,,610.2213,610.422,,,,,,,,38,120,66,-117,22,-30,28,-216,125,-20,-123,-169,-161,-219,-120,27,-27,119,-76,164,-173,161,170,77,23,90,270,180,90,90,360,180,180,270,270,270,,,,,,,,,,,610.4221,610.4223,,0,28,28,28,1,13,novel,,,,,,,,,,,,,,,,,,,,,,,,,,,,,,,,,,,,,,,,,,,,,,,,,
,,26,4,${e://Field/PROLIFIC_PID,M,31,2023-11-04_03h43.33.991,MouseEye_CC,2023.2.2,Win32,61.10228523,1.28,,,1536,864,50.284,4.52,"130.65, 146.62, 153.67, 163.02, 140.83, 144.32, 164.48",778.79,8.777104849,39.67251392,27.83653633,Failed,132.9029216,,,,,,,,,,,,,,,,,,,,,training,2,14,0,left,a,,,,,610.4233,611.3046,35.84,1.600036621,7.199981689,1,0,0,0.8813,fixationPoint,611.3048,611.4046,611.4046,613.905,35.84,10240,616.96,a,1,2.4831,,613.9052,614.1045,,,,,,,,13,-126,173,164,76,212,128,26,171,-219,-120,-220,-68,-117,-167,211,-168,222,-126,72,-221,-176,26,-175,164,90,90,270,360,360,90,180,180,90,180,90,,,,,,,,,,,614.1046,614.105,,0,29,29,29,1,16,novel,,,,,,,,,,,,,,,,,,,,,,,,,,,,,,,,,,,,,,,,,,,,,,,,,
,,26,4,${e://Field/PROLIFIC_PID,M,31,2023-11-04_03h43.33.991,MouseEye_CC,2023.2.2,Win32,61.10228523,1.28,,,1536,864,50.284,4.52,"130.65, 146.62, 153.67, 163.02, 140.83, 144.32, 164.48",778.79,8.777104849,39.67251392,27.83653633,Failed,132.9029216,,,,,,,,,,,,,,,,,,,,,training,2,15,180,right,s,,,,,614.1058,615.0872,35.84,0,4,1,0,0,0.9812,fixationPoint,615.0872,615.1872,615.1872,617.6541,35.84,10240,616.96,s,1,2.4538,,617.6542,617.8534,,,,,,,,29,169,125,-115,218,-20,212,-24,162,-121,-18,-68,-221,-75,-24,169,-32,124,-170,126,-28,114,216,20,116,270,90,90,270,90,180,270,90,180,270,360,,,,,,,,,,,617.8535,617.854,,0,30,30,30,1,14,novel,,,,,,,,,,,,,,,,,,,,,,,,,,,,,,,,,,,,,,,,,,,,,,,,,
,,26,4,${e://Field/PROLIFIC_PID,M,31,2023-11-04_03h43.33.991,MouseEye_CC,2023.2.2,Win32,61.10228523,1.28,,,1536,864,50.284,4.52,"130.65, 146.62, 153.67, 163.02, 140.83, 144.32, 164.48",778.79,8.777104849,39.67251392,27.83653633,Failed,132.9029216,,,,,,,,,,,,,,,,,,,,,training,2,16,0,left,a,,,,,617.8547,618.7698,35.84,-5.599975586,6.399993896,1,0,0,0.915,fixationPoint,618.7699,618.8696,618.8697,620.3203,35.84,10240,616.96,a,1,1.4379,,620.3204,620.5197,,,,,,,,63,-116,-73,21,68,212,128,66,72,-221,25,-128,76,-208,172,19,-127,127,-127,163,-120,-121,-18,-72,-128,270,360,180,180,360,270,90,90,180,360,360,,,,,,,,,,,620.5198,624.4199,space,0,31,31,31,1,5,repeated,3.8761,,,,,,,,,,,,,,,,,,,,,,,,,,,,,,,,,,,,,,,,,,,,,,,,
,,26,4,${e://Field/PROLIFIC_PID,M,31,2023-11-04_03h43.33.991,MouseEye_CC,2023.2.2,Win32,61.10228523,1.28,,,1536,864,50.284,4.52,"130.65, 146.62, 153.67, 163.02, 140.83, 144.32, 164.48",778.79,8.777104849,39.67251392,27.83653633,Failed,132.9029216,,,,,,,,,,,,,,,,,,,,,training,3,1,0,left,a,,,,,624.44,625.7765,35.84,4,-2.399993896,1,0,0,1.3362,fixationPoint,625.7766,625.868,625.8681,629.4024,35.84,10240,616.96,a,1,3.4997,,629.4029,629.6015,,,,,,,,13,-126,173,118,20,169,125,217,219,-117,-167,-70,-67,-20,-123,174,-70,164,-173,169,-32,-221,25,-116,112,90,180,180,270,90,360,360,360,180,90,270,,,,,,,,,,,629.6017,629.6049,,0,32,32,32,1,16,novel,,,,,,,,,,,,,,,,,,,,,,,,,,,,,,,,,,,,,,,,,,,,,,,,,
,,26,4,${e://Field/PROLIFIC_PID,M,31,2023-11-04_03h43.33.991,MouseEye_CC,2023.2.2,Win32,61.10228523,1.28,,,1536,864,50.284,4.52,"130.65, 146.62, 153.67, 163.02, 140.83, 144.32, 164.48",778.79,8.777104849,39.67251392,27.83653633,Failed,132.9029216,,,,,,,,,,,,,,,,,,,,,training,3,2,180,right,s,,,,,629.6052,630.5503,35.84,0,-6.399993896,1,0,0,0.945,fixationPoint,630.5503,630.6519,630.6521,631.6394,35.84,10240,616.96,s,1,0.9659,,631.6395,631.8344,,,,,,,,72,-170,-118,66,72,222,168,169,125,-30,28,-212,69,-117,22,174,-70,68,-64,124,-170,-70,-67,-218,-30,360,180,90,360,360,180,360,180,90,270,360,,,,,,,,,,,631.8344,631.8349,,0,33,33,33,1,6,repeated,,,,,,,,,,,,,,,,,,,,,,,,,,,,,,,,,,,,,,,,,,,,,,,,,
,,26,4,${e://Field/PROLIFIC_PID,M,31,2023-11-04_03h43.33.991,MouseEye_CC,2023.2.2,Win32,61.10228523,1.28,,,1536,864,50.284,4.52,"130.65, 146.62, 153.67, 163.02, 140.83, 144.32, 164.48",778.79,8.777104849,39.67251392,27.83653633,Failed,132.9029216,,,,,,,,,,,,,,,,,,,,,training,3,3,0,left,a,,,,,631.836,632.651,35.84,-4.799987793,3.199981689,1,0,0,0.8146,fixationPoint,632.6511,632.7509,632.751,633.5177,35.84,10240,616.96,a,1,0.7428,,633.5179,633.7175,,,,,,,,62,-176,-68,20,116,66,72,217,219,-20,212,-216,125,-24,162,127,-127,168,-220,124,-170,-117,-167,-68,-221,270,270,270,360,90,270,270,180,180,270,360,,,,,,,,,,,633.7177,633.7184,,0,34,34,34,1,10,novel,,,,,,,,,,,,,,,,,,,,,,,,,,,,,,,,,,,,,,,,,,,,,,,,,
,,26,4,${e://Field/PROLIFIC_PID,M,31,2023-11-04_03h43.33.991,MouseEye_CC,2023.2.2,Win32,61.10228523,1.28,,,1536,864,50.284,4.52,"130.65, 146.62, 153.67, 163.02, 140.83, 144.32, 164.48",778.79,8.777104849,39.67251392,27.83653633,Failed,132.9029216,,,,,,,,,,,,,,,,,,,,,training,3,4,0,left,a,,,,,633.7197,634.252,35.84,12.79998779,2.399993896,1,0,0,0.5319,fixationPoint,634.252,634.3504,634.3506,636.25,35.84,10240,616.96,a,1,1.8666,,636.2502,636.4498,,,,,,,,39,164,76,-174,115,-160,70,-20,212,-163,-220,-19,-223,-65,-160,68,-64,27,-27,169,-32,72,175,218,80,360,180,180,270,360,90,180,270,270,270,270,,,,,,,,,,,636.4499,636.4503,,0,35,35,35,1,2,repeated,,,,,,,,,,,,,,,,,,,,,,,,,,,,,,,,,,,,,,,,,,,,,,,,,
,,26,4,${e://Field/PROLIFIC_PID,M,31,2023-11-04_03h43.33.991,MouseEye_CC,2023.2.2,Win32,61.10228523,1.28,,,1536,864,50.284,4.52,"130.65, 146.62, 153.67, 163.02, 140.83, 144.32, 164.48",778.79,8.777104849,39.67251392,27.83653633,Failed,132.9029216,,,,,,,,,,,,,,,,,,,,,training,3,5,0,left,a,,,,,636.4513,637.0998,35.84,-5.599975586,-1.600006104,1,0,0,0.6483,fixationPoint,637.0999,637.1991,637.1992,638.2664,35.84,10240,616.96,a,1,1.044,,638.2665,638.4664,,,,,,,,74,-72,-128,20,116,118,20,222,168,-208,172,-30,28,-116,112,222,-126,126,-28,209,-208,-120,-116,-75,-24,90,180,90,360,90,90,180,270,270,360,360,,,,,,,,,,,638.4665,638.467,,0,36,36,36,1,9,novel,,,,,,,,,,,,,,,,,,,,,,,,,,,,,,,,,,,,,,,,,,,,,,,,,
,,26,4,${e://Field/PROLIFIC_PID,M,31,2023-11-04_03h43.33.991,MouseEye_CC,2023.2.2,Win32,61.10228523,1.28,,,1536,864,50.284,4.52,"130.65, 146.62, 153.67, 163.02, 140.83, 144.32, 164.48",778.79,8.777104849,39.67251392,27.83653633,Failed,132.9029216,,,,,,,,,,,,,,,,,,,,,training,3,6,0,left,a,,,,,638.4679,639.2158,35.84,0,4.799987793,1,0,0,0.7475,fixationPoint,639.216,639.316,639.3163,640.6161,35.84,10240,616.96,a,1,1.267,,640.6162,640.8163,,,,,,,,88,124,-170,166,16,217,219,169,125,-117,22,-16,126,-126,173,-24,-17,-65,-160,-224,-218,19,-127,169,-32,270,270,270,90,360,180,270,90,360,270,270,,,,,,,,,,,640.8164,640.817,,0,37,37,37,1,8,repeated,,,,,,,,,,,,,,,,,,,,,,,,,,,,,,,,,,,,,,,,,,,,,,,,,
,,26,4,${e://Field/PROLIFIC_PID,M,31,2023-11-04_03h43.33.991,MouseEye_CC,2023.2.2,Win32,61.10228523,1.28,,,1536,864,50.284,4.52,"130.65, 146.62, 153.67, 163.02, 140.83, 144.32, 164.48",778.79,8.777104849,39.67251392,27.83653633,Failed,132.9029216,,,,,,,,,,,,,,,,,,,,,training,3,7,180,right,s,,,,,640.8182,641.3489,35.84,4,7.199981689,1,0,0,0.5303,fixationPoint,641.3491,641.4493,641.4495,643.4043,35.84,10240,616.96,s,1,1.9326,,643.4043,643.5991,,,,,,,,38,120,66,-175,164,-70,75,-16,126,-116,-73,-20,-123,-120,-116,112,-215,126,-28,222,-126,164,76,66,72,90,90,270,180,180,360,90,180,180,180,360,,,,,,,,,,,643.5992,643.5999,,0,38,38,38,1,13,novel,,,,,,,,,,,,,,,,,,,,,,,,,,,,,,,,,,,,,,,,,,,,,,,,,
,,26,4,${e://Field/PROLIFIC_PID,M,31,2023-11-04_03h43.33.991,MouseEye_CC,2023.2.2,Win32,61.10228523,1.28,,,1536,864,50.284,4.52,"130.65, 146.62, 153.67, 163.02, 140.83, 144.32, 164.48",778.79,8.777104849,39.67251392,27.83653633,Failed,132.9029216,,,,,,,,,,,,,,,,,,,,,training,3,8,0,left,a,,,,,643.601,644.1865,35.84,2.400024414,6.399993896,1,0,0,0.5854,fixationPoint,644.1866,644.2818,644.2819,645.2815,35.84,10240,616.96,a,1,0.9678,,645.2816,645.4822,,,,,,,,63,-116,-73,21,68,212,128,66,72,-221,25,-128,76,-208,172,19,-127,127,-127,163,-120,-121,-18,-72,-128,90,360,90,360,360,360,90,90,180,270,90,,,,,,,,,,,645.4823,645.4828,,0,39,39,39,1,5,repeated,,,,,,,,,,,,,,,,,,,,,,,,,,,,,,,,,,,,,,,,,,,,,,,,,
,,26,4,${e://Field/PROLIFIC_PID,M,31,2023-11-04_03h43.33.991,MouseEye_CC,2023.2.2,Win32,61.10228523,1.28,,,1536,864,50.284,4.52,"130.65, 146.62, 153.67, 163.02, 140.83, 144.32, 164.48",778.79,8.777104849,39.67251392,27.83653633,Failed,132.9029216,,,,,,,,,,,,,,,,,,,,,training,3,9,0,left,a,,,,,645.4842,645.9985,35.84,0,10.3999939,1,0,0,0.5139,fixationPoint,645.9986,646.0982,646.0983,649.2032,35.84,10240,616.96,a,1,3.0828,,649.2032,649.3972,,,,,,,,27,69,127,-160,70,-115,218,-28,64,-224,-218,-169,-161,-219,-120,124,-170,164,-173,174,-70,21,68,161,170,180,90,270,180,90,270,270,180,360,270,90,,,,,,,,,,,649.3973,649.3976,,0,40,40,40,1,1,repeated,,,,,,,,,,,,,,,,,,,,,,,,,,,,,,,,,,,,,,,,,,,,,,,,,
,,26,4,${e://Field/PROLIFIC_PID,M,31,2023-11-04_03h43.33.991,MouseEye_CC,2023.2.2,Win32,61.10228523,1.28,,,1536,864,50.284,4.52,"130.65, 146.62, 153.67, 163.02, 140.83, 144.32, 164.48",778.79,8.777104849,39.67251392,27.83653633,Failed,132.9029216,,,,,,,,,,,,,,,,,,,,,training,3,10,180,right,s,,,,,649.3984,650.2381,35.84,9.600036621,1.600006104,1,0,0,0.8393,fixationPoint,650.2383,650.3312,650.3314,651.547,35.84,10240,616.96,s,1,1.1849,,651.5471,651.7525,,,,,,,,76,19,-127,161,170,28,21,218,80,-175,164,-128,76,-80,213,-72,-128,-24,-17,-31,-65,126,-28,68,-64,90,270,270,180,180,360,90,180,180,270,90,,,,,,,,,,,651.7526,651.7528,,0,41,41,41,1,11,novel,,,,,,,,,,,,,,,,,,,,,,,,,,,,,,,,,,,,,,,,,,,,,,,,,
,,26,4,${e://Field/PROLIFIC_PID,M,31,2023-11-04_03h43.33.991,MouseEye_CC,2023.2.2,Win32,61.10228523,1.28,,,1536,864,50.284,4.52,"130.65, 146.62, 153.67, 163.02, 140.83, 144.32, 164.48",778.79,8.777104849,39.67251392,27.83653633,Failed,132.9029216,,,,,,,,,,,,,,,,,,,,,training,3,11,180,right,s,,,,,651.7534,652.2632,35.84,-3.200012207,17.6000061,1,0,0,0.5097,fixationPoint,652.2634,652.3638,652.3639,654.6515,35.84,10240,616.96,s,1,2.2653,,654.6516,654.8468,,,,,,,,5,-20,212,28,21,120,66,77,23,-20,-123,-224,-218,-218,-30,20,-222,19,-127,80,-120,-115,218,-117,22,270,270,180,360,180,90,270,180,90,180,90,,,,,,,,,,,654.847,654.8475,,0,42,42,42,1,4,repeated,,,,,,,,,,,,,,,,,,,,,,,,,,,,,,,,,,,,,,,,,,,,,,,,,
,,26,4,${e://Field/PROLIFIC_PID,M,31,2023-11-04_03h43.33.991,MouseEye_CC,2023.2.2,Win32,61.10228523,1.28,,,1536,864,50.284,4.52,"130.65, 146.62, 153.67, 163.02, 140.83, 144.32, 164.48",778.79,8.777104849,39.67251392,27.83653633,Failed,132.9029216,,,,,,,,,,,,,,,,,,,,,training,3,12,180,right,s,,,,,654.8488,655.7635,35.84,8.799987793,1.600006104,1,0,0,0.9143,fixationPoint,655.7639,655.8635,655.8636,658.5636,35.84,10240,616.96,s,1,2.6723,,658.5638,658.7623,,,,,,,,97,72,-221,169,125,175,209,26,171,-20,212,-216,125,-160,70,-176,-68,-170,-118,-169,-161,127,-127,80,-120,270,270,90,270,270,180,180,90,270,270,180,,,,,,,,,,,658.7625,658.7631,,0,43,43,43,1,7,repeated,,,,,,,,,,,,,,,,,,,,,,,,,,,,,,,,,,,,,,,,,,,,,,,,,
,,26,4,${e://Field/PROLIFIC_PID,M,31,2023-11-04_03h43.33.991,MouseEye_CC,2023.2.2,Win32,61.10228523,1.28,,,1536,864,50.284,4.52,"130.65, 146.62, 153.67, 163.02, 140.83, 144.32, 164.48",778.79,8.777104849,39.67251392,27.83653633,Failed,132.9029216,,,,,,,,,,,,,,,,,,,,,training,3,13,180,right,s,,,,,658.7643,660.0624,35.84,-0.799987793,4,1,0,0,1.2975,fixationPoint,660.0626,660.1621,660.1623,661.8281,35.84,10240,616.96,s,1,1.6408,,661.8283,662.0288,,,,,,,,29,169,125,-174,115,-210,215,-68,174,-163,-220,-72,-128,-70,-67,112,-215,209,-208,72,-19,212,128,69,127,360,90,90,180,360,360,180,270,90,360,270,,,,,,,,,,,662.0288,662.0293,,0,44,44,44,1,14,novel,,,,,,,,,,,,,,,,,,,,,,,,,,,,,,,,,,,,,,,,,,,,,,,,,
,,26,4,${e://Field/PROLIFIC_PID,M,31,2023-11-04_03h43.33.991,MouseEye_CC,2023.2.2,Win32,61.10228523,1.28,,,1536,864,50.284,4.52,"130.65, 146.62, 153.67, 163.02, 140.83, 144.32, 164.48",778.79,8.777104849,39.67251392,27.83653633,Failed,132.9029216,,,,,,,,,,,,,,,,,,,,,training,3,14,180,right,s,,,,,662.0302,662.778,35.84,-7.200012207,-8.800018311,1,0,0,0.7475,fixationPoint,662.778,662.8783,662.8784,665.5778,35.84,10240,616.96,s,1,2.6746,,665.578,665.7776,,,,,,,,4,-80,213,161,170,175,209,208,24,-167,-32,-121,-18,-65,-160,27,-68,19,-127,209,-208,-212,69,-16,126,360,270,90,360,90,90,180,90,90,180,180,,,,,,,,,,,665.7776,665.7781,,0,45,45,45,1,15,novel,,,,,,,,,,,,,,,,,,,,,,,,,,,,,,,,,,,,,,,,,,,,,,,,,
,,26,4,${e://Field/PROLIFIC_PID,M,31,2023-11-04_03h43.33.991,MouseEye_CC,2023.2.2,Win32,61.10228523,1.28,,,1536,864,50.284,4.52,"130.65, 146.62, 153.67, 163.02, 140.83, 144.32, 164.48",778.79,8.777104849,39.67251392,27.83653633,Failed,132.9029216,,,,,,,,,,,,,,,,,,,,,training,3,15,180,right,s,,,,,665.7791,666.7174,35.84,0,-8.800018311,1,0,0,0.9379,fixationPoint,666.7175,666.8104,666.8106,669.5323,35.84,10240,616.96,s,1,2.6999,,669.5323,669.7265,,,,,,,,25,-16,126,26,217,20,116,72,175,-31,-65,-117,-167,-121,-18,126,-28,209,-208,163,-120,-128,76,-116,112,180,180,360,180,360,90,270,180,360,360,180,,,,,,,,,,,669.7265,669.7272,,0,46,46,46,1,3,repeated,,,,,,,,,,,,,,,,,,,,,,,,,,,,,,,,,,,,,,,,,,,,,,,,,
,,26,4,${e://Field/PROLIFIC_PID,M,31,2023-11-04_03h43.33.991,MouseEye_CC,2023.2.2,Win32,61.10228523,1.28,,,1536,864,50.284,4.52,"130.65, 146.62, 153.67, 163.02, 140.83, 144.32, 164.48",778.79,8.777104849,39.67251392,27.83653633,Failed,132.9029216,,,,,,,,,,,,,,,,,,,,,training,3,16,0,left,a,,,,,669.7283,670.4435,35.84,-0.799987793,-10.3999939,1,0,0,0.7149,fixationPoint,670.4436,670.5436,670.5437,672.4101,35.84,10240,616.96,a,1,1.8398,,672.4102,672.5992,,,,,,,,96,20,-222,164,76,80,222,28,21,-172,214,-115,218,-20,212,-170,-118,-167,-32,-219,-120,222,-126,209,-208,360,180,90,90,360,90,270,360,180,270,270,,,,,,,,,,,672.5994,675.1264,space,0,47,47,47,1,12,novel,2.5017,,,,,,,,,,,,,,,,,,,,,,,,,,,,,,,,,,,,,,,,,,,,,,,,
,,26,4,${e://Field/PROLIFIC_PID,M,31,2023-11-04_03h43.33.991,MouseEye_CC,2023.2.2,Win32,61.10228523,1.28,,,1536,864,50.284,4.52,"130.65, 146.62, 153.67, 163.02, 140.83, 144.32, 164.48",778.79,8.777104849,39.67251392,27.83653633,Failed,132.9029216,,,,,,,,,,,,,,,,,,,,,training,4,1,180,right,s,,,,,675.1274,676.6257,35.84,4,-0.800018311,1,0,0,1.4979,fixationPoint,676.6259,676.7256,676.7257,677.7922,35.84,10240,616.96,s,1,1.0342,,677.7924,677.992,,,,,,,,76,19,-127,26,171,26,217,166,16,-216,125,-208,172,-221,25,-167,-32,-116,-73,-121,-18,20,-222,174,-70,180,270,270,360,360,180,180,360,270,270,90,,,,,,,,,,,677.9921,677.9941,,0,48,48,48,1,11,novel,,,,,,,,,,,,,,,,,,,,,,,,,,,,,,,,,,,,,,,,,,,,,,,,,
,,26,4,${e://Field/PROLIFIC_PID,M,31,2023-11-04_03h43.33.991,MouseEye_CC,2023.2.2,Win32,61.10228523,1.28,,,1536,864,50.284,4.52,"130.65, 146.62, 153.67, 163.02, 140.83, 144.32, 164.48",778.79,8.777104849,39.67251392,27.83653633,Failed,132.9029216,,,,,,,,,,,,,,,,,,,,,training,4,2,0,left,a,,,,,677.9946,678.7253,35.84,-1.599975586,-0.800018311,1,0,0,0.7302,fixationPoint,678.7256,678.8247,678.8248,680.6087,35.84,10240,616.96,a,1,1.7553,,680.6089,680.8082,,,,,,,,25,-16,126,26,217,20,116,72,175,-31,-65,-117,-167,-121,-18,126,-28,209,-208,163,-120,-128,76,-116,112,90,270,90,180,180,270,270,360,180,90,360,,,,,,,,,,,680.8083,680.8088,,0,49,49,49,1,3,repeated,,,,,,,,,,,,,,,,,,,,,,,,,,,,,,,,,,,,,,,,,,,,,,,,,
,,26,4,${e://Field/PROLIFIC_PID,M,31,2023-11-04_03h43.33.991,MouseEye_CC,2023.2.2,Win32,61.10228523,1.28,,,1536,864,50.284,4.52,"130.65, 146.62, 153.67, 163.02, 140.83, 144.32, 164.48",778.79,8.777104849,39.67251392,27.83653633,Failed,132.9029216,,,,,,,,,,,,,,,,,,,,,training,4,3,180,right,s,,,,,680.8097,681.4582,35.84,0,-4.800018311,1,0,0,0.648,fixationPoint,681.4583,681.5574,681.5575,684.7577,35.84,10240,616.96,s,1,3.1743,,684.7579,684.9572,,,,,,,,13,-126,173,208,24,161,170,72,175,-72,-128,-121,-18,-75,-24,209,-208,215,-66,211,-168,-115,218,-80,213,90,90,180,90,270,90,360,90,90,180,360,,,,,,,,,,,684.9574,684.9578,,0,50,50,50,1,16,novel,,,,,,,,,,,,,,,,,,,,,,,,,,,,,,,,,,,,,,,,,,,,,,,,,
,,26,4,${e://Field/PROLIFIC_PID,M,31,2023-11-04_03h43.33.991,MouseEye_CC,2023.2.2,Win32,61.10228523,1.28,,,1536,864,50.284,4.52,"130.65, 146.62, 153.67, 163.02, 140.83, 144.32, 164.48",778.79,8.777104849,39.67251392,27.83653633,Failed,132.9029216,,,,,,,,,,,,,,,,,,,,,training,4,4,0,left,a,,,,,684.9592,685.6073,35.84,3.200012207,4,1,0,0,0.6478,fixationPoint,685.6074,685.7068,685.7069,686.8067,35.84,10240,616.96,a,1,1.0769,,686.8069,687.0065,,,,,,,,72,-170,-118,66,72,222,168,169,125,-30,28,-212,69,-117,22,174,-70,68,-64,124,-170,-70,-67,-218,-30,270,180,360,180,360,270,180,360,360,270,180,,,,,,,,,,,687.0065,687.0069,,0,51,51,51,1,6,repeated,,,,,,,,,,,,,,,,,,,,,,,,,,,,,,,,,,,,,,,,,,,,,,,,,
,,26,4,${e://Field/PROLIFIC_PID,M,31,2023-11-04_03h43.33.991,MouseEye_CC,2023.2.2,Win32,61.10228523,1.28,,,1536,864,50.284,4.52,"130.65, 146.62, 153.67, 163.02, 140.83, 144.32, 164.48",778.79,8.777104849,39.67251392,27.83653633,Failed,132.9029216,,,,,,,,,,,,,,,,,,,,,training,4,5,0,left,a,,,,,687.0074,687.6395,35.84,4,-1.600006104,1,0,0,0.6318,fixationPoint,687.6396,687.7398,687.74,688.7898,35.84,10240,616.96,a,1,1.0178,,688.79,688.9791,,,,,,,,74,-72,-128,208,24,161,170,120,66,-212,69,-208,172,-70,75,16,-173,19,-127,72,-221,-218,-30,-19,-176,90,360,90,180,360,270,360,90,360,360,180,,,,,,,,,,,688.9792,688.9793,,0,52,52,52,1,9,novel,,,,,,,,,,,,,,,,,,,,,,,,,,,,,,,,,,,,,,,,,,,,,,,,,
,,26,4,${e://Field/PROLIFIC_PID,M,31,2023-11-04_03h43.33.991,MouseEye_CC,2023.2.2,Win32,61.10228523,1.28,,,1536,864,50.284,4.52,"130.65, 146.62, 153.67, 163.02, 140.83, 144.32, 164.48",778.79,8.777104849,39.67251392,27.83653633,Failed,132.9029216,,,,,,,,,,,,,,,,,,,,,training,4,6,180,right,s,,,,,688.9797,689.4729,35.84,-1.599975586,3.199981689,1,0,0,0.493,fixationPoint,689.4731,689.5729,689.5732,690.9459,35.84,10240,616.96,s,1,1.35,,690.9459,691.144,,,,,,,,97,72,-221,169,125,175,209,26,171,-20,212,-216,125,-160,70,-176,-68,-170,-118,-169,-161,127,-127,80,-120,270,360,270,270,270,90,180,90,360,360,360,,,,,,,,,,,691.1441,691.1443,,0,53,53,53,1,7,repeated,,,,,,,,,,,,,,,,,,,,,,,,,,,,,,,,,,,,,,,,,,,,,,,,,
,,26,4,${e://Field/PROLIFIC_PID,M,31,2023-11-04_03h43.33.991,MouseEye_CC,2023.2.2,Win32,61.10228523,1.28,,,1536,864,50.284,4.52,"130.65, 146.62, 153.67, 163.02, 140.83, 144.32, 164.48",778.79,8.777104849,39.67251392,27.83653633,Failed,132.9029216,,,,,,,,,,,,,,,,,,,,,training,4,7,180,right,s,,,,,691.1447,691.7065,35.84,0,3.199981689,1,0,0,0.5613,fixationPoint,691.7067,691.8066,691.8068,693.7727,35.84,10240,616.96,s,1,1.9362,,693.7729,693.9722,,,,,,,,27,69,127,-160,70,-115,218,-28,64,-224,-218,-169,-161,-219,-120,124,-170,164,-173,174,-70,21,68,161,170,90,360,90,90,180,270,90,90,360,90,270,,,,,,,,,,,693.9723,693.9727,,0,54,54,54,1,1,repeated,,,,,,,,,,,,,,,,,,,,,,,,,,,,,,,,,,,,,,,,,,,,,,,,,
,,26,4,${e://Field/PROLIFIC_PID,M,31,2023-11-04_03h43.33.991,MouseEye_CC,2023.2.2,Win32,61.10228523,1.28,,,1536,864,50.284,4.52,"130.65, 146.62, 153.67, 163.02, 140.83, 144.32, 164.48",778.79,8.777104849,39.67251392,27.83653633,Failed,132.9029216,,,,,,,,,,,,,,,,,,,,,training,4,8,180,right,s,,,,,693.9736,694.644,35.84,9.600036621,-4.800018311,1,0,0,0.6702,fixationPoint,694.644,694.7383,694.7385,696.7441,35.84,10240,616.96,s,1,1.983,,696.7442,696.9382,,,,,,,,38,120,66,-80,16,-176,26,-28,64,-19,-176,-68,-221,-19,-223,211,-168,79,-175,112,-215,175,209,212,128,90,270,90,180,360,360,270,180,90,360,90,,,,,,,,,,,696.9382,696.9387,,0,55,55,55,1,13,novel,,,,,,,,,,,,,,,,,,,,,,,,,,,,,,,,,,,,,,,,,,,,,,,,,
,,26,4,${e://Field/PROLIFIC_PID,M,31,2023-11-04_03h43.33.991,MouseEye_CC,2023.2.2,Win32,61.10228523,1.28,,,1536,864,50.284,4.52,"130.65, 146.62, 153.67, 163.02, 140.83, 144.32, 164.48",778.79,8.777104849,39.67251392,27.83653633,Failed,132.9029216,,,,,,,,,,,,,,,,,,,,,training,4,9,0,left,a,,,,,696.9396,697.6625,35.84,5.600036621,3.199981689,1,0,0,0.7226,fixationPoint,697.6627,697.7551,697.7552,700.5103,35.84,10240,616.96,a,1,2.7336,,700.5104,700.7045,,,,,,,,4,-80,213,166,16,28,21,66,72,-24,-17,-31,-65,-127,-212,222,-126,174,-70,211,-168,-210,215,-172,214,270,90,90,180,180,360,90,180,180,270,180,,,,,,,,,,,700.7047,700.7058,,0,56,56,56,1,15,novel,,,,,,,,,,,,,,,,,,,,,,,,,,,,,,,,,,,,,,,,,,,,,,,,,
,,26,4,${e://Field/PROLIFIC_PID,M,31,2023-11-04_03h43.33.991,MouseEye_CC,2023.2.2,Win32,61.10228523,1.28,,,1536,864,50.284,4.52,"130.65, 146.62, 153.67, 163.02, 140.83, 144.32, 164.48",778.79,8.777104849,39.67251392,27.83653633,Failed,132.9029216,,,,,,,,,,,,,,,,,,,,,training,4,10,0,left,a,,,,,700.7068,701.6546,35.84,3.200012207,0,1,0,0,0.9474,fixationPoint,701.6548,701.7598,701.7598,703.5039,35.84,10240,616.96,a,1,1.7173,,703.5041,703.6927,,,,,,,,88,124,-170,166,16,217,219,169,125,-117,22,-16,126,-126,173,-24,-17,-65,-160,-224,-218,19,-127,169,-32,360,180,360,90,180,180,360,90,90,270,360,,,,,,,,,,,703.6927,703.693,,0,57,57,57,1,8,repeated,,,,,,,,,,,,,,,,,,,,,,,,,,,,,,,,,,,,,,,,,,,,,,,,,
,,26,4,${e://Field/PROLIFIC_PID,M,31,2023-11-04_03h43.33.991,MouseEye_CC,2023.2.2,Win32,61.10228523,1.28,,,1536,864,50.284,4.52,"130.65, 146.62, 153.67, 163.02, 140.83, 144.32, 164.48",778.79,8.777104849,39.67251392,27.83653633,Failed,132.9029216,,,,,,,,,,,,,,,,,,,,,training,4,11,180,right,s,,,,,703.6936,704.2759,35.84,-7.200012207,0,1,0,0,0.5821,fixationPoint,704.276,704.3696,704.3698,705.4699,35.84,10240,616.96,s,1,1.0751,,705.47,705.6696,,,,,,,,96,20,-222,28,21,120,66,218,80,-160,70,-68,174,-20,212,-20,-123,-218,-30,-65,-160,211,-168,27,-68,270,270,180,270,360,270,90,180,360,360,90,,,,,,,,,,,705.6697,705.6704,,0,58,58,58,1,12,novel,,,,,,,,,,,,,,,,,,,,,,,,,,,,,,,,,,,,,,,,,,,,,,,,,
,,26,4,${e://Field/PROLIFIC_PID,M,31,2023-11-04_03h43.33.991,MouseEye_CC,2023.2.2,Win32,61.10228523,1.28,,,1536,864,50.284,4.52,"130.65, 146.62, 153.67, 163.02, 140.83, 144.32, 164.48",778.79,8.777104849,39.67251392,27.83653633,Failed,132.9029216,,,,,,,,,,,,,,,,,,,,,training,4,12,0,left,a,,,,,705.672,706.2354,35.84,-3.200012207,-4,1,0,0,0.5633,fixationPoint,706.2355,706.3362,706.3363,707.9031,35.84,10240,616.96,a,1,1.5416,,707.9033,708.0921,,,,,,,,62,-176,-68,28,21,166,16,69,127,-126,173,-28,64,-70,75,68,-64,27,-27,169,-32,-170,-118,-75,-24,360,180,90,360,180,270,90,180,180,360,180,,,,,,,,,,,708.0922,708.0925,,0,59,59,59,1,10,novel,,,,,,,,,,,,,,,,,,,,,,,,,,,,,,,,,,,,,,,,,,,,,,,,,
,,26,4,${e://Field/PROLIFIC_PID,M,31,2023-11-04_03h43.33.991,MouseEye_CC,2023.2.2,Win32,61.10228523,1.28,,,1536,864,50.284,4.52,"130.65, 146.62, 153.67, 163.02, 140.83, 144.32, 164.48",778.79,8.777104849,39.67251392,27.83653633,Failed,132.9029216,,,,,,,,,,,,,,,,,,,,,training,4,13,0,left,a,,,,,708.093,708.6357,35.84,7.200012207,-4,1,0,0,0.5424,fixationPoint,708.6359,708.7362,708.7363,710.5522,35.84,10240,616.96,a,1,1.7842,,710.5523,710.7521,,,,,,,,39,164,76,-174,115,-160,70,-20,212,-163,-220,-19,-223,-65,-160,68,-64,27,-27,169,-32,72,175,218,80,360,360,180,180,270,270,180,360,270,180,270,,,,,,,,,,,710.7522,710.7526,,0,60,60,60,1,2,repeated,,,,,,,,,,,,,,,,,,,,,,,,,,,,,,,,,,,,,,,,,,,,,,,,,
,,26,4,${e://Field/PROLIFIC_PID,M,31,2023-11-04_03h43.33.991,MouseEye_CC,2023.2.2,Win32,61.10228523,1.28,,,1536,864,50.284,4.52,"130.65, 146.62, 153.67, 163.02, 140.83, 144.32, 164.48",778.79,8.777104849,39.67251392,27.83653633,Failed,132.9029216,,,,,,,,,,,,,,,,,,,,,training,4,14,0,left,a,,,,,710.7535,711.4752,35.84,0,3.199981689,1,0,0,0.7215,fixationPoint,711.4754,711.5688,711.569,713.8676,35.84,10240,616.96,a,1,2.2771,,713.8677,714.069,,,,,,,,5,-20,212,28,21,120,66,77,23,-20,-123,-224,-218,-218,-30,20,-222,19,-127,80,-120,-115,218,-117,22,90,180,270,270,90,90,90,180,180,180,180,,,,,,,,,,,714.0692,714.07,,0,61,61,61,1,4,repeated,,,,,,,,,,,,,,,,,,,,,,,,,,,,,,,,,,,,,,,,,,,,,,,,,
,,26,4,${e://Field/PROLIFIC_PID,M,31,2023-11-04_03h43.33.991,MouseEye_CC,2023.2.2,Win32,61.10228523,1.28,,,1536,864,50.284,4.52,"130.65, 146.62, 153.67, 163.02, 140.83, 144.32, 164.48",778.79,8.777104849,39.67251392,27.83653633,Failed,132.9029216,,,,,,,,,,,,,,,,,,,,,training,4,15,180,right,s,,,,,714.0711,714.802,35.84,0,4,1,0,0,0.7306,fixationPoint,714.8023,714.9017,714.902,717.0182,35.84,10240,616.96,s,1,2.0831,,717.0184,717.2183,,,,,,,,29,169,125,-20,212,-221,25,-28,64,-218,-30,-75,-24,-19,-223,79,-175,222,-126,16,-173,175,209,212,128,270,360,90,90,360,270,180,270,270,360,360,,,,,,,,,,,717.2184,717.2191,,0,62,62,62,1,14,novel,,,,,,,,,,,,,,,,,,,,,,,,,,,,,,,,,,,,,,,,,,,,,,,,,
,,26,4,${e://Field/PROLIFIC_PID,M,31,2023-11-04_03h43.33.991,MouseEye_CC,2023.2.2,Win32,61.10228523,1.28,,,1536,864,50.284,4.52,"130.65, 146.62, 153.67, 163.02, 140.83, 144.32, 164.48",778.79,8.777104849,39.67251392,27.83653633,Failed,132.9029216,,,,,,,,,,,,,,,,,,,,,training,4,16,180,right,s,,,,,717.2204,717.9512,35.84,1.600036621,2.399993896,1,0,0,0.7304,fixationPoint,717.9513,718.051,718.0511,719.7004,35.84,10240,616.96,s,1,1.6213,,719.7006,719.8893,,,,,,,,63,-116,-73,21,68,212,128,66,72,-221,25,-128,76,-208,172,19,-127,127,-127,163,-120,-121,-18,-72,-128,270,270,90,360,180,180,90,360,270,270,360,,,,,,,,,,,719.8895,721.8739,space,0,63,63,63,1,5,repeated,1.9687,,,,,,,,,,,,,,,,,,,,,,,,,,,,,,,,,,,,,,,,,,,,,,,,
,,26,4,${e://Field/PROLIFIC_PID,M,31,2023-11-04_03h43.33.991,MouseEye_CC,2023.2.2,Win32,61.10228523,1.28,,,1536,864,50.284,4.52,"130.65, 146.62, 153.67, 163.02, 140.83, 144.32, 164.48",778.79,8.777104849,39.67251392,27.83653633,Failed,132.9029216,,,,,,,,,,,,,,,,,,,,,training,5,1,180,right,s,,,,,721.8749,722.5913,35.84,-2.399963379,-2.399993896,1,0,0,0.7161,fixationPoint,722.5914,722.6833,722.6833,724.2046,35.84,10240,616.96,s,1,1.4999,,724.2046,724.4002,,,,,,,,88,124,-170,166,16,217,219,169,125,-117,22,-16,126,-126,173,-24,-17,-65,-160,-224,-218,19,-127,169,-32,360,180,180,180,90,90,90,90,360,360,90,,,,,,,,,,,724.4004,724.4023,,0,64,64,64,1,8,repeated,,,,,,,,,,,,,,,,,,,,,,,,,,,,,,,,,,,,,,,,,,,,,,,,,
,,26,4,${e://Field/PROLIFIC_PID,M,31,2023-11-04_03h43.33.991,MouseEye_CC,2023.2.2,Win32,61.10228523,1.28,,,1536,864,50.284,4.52,"130.65, 146.62, 153.67, 163.02, 140.83, 144.32, 164.48",778.79,8.777104849,39.67251392,27.83653633,Failed,132.9029216,,,,,,,,,,,,,,,,,,,,,training,5,2,0,left,a,,,,,724.4028,724.9662,35.84,-3.200012207,-1.600006104,1,0,0,0.5632,fixationPoint,724.9664,725.066,725.0661,727.166,35.84,10240,616.96,a,1,2.0718,,727.1662,727.3653,,,,,,,,13,-126,173,218,80,161,170,66,72,-70,-67,-220,-68,-121,-18,124,-170,80,-120,127,-127,-116,112,-174,115,360,360,180,180,90,90,180,360,180,360,270,,,,,,,,,,,727.3655,727.366,,0,65,65,65,1,16,novel,,,,,,,,,,,,,,,,,,,,,,,,,,,,,,,,,,,,,,,,,,,,,,,,,
,,26,4,${e://Field/PROLIFIC_PID,M,31,2023-11-04_03h43.33.991,MouseEye_CC,2023.2.2,Win32,61.10228523,1.28,,,1536,864,50.284,4.52,"130.65, 146.62, 153.67, 163.02, 140.83, 144.32, 164.48",778.79,8.777104849,39.67251392,27.83653633,Failed,132.9029216,,,,,,,,,,,,,,,,,,,,,training,5,3,0,left,a,,,,,727.3669,728.1145,35.84,7.200012207,0.799987793,1,0,0,0.7475,fixationPoint,728.1145,728.2147,728.2148,729.3544,35.84,10240,616.96,a,1,1.1164,,729.3545,729.5538,,,,,,,,76,19,-127,175,209,66,72,169,125,-175,164,-128,76,-117,22,-176,-68,-167,-32,-121,-18,163,-120,124,-170,180,90,180,180,180,360,270,90,270,180,360,,,,,,,,,,,729.554,729.5544,,0,66,66,66,1,11,novel,,,,,,,,,,,,,,,,,,,,,,,,,,,,,,,,,,,,,,,,,,,,,,,,,
,,26,4,${e://Field/PROLIFIC_PID,M,31,2023-11-04_03h43.33.991,MouseEye_CC,2023.2.2,Win32,61.10228523,1.28,,,1536,864,50.284,4.52,"130.65, 146.62, 153.67, 163.02, 140.83, 144.32, 164.48",778.79,8.777104849,39.67251392,27.83653633,Failed,132.9029216,,,,,,,,,,,,,,,,,,,,,training,5,4,180,right,s,,,,,729.5552,730.0147,35.84,-4,7.199981689,1,0,0,0.4594,fixationPoint,730.0147,730.1152,730.1153,732.0808,35.84,10240,616.96,s,1,1.9413,,732.0808,732.2816,,,,,,,,25,-16,126,26,217,20,116,72,175,-31,-65,-117,-167,-121,-18,126,-28,209,-208,163,-120,-128,76,-116,112,360,90,180,270,90,360,360,180,270,180,90,,,,,,,,,,,732.2819,732.2824,,0,67,67,67,1,3,repeated,,,,,,,,,,,,,,,,,,,,,,,,,,,,,,,,,,,,,,,,,,,,,,,,,
,,26,4,${e://Field/PROLIFIC_PID,M,31,2023-11-04_03h43.33.991,MouseEye_CC,2023.2.2,Win32,61.10228523,1.28,,,1536,864,50.284,4.52,"130.65, 146.62, 153.67, 163.02, 140.83, 144.32, 164.48",778.79,8.777104849,39.67251392,27.83653633,Failed,132.9029216,,,,,,,,,,,,,,,,,,,,,training,5,5,0,left,a,,,,,732.2836,732.7812,35.84,-10.39996338,-8.800018311,1,0,0,0.4972,fixationPoint,732.7814,732.8816,732.8817,734.0142,35.84,10240,616.96,a,1,1.1008,,734.0143,734.2186,,,,,,,,96,20,-222,20,116,69,127,222,168,-221,25,-28,64,-115,218,-72,-128,-224,-218,-209,-164,79,-175,215,-66,180,360,270,180,360,270,270,90,270,180,270,,,,,,,,,,,734.2187,734.2189,,0,68,68,68,1,12,novel,,,,,,,,,,,,,,,,,,,,,,,,,,,,,,,,,,,,,,,,,,,,,,,,,
,,26,4,${e://Field/PROLIFIC_PID,M,31,2023-11-04_03h43.33.991,MouseEye_CC,2023.2.2,Win32,61.10228523,1.28,,,1536,864,50.284,4.52,"130.65, 146.62, 153.67, 163.02, 140.83, 144.32, 164.48",778.79,8.777104849,39.67251392,27.83653633,Failed,132.9029216,,,,,,,,,,,,,,,,,,,,,training,5,6,0,left,a,,,,,734.2193,734.7808,35.84,-2.399963379,-3.200012207,1,0,0,0.5613,fixationPoint,734.7808,734.8807,734.8808,736.355,35.84,10240,616.96,a,1,1.452,,736.3551,736.5529,,,,,,,,63,-116,-73,21,68,212,128,66,72,-221,25,-128,76,-208,172,19,-127,127,-127,163,-120,-121,-18,-72,-128,270,90,180,180,360,180,270,180,270,360,270,,,,,,,,,,,736.553,736.5535,,0,69,69,69,1,5,repeated,,,,,,,,,,,,,,,,,,,,,,,,,,,,,,,,,,,,,,,,,,,,,,,,,
,,26,4,${e://Field/PROLIFIC_PID,M,31,2023-11-04_03h43.33.991,MouseEye_CC,2023.2.2,Win32,61.10228523,1.28,,,1536,864,50.284,4.52,"130.65, 146.62, 153.67, 163.02, 140.83, 144.32, 164.48",778.79,8.777104849,39.67251392,27.83653633,Failed,132.9029216,,,,,,,,,,,,,,,,,,,,,training,5,7,180,right,s,,,,,736.5542,737.0799,35.84,3.200012207,3.199981689,1,0,0,0.5254,fixationPoint,737.0801,737.1689,737.1689,740.596,35.84,10240,616.96,s,1,3.4082,,740.5962,740.7968,,,,,,,,62,-176,-68,164,76,217,219,80,222,-174,115,-117,22,-20,212,215,-66,72,-221,174,-70,-170,-118,-24,-17,90,180,180,270,90,180,180,90,270,360,270,,,,,,,,,,,740.7969,740.7974,,0,70,70,70,1,10,novel,,,,,,,,,,,,,,,,,,,,,,,,,,,,,,,,,,,,,,,,,,,,,,,,,
,,26,4,${e://Field/PROLIFIC_PID,M,31,2023-11-04_03h43.33.991,MouseEye_CC,2023.2.2,Win32,61.10228523,1.28,,,1536,864,50.284,4.52,"130.65, 146.62, 153.67, 163.02, 140.83, 144.32, 164.48",778.79,8.777104849,39.67251392,27.83653633,Failed,132.9029216,,,,,,,,,,,,,,,,,,,,,training,5,8,180,right,s,,,,,740.798,741.4174,35.84,-6.399963379,-0.800018311,1,0,0,0.6193,fixationPoint,741.4175,741.513,741.5131,744.6788,35.84,10240,616.96,s,1,3.1399,,744.6789,744.8788,,,,,,,,29,169,125,-175,164,-28,64,-80,213,-163,-220,-169,-161,-75,-24,16,-173,119,-76,126,-28,26,171,26,217,270,360,180,90,180,270,180,90,270,90,180,,,,,,,,,,,744.8789,744.8792,,0,71,71,71,1,14,novel,,,,,,,,,,,,,,,,,,,,,,,,,,,,,,,,,,,,,,,,,,,,,,,,,
,,26,4,${e://Field/PROLIFIC_PID,M,31,2023-11-04_03h43.33.991,MouseEye_CC,2023.2.2,Win32,61.10228523,1.28,,,1536,864,50.284,4.52,"130.65, 146.62, 153.67, 163.02, 140.83, 144.32, 164.48",778.79,8.777104849,39.67251392,27.83653633,Failed,132.9029216,,,,,,,,,,,,,,,,,,,,,training,5,9,0,left,a,,,,,744.88,745.2336,35.84,12.79998779,10.3999939,0,0,1,0.3533,fixationPoint,745.2336,745.3289,745.3289,747.7778,35.84,10240,616.96,a,1,2.4265,,747.7781,747.9782,,,,,,,,5,-20,212,28,21,120,66,77,23,-20,-123,-224,-218,-218,-30,20,-222,19,-127,80,-120,-115,218,-117,22,360,270,180,360,180,90,180,360,90,360,270,,,,,,,,,,,747.9783,747.9786,,0,72,72,72,1,4,repeated,,,,,,,,,,,,,,,,,,,,,,,,,,,,,,,,,,,,,,,,,,,,,,,,,
,,26,4,${e://Field/PROLIFIC_PID,M,31,2023-11-04_03h43.33.991,MouseEye_CC,2023.2.2,Win32,61.10228523,1.28,,,1536,864,50.284,4.52,"130.65, 146.62, 153.67, 163.02, 140.83, 144.32, 164.48",778.79,8.777104849,39.67251392,27.83653633,Failed,132.9029216,,,,,,,,,,,,,,,,,,,,,training,5,10,0,left,a,,,,,747.9796,749.0441,35.84,4.799987793,7.199981689,1,0,0,1.0642,fixationPoint,749.0443,749.1444,749.1446,750.3444,35.84,10240,616.96,a,1,1.1675,,750.3446,750.5445,,,,,,,,74,-72,-128,26,171,77,23,218,80,-208,172,-20,212,-70,75,72,-221,211,-168,20,-222,-31,-65,-68,-221,360,270,270,360,270,270,90,360,360,270,90,,,,,,,,,,,750.5445,750.545,,0,73,73,73,1,9,novel,,,,,,,,,,,,,,,,,,,,,,,,,,,,,,,,,,,,,,,,,,,,,,,,,
,,26,4,${e://Field/PROLIFIC_PID,M,31,2023-11-04_03h43.33.991,MouseEye_CC,2023.2.2,Win32,61.10228523,1.28,,,1536,864,50.284,4.52,"130.65, 146.62, 153.67, 163.02, 140.83, 144.32, 164.48",778.79,8.777104849,39.67251392,27.83653633,Failed,132.9029216,,,,,,,,,,,,,,,,,,,,,training,5,11,180,right,s,,,,,750.5459,751.1937,35.84,5.600036621,-6.399993896,1,0,0,0.6475,fixationPoint,751.1938,751.2949,751.295,752.8439,35.84,10240,616.96,a,0,1.5173,,752.8441,756.8434,,,,,,,,38,120,66,-68,174,-30,28,-176,26,-169,-161,-176,-68,-75,-24,80,-120,209,-208,169,-32,169,125,26,171,180,270,90,360,90,360,90,360,180,180,270,,,,,,,,,,,756.8435,756.8659,,0,74,74,74,1,13,novel,,,,,,,,,,,,,,,,,,,,,,,,,,,,,,,,,,,,,,,,,,,,,,,,,
,,26,4,${e://Field/PROLIFIC_PID,M,31,2023-11-04_03h43.33.991,MouseEye_CC,2023.2.2,Win32,61.10228523,1.28,,,1536,864,50.284,4.52,"130.65, 146.62, 153.67, 163.02, 140.83, 144.32, 164.48",778.79,8.777104849,39.67251392,27.83653633,Failed,132.9029216,,,,,,,,,,,,,,,,,,,,,training,5,12,180,right,s,,,,,756.8664,758.043,35.84,-0.799987793,3.199981689,1,0,0,1.1764,fixationPoint,758.0431,758.1427,758.1428,759.9589,35.84,10240,616.96,s,1,1.7935,,759.9592,760.1595,,,,,,,,27,69,127,-160,70,-115,218,-28,64,-224,-218,-169,-161,-219,-120,124,-170,164,-173,174,-70,21,68,161,170,360,180,270,180,270,90,90,180,90,180,360,,,,,,,,,,,760.1597,760.1603,,0,75,75,75,1,1,repeated,,,,,,,,,,,,,,,,,,,,,,,,,,,,,,,,,,,,,,,,,,,,,,,,,
,,26,4,${e://Field/PROLIFIC_PID,M,31,2023-11-04_03h43.33.991,MouseEye_CC,2023.2.2,Win32,61.10228523,1.28,,,1536,864,50.284,4.52,"130.65, 146.62, 153.67, 163.02, 140.83, 144.32, 164.48",778.79,8.777104849,39.67251392,27.83653633,Failed,132.9029216,,,,,,,,,,,,,,,,,,,,,training,5,13,0,left,a,,,,,760.1611,760.8753,35.84,-4,-4.800018311,1,0,0,0.7139,fixationPoint,760.8756,760.9753,760.9754,763.1138,35.84,10240,616.96,a,1,2.116,,763.1138,763.3084,,,,,,,,4,-80,213,208,24,120,66,114,216,-116,-73,-70,-67,-72,-128,214,-24,27,-27,119,-76,-210,215,-30,28,360,270,360,360,180,360,180,90,270,360,180,,,,,,,,,,,763.3101,763.3105,,0,76,76,76,1,15,novel,,,,,,,,,,,,,,,,,,,,,,,,,,,,,,,,,,,,,,,,,,,,,,,,,
,,26,4,${e://Field/PROLIFIC_PID,M,31,2023-11-04_03h43.33.991,MouseEye_CC,2023.2.2,Win32,61.10228523,1.28,,,1536,864,50.284,4.52,"130.65, 146.62, 153.67, 163.02, 140.83, 144.32, 164.48",778.79,8.777104849,39.67251392,27.83653633,Failed,132.9029216,,,,,,,,,,,,,,,,,,,,,training,5,14,180,right,s,,,,,763.3111,764.3082,35.84,-4.799987793,-2.399993896,1,0,0,0.9969,fixationPoint,764.3083,764.4085,764.4086,765.5972,35.84,10240,616.96,s,1,1.1677,,765.5972,765.7914,,,,,,,,72,-170,-118,66,72,222,168,169,125,-30,28,-212,69,-117,22,174,-70,68,-64,124,-170,-70,-67,-218,-30,360,360,180,90,360,270,90,360,360,270,270,,,,,,,,,,,765.7915,765.7921,,0,77,77,77,1,6,repeated,,,,,,,,,,,,,,,,,,,,,,,,,,,,,,,,,,,,,,,,,,,,,,,,,
,,26,4,${e://Field/PROLIFIC_PID,M,31,2023-11-04_03h43.33.991,MouseEye_CC,2023.2.2,Win32,61.10228523,1.28,,,1536,864,50.284,4.52,"130.65, 146.62, 153.67, 163.02, 140.83, 144.32, 164.48",778.79,8.777104849,39.67251392,27.83653633,Failed,132.9029216,,,,,,,,,,,,,,,,,,,,,training,5,15,180,right,s,,,,,765.7929,766.479,35.84,5.600036621,4.799987793,1,0,0,0.6859,fixationPoint,766.479,766.5742,766.5744,768.041,35.84,10240,616.96,s,1,1.4382,,768.0412,768.2411,,,,,,,,97,72,-221,169,125,175,209,26,171,-20,212,-216,125,-160,70,-176,-68,-170,-118,-169,-161,127,-127,80,-120,180,90,360,90,180,90,360,360,180,90,180,,,,,,,,,,,768.2413,768.2421,,0,78,78,78,1,7,repeated,,,,,,,,,,,,,,,,,,,,,,,,,,,,,,,,,,,,,,,,,,,,,,,,,
,,26,4,${e://Field/PROLIFIC_PID,M,31,2023-11-04_03h43.33.991,MouseEye_CC,2023.2.2,Win32,61.10228523,1.28,,,1536,864,50.284,4.52,"130.65, 146.62, 153.67, 163.02, 140.83, 144.32, 164.48",778.79,8.777104849,39.67251392,27.83653633,Failed,132.9029216,,,,,,,,,,,,,,,,,,,,,training,5,16,0,left,a,,,,,768.2433,769.0076,35.84,-9.599975586,3.199981689,1,0,0,0.7641,fixationPoint,769.0077,769.1073,769.1075,770.4911,35.84,10240,616.96,a,1,1.3577,,770.4913,770.6795,,,,,,,,39,164,76,-174,115,-160,70,-20,212,-163,-220,-19,-223,-65,-160,68,-64,27,-27,169,-32,72,175,218,80,180,180,180,270,270,270,90,360,180,270,180,,,,,,,,,,,770.6797,773.5569,space,0,79,79,79,1,2,repeated,2.8527,,,,,,,,,,,,,,,,,,,,,,,,,,,,,,,,,,,,,,,,,,,,,,,,
,,26,4,${e://Field/PROLIFIC_PID,M,31,2023-11-04_03h43.33.991,MouseEye_CC,2023.2.2,Win32,61.10228523,1.28,,,1536,864,50.284,4.52,"130.65, 146.62, 153.67, 163.02, 140.83, 144.32, 164.48",778.79,8.777104849,39.67251392,27.83653633,Failed,132.9029216,,,,,,,,,,,,,,,,,,,,,training,6,1,180,right,s,,,,,773.5815,774.5568,35.84,-0.799987793,2.399993896,1,0,0,0.975,fixationPoint,774.5569,774.6566,774.6567,776.0568,35.84,10240,616.96,s,1,1.3675,,776.057,776.2565,,,,,,,,63,-116,-73,21,68,212,128,66,72,-221,25,-128,76,-208,172,19,-127,127,-127,163,-120,-121,-18,-72,-128,270,360,90,90,180,270,180,180,360,270,360,,,,,,,,,,,776.2568,776.2596,,0,80,80,80,1,5,repeated,,,,,,,,,,,,,,,,,,,,,,,,,,,,,,,,,,,,,,,,,,,,,,,,,
,,26,4,${e://Field/PROLIFIC_PID,M,31,2023-11-04_03h43.33.991,MouseEye_CC,2023.2.2,Win32,61.10228523,1.28,,,1536,864,50.284,4.52,"130.65, 146.62, 153.67, 163.02, 140.83, 144.32, 164.48",778.79,8.777104849,39.67251392,27.83653633,Failed,132.9029216,,,,,,,,,,,,,,,,,,,,,training,6,2,180,right,s,,,,,776.2602,776.873,35.84,12,0.799987793,1,0,0,0.6125,fixationPoint,776.8732,776.9727,776.9729,778.279,35.84,10240,616.96,s,1,1.2833,,778.2791,778.4723,,,,,,,,62,-176,-68,66,72,72,175,121,167,-175,164,-70,75,-73,119,209,-208,27,-68,112,-215,-117,-167,-219,-120,270,90,180,360,270,180,90,180,90,180,90,,,,,,,,,,,778.4725,778.473,,0,81,81,81,1,10,novel,,,,,,,,,,,,,,,,,,,,,,,,,,,,,,,,,,,,,,,,,,,,,,,,,
,,26,4,${e://Field/PROLIFIC_PID,M,31,2023-11-04_03h43.33.991,MouseEye_CC,2023.2.2,Win32,61.10228523,1.28,,,1536,864,50.284,4.52,"130.65, 146.62, 153.67, 163.02, 140.83, 144.32, 164.48",778.79,8.777104849,39.67251392,27.83653633,Failed,132.9029216,,,,,,,,,,,,,,,,,,,,,training,6,3,0,left,a,,,,,778.474,779.3555,35.84,4,4.799987793,1,0,0,0.8811,fixationPoint,779.3557,779.4555,779.4556,780.2719,35.84,10240,616.96,a,1,0.7879,,780.2721,780.4723,,,,,,,,72,-170,-118,66,72,222,168,169,125,-30,28,-212,69,-117,22,174,-70,68,-64,124,-170,-70,-67,-218,-30,180,180,270,90,180,180,180,90,90,360,270,,,,,,,,,,,780.4725,780.4731,,0,82,82,82,1,6,repeated,,,,,,,,,,,,,,,,,,,,,,,,,,,,,,,,,,,,,,,,,,,,,,,,,
,,26,4,${e://Field/PROLIFIC_PID,M,31,2023-11-04_03h43.33.991,MouseEye_CC,2023.2.2,Win32,61.10228523,1.28,,,1536,864,50.284,4.52,"130.65, 146.62, 153.67, 163.02, 140.83, 144.32, 164.48",778.79,8.777104849,39.67251392,27.83653633,Failed,132.9029216,,,,,,,,,,,,,,,,,,,,,training,6,4,180,right,s,,,,,780.4744,781.0881,35.84,2.400024414,-4,1,0,0,0.6135,fixationPoint,781.0882,781.1882,781.1883,782.6879,35.84,10240,616.96,s,1,1.4724,,782.6879,782.8885,,,,,,,,88,124,-170,166,16,217,219,169,125,-117,22,-16,126,-126,173,-24,-17,-65,-160,-224,-218,19,-127,169,-32,360,90,270,90,180,360,90,90,360,180,270,,,,,,,,,,,782.8886,782.8894,,0,83,83,83,1,8,repeated,,,,,,,,,,,,,,,,,,,,,,,,,,,,,,,,,,,,,,,,,,,,,,,,,
,,26,4,${e://Field/PROLIFIC_PID,M,31,2023-11-04_03h43.33.991,MouseEye_CC,2023.2.2,Win32,61.10228523,1.28,,,1536,864,50.284,4.52,"130.65, 146.62, 153.67, 163.02, 140.83, 144.32, 164.48",778.79,8.777104849,39.67251392,27.83653633,Failed,132.9029216,,,,,,,,,,,,,,,,,,,,,training,6,5,0,left,a,,,,,782.8901,783.388,35.84,3.200012207,1.600006104,1,0,0,0.4975,fixationPoint,783.3881,783.4881,783.4883,785.0436,35.84,10240,616.96,a,1,1.5329,,785.0436,785.2373,,,,,,,,29,169,125,-16,126,-210,215,-216,125,-219,-120,-72,-128,-31,-65,169,-32,27,-68,79,-175,80,222,175,209,180,180,360,90,90,90,180,180,90,180,90,,,,,,,,,,,785.2375,785.2381,,0,84,84,84,1,14,novel,,,,,,,,,,,,,,,,,,,,,,,,,,,,,,,,,,,,,,,,,,,,,,,,,
,,26,4,${e://Field/PROLIFIC_PID,M,31,2023-11-04_03h43.33.991,MouseEye_CC,2023.2.2,Win32,61.10228523,1.28,,,1536,864,50.284,4.52,"130.65, 146.62, 153.67, 163.02, 140.83, 144.32, 164.48",778.79,8.777104849,39.67251392,27.83653633,Failed,132.9029216,,,,,,,,,,,,,,,,,,,,,training,6,6,0,left,a,,,,,785.2394,786.0542,35.84,-8,-0.800018311,1,0,0,0.8144,fixationPoint,786.0543,786.1536,786.1537,788.7038,35.84,10240,616.96,a,1,2.5188,,788.704,788.9032,,,,,,,,27,69,127,-160,70,-115,218,-28,64,-224,-218,-169,-161,-219,-120,124,-170,164,-173,174,-70,21,68,161,170,90,90,90,360,270,180,90,270,90,360,360,,,,,,,,,,,788.9033,788.9038,,0,85,85,85,1,1,repeated,,,,,,,,,,,,,,,,,,,,,,,,,,,,,,,,,,,,,,,,,,,,,,,,,
,,26,4,${e://Field/PROLIFIC_PID,M,31,2023-11-04_03h43.33.991,MouseEye_CC,2023.2.2,Win32,61.10228523,1.28,,,1536,864,50.284,4.52,"130.65, 146.62, 153.67, 163.02, 140.83, 144.32, 164.48",778.79,8.777104849,39.67251392,27.83653633,Failed,132.9029216,,,,,,,,,,,,,,,,,,,,,training,6,7,180,right,s,,,,,788.9049,789.4035,35.84,8,6.399993896,1,0,0,0.4985,fixationPoint,789.4037,789.5037,789.5038,792.4916,35.84,10240,616.96,s,1,2.9655,,792.4917,792.6867,,,,,,,,96,20,-222,66,72,21,68,212,128,-28,64,-16,126,-221,25,-169,-161,-24,-17,-117,-167,174,-70,215,-66,270,270,360,360,180,180,90,90,270,90,270,,,,,,,,,,,792.6869,792.6874,,0,86,86,86,1,12,novel,,,,,,,,,,,,,,,,,,,,,,,,,,,,,,,,,,,,,,,,,,,,,,,,,
,,26,4,${e://Field/PROLIFIC_PID,M,31,2023-11-04_03h43.33.991,MouseEye_CC,2023.2.2,Win32,61.10228523,1.28,,,1536,864,50.284,4.52,"130.65, 146.62, 153.67, 163.02, 140.83, 144.32, 164.48",778.79,8.777104849,39.67251392,27.83653633,Failed,132.9029216,,,,,,,,,,,,,,,,,,,,,training,6,8,180,right,s,,,,,792.688,793.3367,35.84,4,-2.399993896,1,0,0,0.6483,fixationPoint,793.3369,793.4359,793.4361,795.3692,35.84,10240,616.96,s,1,1.9025,,795.3693,795.5689,,,,,,,,5,-20,212,28,21,120,66,77,23,-20,-123,-224,-218,-218,-30,20,-222,19,-127,80,-120,-115,218,-117,22,90,270,270,180,270,180,90,360,90,90,270,,,,,,,,,,,795.5689,795.5693,,0,87,87,87,1,4,repeated,,,,,,,,,,,,,,,,,,,,,,,,,,,,,,,,,,,,,,,,,,,,,,,,,
,,26,4,${e://Field/PROLIFIC_PID,M,31,2023-11-04_03h43.33.991,MouseEye_CC,2023.2.2,Win32,61.10228523,1.28,,,1536,864,50.284,4.52,"130.65, 146.62, 153.67, 163.02, 140.83, 144.32, 164.48",778.79,8.777104849,39.67251392,27.83653633,Failed,132.9029216,,,,,,,,,,,,,,,,,,,,,training,6,9,180,right,s,,,,,795.5703,796.485,35.84,-2.399963379,-0.800018311,1,0,0,0.9145,fixationPoint,796.485,796.5856,796.5858,797.8858,35.84,10240,616.96,s,1,1.2674,,797.886,798.0849,,,,,,,,76,19,-127,26,171,21,68,212,128,-172,214,-117,22,-212,69,-220,-68,-127,-212,-167,-32,68,-64,79,-175,270,90,270,180,360,360,180,180,180,270,360,,,,,,,,,,,798.085,798.0855,,0,88,88,88,1,11,novel,,,,,,,,,,,,,,,,,,,,,,,,,,,,,,,,,,,,,,,,,,,,,,,,,
,,26,4,${e://Field/PROLIFIC_PID,M,31,2023-11-04_03h43.33.991,MouseEye_CC,2023.2.2,Win32,61.10228523,1.28,,,1536,864,50.284,4.52,"130.65, 146.62, 153.67, 163.02, 140.83, 144.32, 164.48",778.79,8.777104849,39.67251392,27.83653633,Failed,132.9029216,,,,,,,,,,,,,,,,,,,,,training,6,10,180,right,s,,,,,798.0869,798.8016,35.84,-6.399963379,2.399993896,1,0,0,0.7144,fixationPoint,798.8017,798.9008,798.9009,800.8177,35.84,10240,616.96,s,1,1.8891,,800.8178,801.0182,,,,,,,,4,-80,213,66,72,218,80,26,217,-127,-212,-170,-118,-224,-218,68,-64,222,-126,174,-70,-20,212,-115,218,360,180,180,180,360,270,270,180,90,360,180,,,,,,,,,,,801.0184,801.0191,,0,89,89,89,1,15,novel,,,,,,,,,,,,,,,,,,,,,,,,,,,,,,,,,,,,,,,,,,,,,,,,,
,,26,4,${e://Field/PROLIFIC_PID,M,31,2023-11-04_03h43.33.991,MouseEye_CC,2023.2.2,Win32,61.10228523,1.28,,,1536,864,50.284,4.52,"130.65, 146.62, 153.67, 163.02, 140.83, 144.32, 164.48",778.79,8.777104849,39.67251392,27.83653633,Failed,132.9029216,,,,,,,,,,,,,,,,,,,,,training,6,11,180,right,s,,,,,801.0203,801.7509,35.84,3.200012207,-4,1,0,0,0.7303,fixationPoint,801.7511,801.8504,801.8505,804.1671,35.84,10240,616.96,s,1,2.2887,,804.1672,804.3675,,,,,,,,38,120,66,-126,173,-28,64,-221,25,-19,-176,-75,-24,-170,-118,72,-19,222,-126,209,-208,222,168,21,68,270,270,90,180,270,180,270,180,90,90,90,,,,,,,,,,,804.3677,804.3683,,0,90,90,90,1,13,novel,,,,,,,,,,,,,,,,,,,,,,,,,,,,,,,,,,,,,,,,,,,,,,,,,
,,26,4,${e://Field/PROLIFIC_PID,M,31,2023-11-04_03h43.33.991,MouseEye_CC,2023.2.2,Win32,61.10228523,1.28,,,1536,864,50.284,4.52,"130.65, 146.62, 153.67, 163.02, 140.83, 144.32, 164.48",778.79,8.777104849,39.67251392,27.83653633,Failed,132.9029216,,,,,,,,,,,,,,,,,,,,,training,6,12,0,left,a,,,,,804.3695,805.1503,35.84,-5.599975586,-2.399993896,1,0,0,0.7806,fixationPoint,805.1506,805.2497,805.2498,806.8998,35.84,10240,616.96,a,1,1.6188,,806.8999,807.1011,,,,,,,,25,-16,126,26,217,20,116,72,175,-31,-65,-117,-167,-121,-18,126,-28,209,-208,163,-120,-128,76,-116,112,90,90,270,180,270,270,360,90,90,90,180,,,,,,,,,,,807.1013,807.1015,,0,91,91,91,1,3,repeated,,,,,,,,,,,,,,,,,,,,,,,,,,,,,,,,,,,,,,,,,,,,,,,,,
,,26,4,${e://Field/PROLIFIC_PID,M,31,2023-11-04_03h43.33.991,MouseEye_CC,2023.2.2,Win32,61.10228523,1.28,,,1536,864,50.284,4.52,"130.65, 146.62, 153.67, 163.02, 140.83, 144.32, 164.48",778.79,8.777104849,39.67251392,27.83653633,Failed,132.9029216,,,,,,,,,,,,,,,,,,,,,training,6,13,0,left,a,,,,,807.1021,807.8664,35.84,11.20001221,-2.399993896,1,0,0,0.7642,fixationPoint,807.8666,807.9661,807.9663,809.288,35.84,10240,616.96,a,1,1.2989,,809.2881,809.4832,,,,,,,,74,-72,-128,77,23,118,20,212,128,-126,173,-208,172,-221,25,19,-127,27,-27,127,-127,-117,-167,-116,-73,90,360,90,270,270,360,90,360,360,360,270,,,,,,,,,,,809.4834,809.4841,,0,92,92,92,1,9,novel,,,,,,,,,,,,,,,,,,,,,,,,,,,,,,,,,,,,,,,,,,,,,,,,,
,,26,4,${e://Field/PROLIFIC_PID,M,31,2023-11-04_03h43.33.991,MouseEye_CC,2023.2.2,Win32,61.10228523,1.28,,,1536,864,50.284,4.52,"130.65, 146.62, 153.67, 163.02, 140.83, 144.32, 164.48",778.79,8.777104849,39.67251392,27.83653633,Failed,132.9029216,,,,,,,,,,,,,,,,,,,,,training,6,14,0,left,a,,,,,809.4853,810.2208,35.84,-4.799987793,1.600006104,1,0,0,0.7353,fixationPoint,810.2208,810.316,810.3162,811.8872,35.84,10240,616.96,a,1,1.5497,,811.8873,812.0823,,,,,,,,39,164,76,-174,115,-160,70,-20,212,-163,-220,-19,-223,-65,-160,68,-64,27,-27,169,-32,72,175,218,80,270,270,360,270,360,270,270,360,180,180,360,,,,,,,,,,,812.0823,812.0827,,0,93,93,93,1,2,repeated,,,,,,,,,,,,,,,,,,,,,,,,,,,,,,,,,,,,,,,,,,,,,,,,,
,,26,4,${e://Field/PROLIFIC_PID,M,31,2023-11-04_03h43.33.991,MouseEye_CC,2023.2.2,Win32,61.10228523,1.28,,,1536,864,50.284,4.52,"130.65, 146.62, 153.67, 163.02, 140.83, 144.32, 164.48",778.79,8.777104849,39.67251392,27.83653633,Failed,132.9029216,,,,,,,,,,,,,,,,,,,,,training,6,15,0,left,a,,,,,812.0837,812.6719,35.84,12.79998779,8,1,0,0,0.5879,fixationPoint,812.672,812.7651,812.7651,814.4537,35.84,10240,616.96,a,1,1.6654,,814.4538,814.6481,,,,,,,,13,-126,173,69,127,222,168,161,170,-20,-123,-220,-68,-116,-73,119,-76,174,-70,72,-19,-30,28,-115,218,90,360,360,270,180,360,270,270,360,180,360,,,,,,,,,,,814.6483,814.6487,,0,94,94,94,1,16,novel,,,,,,,,,,,,,,,,,,,,,,,,,,,,,,,,,,,,,,,,,,,,,,,,,
,,26,4,${e://Field/PROLIFIC_PID,M,31,2023-11-04_03h43.33.991,MouseEye_CC,2023.2.2,Win32,61.10228523,1.28,,,1536,864,50.284,4.52,"130.65, 146.62, 153.67, 163.02, 140.83, 144.32, 164.48",778.79,8.777104849,39.67251392,27.83653633,Failed,132.9029216,,,,,,,,,,,,,,,,,,,,,training,6,16,0,left,a,,,,,814.6496,815.3988,35.84,3.200012207,-14.3999939,1,0,0,0.7488,fixationPoint,815.3989,815.4983,815.4984,817.2644,35.84,10240,616.96,a,1,1.7351,,817.2644,817.4696,,,,,,,,97,72,-221,169,125,175,209,26,171,-20,212,-216,125,-160,70,-176,-68,-170,-118,-169,-161,127,-127,80,-120,270,180,270,90,270,270,270,90,360,270,360,,,,,,,,,,,817.4696,819.1146,space,0,95,95,95,1,7,repeated,1.622,,,,,,,,,,,,,,,,,,,,,,,,,,,,,,,,,,,,,,,,,,,,,,,,
,,26,4,${e://Field/PROLIFIC_PID,M,31,2023-11-04_03h43.33.991,MouseEye_CC,2023.2.2,Win32,61.10228523,1.28,,,1536,864,50.284,4.52,"130.65, 146.62, 153.67, 163.02, 140.83, 144.32, 164.48",778.79,8.777104849,39.67251392,27.83653633,Failed,132.9029216,,,,,,,,,,,,,,,,,,,,,training,7,1,180,right,s,,,,,819.116,819.8975,35.84,4,-4.800018311,1,0,0,0.7811,fixationPoint,819.8976,819.9974,819.9976,821.6299,35.84,10240,616.96,s,1,1.6009,,821.63,821.8308,,,,,,,,25,-16,126,26,217,20,116,72,175,-31,-65,-117,-167,-121,-18,126,-28,209,-208,163,-120,-128,76,-116,112,180,180,180,90,360,360,270,360,90,180,90,,,,,,,,,,,821.831,821.8342,,0,96,96,96,1,3,repeated,,,,,,,,,,,,,,,,,,,,,,,,,,,,,,,,,,,,,,,,,,,,,,,,,
,,26,4,${e://Field/PROLIFIC_PID,M,31,2023-11-04_03h43.33.991,MouseEye_CC,2023.2.2,Win32,61.10228523,1.28,,,1536,864,50.284,4.52,"130.65, 146.62, 153.67, 163.02, 140.83, 144.32, 164.48",778.79,8.777104849,39.67251392,27.83653633,Failed,132.9029216,,,,,,,,,,,,,,,,,,,,,training,7,2,0,left,a,,,,,821.8352,822.5364,35.84,9.600036621,4,1,0,0,0.701,fixationPoint,822.5365,822.6334,822.6335,824.0032,35.84,10240,616.96,a,1,1.3514,,824.0032,824.1962,,,,,,,,97,72,-221,169,125,175,209,26,171,-20,212,-216,125,-160,70,-176,-68,-170,-118,-169,-161,127,-127,80,-120,360,270,360,180,180,360,90,270,270,360,180,,,,,,,,,,,824.1964,824.1966,,0,97,97,97,1,7,repeated,,,,,,,,,,,,,,,,,,,,,,,,,,,,,,,,,,,,,,,,,,,,,,,,,
,,26,4,${e://Field/PROLIFIC_PID,M,31,2023-11-04_03h43.33.991,MouseEye_CC,2023.2.2,Win32,61.10228523,1.28,,,1536,864,50.284,4.52,"130.65, 146.62, 153.67, 163.02, 140.83, 144.32, 164.48",778.79,8.777104849,39.67251392,27.83653633,Failed,132.9029216,,,,,,,,,,,,,,,,,,,,,training,7,3,180,right,s,,,,,824.1973,824.8635,35.84,-8,7.199981689,1,0,0,0.6657,fixationPoint,824.8636,824.9632,824.9634,826.3129,35.84,10240,616.96,s,1,1.3206,,826.313,826.5133,,,,,,,,39,164,76,-174,115,-160,70,-20,212,-163,-220,-19,-223,-65,-160,68,-64,27,-27,169,-32,72,175,218,80,90,180,180,360,270,360,180,360,360,90,270,,,,,,,,,,,826.5135,826.5141,,0,98,98,98,1,2,repeated,,,,,,,,,,,,,,,,,,,,,,,,,,,,,,,,,,,,,,,,,,,,,,,,,
,,26,4,${e://Field/PROLIFIC_PID,M,31,2023-11-04_03h43.33.991,MouseEye_CC,2023.2.2,Win32,61.10228523,1.28,,,1536,864,50.284,4.52,"130.65, 146.62, 153.67, 163.02, 140.83, 144.32, 164.48",778.79,8.777104849,39.67251392,27.83653633,Failed,132.9029216,,,,,,,,,,,,,,,,,,,,,training,7,4,180,right,s,,,,,826.5152,827.2296,35.84,8,-5.600006104,1,0,0,0.7142,fixationPoint,827.2298,827.3294,827.3295,829.4993,35.84,10240,616.96,s,1,2.1482,,829.4995,829.7009,,,,,,,,88,124,-170,166,16,217,219,169,125,-117,22,-16,126,-126,173,-24,-17,-65,-160,-224,-218,19,-127,169,-32,270,90,90,270,360,90,270,270,90,180,180,,,,,,,,,,,829.7009,829.7012,,0,99,99,99,1,8,repeated,,,,,,,,,,,,,,,,,,,,,,,,,,,,,,,,,,,,,,,,,,,,,,,,,
,,26,4,${e://Field/PROLIFIC_PID,M,31,2023-11-04_03h43.33.991,MouseEye_CC,2023.2.2,Win32,61.10228523,1.28,,,1536,864,50.284,4.52,"130.65, 146.62, 153.67, 163.02, 140.83, 144.32, 164.48",778.79,8.777104849,39.67251392,27.83653633,Failed,132.9029216,,,,,,,,,,,,,,,,,,,,,training,7,5,0,left,a,,,,,829.7019,830.4949,35.84,-2.399963379,-3.200012207,1,0,0,0.7928,fixationPoint,830.495,830.5954,830.5955,832.2449,35.84,10240,616.96,a,1,1.616,,832.245,832.4461,,,,,,,,62,-176,-68,166,16,66,72,72,175,-68,174,-28,64,-73,119,163,-120,16,-173,119,-76,-65,-160,-224,-218,360,270,180,360,270,270,360,360,360,180,180,,,,,,,,,,,832.4462,832.4466,,0,100,100,100,1,10,novel,,,,,,,,,,,,,,,,,,,,,,,,,,,,,,,,,,,,,,,,,,,,,,,,,
,,26,4,${e://Field/PROLIFIC_PID,M,31,2023-11-04_03h43.33.991,MouseEye_CC,2023.2.2,Win32,61.10228523,1.28,,,1536,864,50.284,4.52,"130.65, 146.62, 153.67, 163.02, 140.83, 144.32, 164.48",778.79,8.777104849,39.67251392,27.83653633,Failed,132.9029216,,,,,,,,,,,,,,,,,,,,,training,7,6,0,left,a,,,,,832.447,832.9951,35.84,4.799987793,4.799987793,1,0,0,0.5475,fixationPoint,832.9953,833.095,833.0951,834.2284,35.84,10240,616.96,a,1,1.1005,,834.2286,834.4333,,,,,,,,76,19,-127,72,175,123,112,121,167,-16,126,-208,172,-24,162,-127,-212,-75,-24,-19,-176,119,-76,68,-64,90,270,180,180,270,270,270,360,270,90,90,,,,,,,,,,,834.4334,834.4337,,0,101,101,101,1,11,novel,,,,,,,,,,,,,,,,,,,,,,,,,,,,,,,,,,,,,,,,,,,,,,,,,
,,26,4,${e://Field/PROLIFIC_PID,M,31,2023-11-04_03h43.33.991,MouseEye_CC,2023.2.2,Win32,61.10228523,1.28,,,1536,864,50.284,4.52,"130.65, 146.62, 153.67, 163.02, 140.83, 144.32, 164.48",778.79,8.777104849,39.67251392,27.83653633,Failed,132.9029216,,,,,,,,,,,,,,,,,,,,,training,7,7,180,right,s,,,,,834.4342,835.0939,35.84,-7.200012207,-4,1,0,0,0.6594,fixationPoint,835.0941,835.1942,835.1942,837.1275,35.84,10240,616.96,s,1,1.9031,,837.1276,837.327,,,,,,,,29,169,125,-175,164,-216,125,-115,218,-24,-17,-70,-67,-31,-65,124,-170,19,-127,72,-19,121,167,20,116,270,270,270,90,270,180,270,90,90,270,180,,,,,,,,,,,837.3271,837.3275,,0,102,102,102,1,14,novel,,,,,,,,,,,,,,,,,,,,,,,,,,,,,,,,,,,,,,,,,,,,,,,,,
,,26,4,${e://Field/PROLIFIC_PID,M,31,2023-11-04_03h43.33.991,MouseEye_CC,2023.2.2,Win32,61.10228523,1.28,,,1536,864,50.284,4.52,"130.65, 146.62, 153.67, 163.02, 140.83, 144.32, 164.48",778.79,8.777104849,39.67251392,27.83653633,Failed,132.9029216,,,,,,,,,,,,,,,,,,,,,training,7,8,180,right,s,,,,,837.3286,838.2601,35.84,0.799987793,4,1,0,0,0.9313,fixationPoint,838.2601,838.3606,838.3606,840.3442,35.84,10240,616.96,s,1,1.9509,,840.3444,840.5428,,,,,,,,5,-20,212,28,21,120,66,77,23,-20,-123,-224,-218,-218,-30,20,-222,19,-127,80,-120,-115,218,-117,22,90,360,360,360,360,270,180,180,270,90,90,,,,,,,,,,,840.543,840.5434,,0,103,103,103,1,4,repeated,,,,,,,,,,,,,,,,,,,,,,,,,,,,,,,,,,,,,,,,,,,,,,,,,
,,26,4,${e://Field/PROLIFIC_PID,M,31,2023-11-04_03h43.33.991,MouseEye_CC,2023.2.2,Win32,61.10228523,1.28,,,1536,864,50.284,4.52,"130.65, 146.62, 153.67, 163.02, 140.83, 144.32, 164.48",778.79,8.777104849,39.67251392,27.83653633,Failed,132.9029216,,,,,,,,,,,,,,,,,,,,,training,7,9,0,left,a,,,,,840.5444,841.2489,35.84,5.600036621,-5.600006104,1,0,0,0.7042,fixationPoint,841.2489,841.3433,841.3434,842.3099,35.84,10240,616.96,a,1,0.9417,,842.3101,842.5141,,,,,,,,72,-170,-118,66,72,222,168,169,125,-30,28,-212,69,-117,22,174,-70,68,-64,124,-170,-70,-67,-218,-30,270,180,180,360,180,90,90,270,180,90,270,,,,,,,,,,,842.5142,842.5148,,0,104,104,104,1,6,repeated,,,,,,,,,,,,,,,,,,,,,,,,,,,,,,,,,,,,,,,,,,,,,,,,,
,,26,4,${e://Field/PROLIFIC_PID,M,31,2023-11-04_03h43.33.991,MouseEye_CC,2023.2.2,Win32,61.10228523,1.28,,,1536,864,50.284,4.52,"130.65, 146.62, 153.67, 163.02, 140.83, 144.32, 164.48",778.79,8.777104849,39.67251392,27.83653633,Failed,132.9029216,,,,,,,,,,,,,,,,,,,,,training,7,10,180,right,s,,,,,842.5158,843.0924,35.84,7.200012207,11.19998169,1,0,0,0.5763,fixationPoint,843.0926,843.1925,843.1926,844.7593,35.84,10240,616.96,s,1,1.5334,,844.7596,844.9593,,,,,,,,38,120,66,-24,162,-73,119,-115,218,-19,-176,-120,-116,-224,-218,174,-70,127,-127,112,-215,169,125,80,222,90,270,180,360,90,180,90,180,90,360,180,,,,,,,,,,,844.9594,844.9598,,0,105,105,105,1,13,novel,,,,,,,,,,,,,,,,,,,,,,,,,,,,,,,,,,,,,,,,,,,,,,,,,
,,26,4,${e://Field/PROLIFIC_PID,M,31,2023-11-04_03h43.33.991,MouseEye_CC,2023.2.2,Win32,61.10228523,1.28,,,1536,864,50.284,4.52,"130.65, 146.62, 153.67, 163.02, 140.83, 144.32, 164.48",778.79,8.777104849,39.67251392,27.83653633,Failed,132.9029216,,,,,,,,,,,,,,,,,,,,,training,7,11,0,left,a,,,,,844.961,845.6921,35.84,-0.799987793,5.600006104,1,0,0,0.7309,fixationPoint,845.6922,845.7925,845.7926,848.3584,35.84,10240,616.96,a,1,2.5355,,848.3585,848.5472,,,,,,,,63,-116,-73,21,68,212,128,66,72,-221,25,-128,76,-208,172,19,-127,127,-127,163,-120,-121,-18,-72,-128,180,360,360,180,180,180,270,270,270,360,270,,,,,,,,,,,848.5473,848.5474,,0,106,106,106,1,5,repeated,,,,,,,,,,,,,,,,,,,,,,,,,,,,,,,,,,,,,,,,,,,,,,,,,
,,26,4,${e://Field/PROLIFIC_PID,M,31,2023-11-04_03h43.33.991,MouseEye_CC,2023.2.2,Win32,61.10228523,1.28,,,1536,864,50.284,4.52,"130.65, 146.62, 153.67, 163.02, 140.83, 144.32, 164.48",778.79,8.777104849,39.67251392,27.83653633,Failed,132.9029216,,,,,,,,,,,,,,,,,,,,,training,7,12,0,left,a,,,,,848.5477,849.2748,35.84,-3.200012207,0,1,0,0,0.7267,fixationPoint,849.2749,849.3743,849.3745,852.1968,35.84,10240,616.96,a,1,2.8001,,852.1968,852.3909,,,,,,,,13,-126,173,164,76,20,116,121,167,-219,-120,-220,-68,-120,-116,174,-70,80,-120,168,-220,-128,76,-24,162,90,270,180,360,180,90,180,180,90,270,180,,,,,,,,,,,852.391,852.3915,,0,107,107,107,1,16,novel,,,,,,,,,,,,,,,,,,,,,,,,,,,,,,,,,,,,,,,,,,,,,,,,,
,,26,4,${e://Field/PROLIFIC_PID,M,31,2023-11-04_03h43.33.991,MouseEye_CC,2023.2.2,Win32,61.10228523,1.28,,,1536,864,50.284,4.52,"130.65, 146.62, 153.67, 163.02, 140.83, 144.32, 164.48",778.79,8.777104849,39.67251392,27.83653633,Failed,132.9029216,,,,,,,,,,,,,,,,,,,,,training,7,13,180,right,s,,,,,852.3925,853.2066,35.84,4,4,1,0,0,0.8138,fixationPoint,853.2066,853.3072,853.3073,855.6074,35.84,10240,616.96,s,1,2.2752,,855.6077,855.8072,,,,,,,,4,-80,213,164,76,222,168,118,20,-72,-128,-209,-164,-75,-24,79,-175,72,-221,112,-215,-73,119,-210,215,180,360,270,360,270,90,180,270,90,360,180,,,,,,,,,,,855.8073,855.8078,,0,108,108,108,1,15,novel,,,,,,,,,,,,,,,,,,,,,,,,,,,,,,,,,,,,,,,,,,,,,,,,,
,,26,4,${e://Field/PROLIFIC_PID,M,31,2023-11-04_03h43.33.991,MouseEye_CC,2023.2.2,Win32,61.10228523,1.28,,,1536,864,50.284,4.52,"130.65, 146.62, 153.67, 163.02, 140.83, 144.32, 164.48",778.79,8.777104849,39.67251392,27.83653633,Failed,132.9029216,,,,,,,,,,,,,,,,,,,,,training,7,14,0,left,a,,,,,855.8085,856.6236,35.84,8.799987793,4,1,0,0,0.8145,fixationPoint,856.6238,856.7289,856.7289,858.8233,35.84,10240,616.96,a,1,2.069,,858.8234,859.0284,,,,,,,,96,20,-222,166,16,26,171,114,216,-80,213,-221,25,-117,22,-224,-218,-167,-32,-75,-24,72,-19,79,-175,180,270,90,90,90,180,90,270,360,360,180,,,,,,,,,,,859.0286,859.0289,,0,109,109,109,1,12,novel,,,,,,,,,,,,,,,,,,,,,,,,,,,,,,,,,,,,,,,,,,,,,,,,,
,,26,4,${e://Field/PROLIFIC_PID,M,31,2023-11-04_03h43.33.991,MouseEye_CC,2023.2.2,Win32,61.10228523,1.28,,,1536,864,50.284,4.52,"130.65, 146.62, 153.67, 163.02, 140.83, 144.32, 164.48",778.79,8.777104849,39.67251392,27.83653633,Failed,132.9029216,,,,,,,,,,,,,,,,,,,,,training,7,15,0,left,a,,,,,859.0296,859.6555,35.84,0.799987793,2.399993896,1,0,0,0.6257,fixationPoint,859.6557,859.7562,859.7563,862.4893,35.84,10240,616.96,a,1,2.7054,,862.4895,862.6889,,,,,,,,74,-72,-128,69,127,169,125,80,222,-172,214,-73,119,-160,70,222,-126,19,-127,112,-215,-117,-167,-31,-65,270,90,270,360,360,360,180,180,90,90,360,,,,,,,,,,,862.689,862.6898,,0,110,110,110,1,9,novel,,,,,,,,,,,,,,,,,,,,,,,,,,,,,,,,,,,,,,,,,,,,,,,,,
,,26,4,${e://Field/PROLIFIC_PID,M,31,2023-11-04_03h43.33.991,MouseEye_CC,2023.2.2,Win32,61.10228523,1.28,,,1536,864,50.284,4.52,"130.65, 146.62, 153.67, 163.02, 140.83, 144.32, 164.48",778.79,8.777104849,39.67251392,27.83653633,Failed,132.9029216,,,,,,,,,,,,,,,,,,,,,training,7,16,180,right,s,,,,,862.6908,863.289,35.84,-8,-1.600006104,1,0,0,0.5979,fixationPoint,863.2891,863.3891,863.3893,865.2291,35.84,10240,616.96,s,1,1.8172,,865.2293,865.4218,,,,,,,,27,69,127,-160,70,-115,218,-28,64,-224,-218,-169,-161,-219,-120,124,-170,164,-173,174,-70,21,68,161,170,360,180,270,270,180,180,90,180,90,90,270,,,,,,,,,,,865.422,867.3553,space,0,111,111,111,1,1,repeated,1.9008,,,,,,,,,,,,,,,,,,,,,,,,,,,,,,,,,,,,,,,,,,,,,,,,
,,26,4,${e://Field/PROLIFIC_PID,M,31,2023-11-04_03h43.33.991,MouseEye_CC,2023.2.2,Win32,61.10228523,1.28,,,1536,864,50.284,4.52,"130.65, 146.62, 153.67, 163.02, 140.83, 144.32, 164.48",778.79,8.777104849,39.67251392,27.83653633,Failed,132.9029216,,,,,,,,,,,,,,,,,,,,,training,8,1,180,right,s,,,,,867.3567,867.9214,35.84,9.600036621,0.799987793,1,0,0,0.5643,fixationPoint,867.9215,868.0209,868.021,869.2702,35.84,10240,616.96,s,1,1.2182,,869.2704,869.47,,,,,,,,38,120,66,-115,218,-20,212,-176,26,-75,-24,-121,-18,-120,-116,80,-120,209,-208,164,-173,118,20,20,116,90,270,180,180,270,90,360,180,270,90,90,,,,,,,,,,,869.4701,869.4725,,0,112,112,112,1,13,novel,,,,,,,,,,,,,,,,,,,,,,,,,,,,,,,,,,,,,,,,,,,,,,,,,
,,26,4,${e://Field/PROLIFIC_PID,M,31,2023-11-04_03h43.33.991,MouseEye_CC,2023.2.2,Win32,61.10228523,1.28,,,1536,864,50.284,4.52,"130.65, 146.62, 153.67, 163.02, 140.83, 144.32, 164.48",778.79,8.777104849,39.67251392,27.83653633,Failed,132.9029216,,,,,,,,,,,,,,,,,,,,,training,8,2,0,left,a,,,,,869.4729,870.3873,35.84,4,1.600006104,1,0,0,0.9141,fixationPoint,870.3874,870.4871,870.4872,873.6587,35.84,10240,616.96,a,1,3.149,,873.6587,873.8542,,,,,,,,76,19,-127,21,68,175,209,28,21,-30,28,-160,70,-117,22,-163,-220,-19,-176,-75,-24,119,-76,209,-208,270,90,270,90,270,270,180,360,180,180,90,,,,,,,,,,,873.8543,873.8548,,0,113,113,113,1,11,novel,,,,,,,,,,,,,,,,,,,,,,,,,,,,,,,,,,,,,,,,,,,,,,,,,
,,26,4,${e://Field/PROLIFIC_PID,M,31,2023-11-04_03h43.33.991,MouseEye_CC,2023.2.2,Win32,61.10228523,1.28,,,1536,864,50.284,4.52,"130.65, 146.62, 153.67, 163.02, 140.83, 144.32, 164.48",778.79,8.777104849,39.67251392,27.83653633,Failed,132.9029216,,,,,,,,,,,,,,,,,,,,,training,8,3,0,left,a,,,,,873.8558,874.4365,35.84,-0.799987793,-7.200012207,1,0,0,0.5803,fixationPoint,874.4366,874.5367,874.5368,876.5709,35.84,10240,616.96,a,1,2.0048,,876.5711,876.77,,,,,,,,5,-20,212,28,21,120,66,77,23,-20,-123,-224,-218,-218,-30,20,-222,19,-127,80,-120,-115,218,-117,22,270,90,360,180,360,270,270,90,90,270,90,,,,,,,,,,,876.7701,876.7707,,0,114,114,114,1,4,repeated,,,,,,,,,,,,,,,,,,,,,,,,,,,,,,,,,,,,,,,,,,,,,,,,,
,,26,4,${e://Field/PROLIFIC_PID,M,31,2023-11-04_03h43.33.991,MouseEye_CC,2023.2.2,Win32,61.10228523,1.28,,,1536,864,50.284,4.52,"130.65, 146.62, 153.67, 163.02, 140.83, 144.32, 164.48",778.79,8.777104849,39.67251392,27.83653633,Failed,132.9029216,,,,,,,,,,,,,,,,,,,,,training,8,4,180,right,s,,,,,876.7719,877.5694,35.84,6.400024414,-10.3999939,1,0,0,0.797,fixationPoint,877.5696,877.6693,877.6693,878.9696,35.84,10240,616.96,s,1,1.2778,,878.9697,879.1745,,,,,,,,97,72,-221,169,125,175,209,26,171,-20,212,-216,125,-160,70,-176,-68,-170,-118,-169,-161,127,-127,80,-120,90,180,180,360,180,90,360,90,270,90,360,,,,,,,,,,,879.1746,879.1746,,0,115,115,115,1,7,repeated,,,,,,,,,,,,,,,,,,,,,,,,,,,,,,,,,,,,,,,,,,,,,,,,,
