InstrStartPage.started,InstrStartPage.stopped,participant,designid,prolificid,Gender,Age,date,expName,psychopyVersion,OS,frameRate,ratio_monitor2CRT,VirtualChinrest.started,VirtualChinrest.stopped,xRes,yRes,viewingdistance_cm,pixeldensity_px2mm,BallPos,squarePos,mm2degree,px2degree,CRT_px2degree,PassVirtualChinrest,foveaRadius_inPixel,InstrRedo.started,InstrRedo.stopped,VirtualChinrest_Redo.started,VirtualChinrest_Redo.stopped,Redo_virtualChinrest,Instruction1.started,Instruction1.stopped,keyPractice.started,keyPractice.stopped,key_keyprac.keys,key_keyprac.corr,key_keyprac.rt,key_keyprac.duration,keyPracFeedback.started,keyPracFeedback.stopped,keyPracLoop.thisRepN,keyPracLoop.thisTrialN,keyPracLoop.thisN,keyPracLoop.thisIndex,keyPracLoop.ran,phase,block,trial,targOrientdeg,targOrient,corrAnswer,Instruction2.started,Instruction2.stopped,Instruction3.started,Instruction3.stopped,fixation.started,fixation.stopped,fixationSize,mouseintial.x,mouseintial.y,mouseintial.leftButton,mouseintial.midButton,mouseintial.rightButton,mouseintial.time,mouseintial.clicked_name,greenFixation.started,greenFixation.stopped,trial.started,trial.stopped,letterSize,apertureSize,searchsize,key_respMain.keys,key_respMain.corr,key_respMain.rt,key_respMain.duration,trialFeedback.started,trialFeedback.stopped,trialsPractice.thisRepN,trialsPractice.thisTrialN,trialsPractice.thisN,trialsPractice.thisIndex,trialsPractice.ran,targetQuad,Tcondition,targcell,tlocx,tlocy,d1x,d1y,d2x,d2y,d3x,d3y,d4x,d4y,d5x,d5y,d6x,d6y,d7x,d7y,d8x,d8y,d9x,d9y,d10x,d10y,d11x,d11y,d1Orient,d2Orient,d3Orient,d4Orient,d5Orient,d6Orient,d7Orient,d8Orient,d9Orient,d10Orient,d11Orient,CheckInstr.started,CheckInstr.stopped,key_checkInstr.keys,key_checkInstr.corr,key_checkInstr.rt,key_checkInstr.duration,CheckInstr_FB.started,CheckInstr_FB.stopped,Instruction_MainExp.started,Instruction_MainExp.stopped,TakeABreak.started,TakeABreak.stopped,key_respBreak.keys,trials.thisRepN,trials.thisTrialN,trials.thisN,trials.thisIndex,trials.ran,configurationNumber,CCCondition,key_respBreak.rt,key_respBreak.duration,displayTestingPhase.started,displayTestingPhase.stopped,key_respTesting.keys,key_respTesting.corr,key_respTesting.rt,key_respTesting.duration,TakeABreak2.started,TakeABreak2.stopped,key_RespBreak.keys,Testingtrials.thisRepN,Testingtrials.thisTrialN,Testingtrials.thisN,Testingtrials.thisIndex,Testingtrials.ran,key_RespBreak.rt,key_RespBreak.duration,RecogQuestion.started,RecogQuestion.stopped,key_AnswerQues.keys,key_AnswerQues.rt,key_AnswerQues.duration,Disclose.started,Disclose.stopped,InstrRT.started,InstrRT.stopped,fixation_RT.started,fixation_RT.stopped,mouseInitial.x,mouseInitial.y,mouseInitial.leftButton,mouseInitial.midButton,mouseInitial.rightButton,mouseInitial.time,mouseInitial.clicked_name,displayRT.started,displayRT.stopped,key_respRT.keys,key_respRT.corr,key_respRT.rt,key_respRT.duration,RTtrials.thisRepN,RTtrials.thisTrialN,RTtrials.thisN,RTtrials.thisIndex,RTtrials.ran,EndOfExperiment.started,EndOfExperiment.stopped
0.0006,10.1808,27,9,${e://Field/PROLIFIC_PID,F,18,2023-11-09_24h53.30.510,MouseEye_CC,2023.2.2,Win32,143.6988073,1,,,,,,,,,,,,,,,,,,,,,,,,,,,,,,,,,,,,,,,,,,,,,,,,,,,,,,,,,,,,,,,,,,,,,,,,,,,,,,,,,,,,,,,,,,,,,,,,,,,,,,,,,,,,,,,,,,,,,,,,,,,,,,,,,,,,,,,,,,,,,,,,,,,,,,,,,,,,,,,,,,,,,,,,,,,,,,,,,,
,,27,9,${e://Field/PROLIFIC_PID,F,18,2023-11-09_24h53.30.510,MouseEye_CC,2023.2.2,Win32,143.6988073,1.342547796,10.181,142.2337,1536,864,47.368,4.52,"246.65, 240.09, 252.09, 282.29, 273.71, 274.34, 277.06",778.79,8.268115155,37.3718805,27.83653633,Passed,125.1957997,,,,,,,,,,,,,,,,,,,,,,,,,,,,,,,,,,,,,,,,,,,,,,,,,,,,,,,,,,,,,,,,,,,,,,,,,,,,,,,,,,,,,,,,,,,,,,,,,,,,,,,,,,,,,,,,,,,,,,,,,,,,,,,,,,,,,,,,,,,,,,,,,,,,,,,,,,,,,,,,,,,,,
,,27,9,${e://Field/PROLIFIC_PID,F,18,2023-11-09_24h53.30.510,MouseEye_CC,2023.2.2,Win32,143.6988073,1.342547796,,,1536,864,47.368,4.52,"246.65, 240.09, 252.09, 282.29, 273.71, 274.34, 277.06",778.79,8.268115155,37.3718805,27.83653633,Passed,125.1957997,142.234,142.2356,,,,,,,,,,,,,,,,,,,,,,,,,,,,,,,,,,,,,,,,,,,,,,,,,,,,,,,,,,,,,,,,,,,,,,,,,,,,,,,,,,,,,,,,,,,,,,,,,,,,,,,,,,,,,,,,,,,,,,,,,,,,,,,,,,,,,,,,,,,,,,,,,,,,,,,,,,,,,,,,,,,
,,27,9,${e://Field/PROLIFIC_PID,F,18,2023-11-09_24h53.30.510,MouseEye_CC,2023.2.2,Win32,143.6988073,1.28,,,1536,864,47.623000000000005,4.52,"246.65, 240.09, 252.09, 282.29, 273.71, 274.34, 277.06",778.79,8.312625571,37.57306758,27.83653633,Passed,125.8697764,,,142.2356,214.856,failed,,,,,,,,,,,,,,,,,,,,,,,,,,,,,,,,,,,,,,,,,,,,,,,,,,,,,,,,,,,,,,,,,,,,,,,,,,,,,,,,,,,,,,,,,,,,,,,,,,,,,,,,,,,,,,,,,,,,,,,,,,,,,,,,,,,,,,,,,,,,,,,,,,,,,,,,,,,,,,,,
,,27,9,${e://Field/PROLIFIC_PID,F,18,2023-11-09_24h53.30.510,MouseEye_CC,2023.2.2,Win32,143.6988073,1.28,,,1536,864,47.623000000000005,4.52,"246.65, 240.09, 252.09, 282.29, 273.71, 274.34, 277.06",778.79,8.312625571,37.57306758,27.83653633,Passed,125.8697764,,,,,,214.8562,241.3747,,,,,,,,,,,,,,,,,,,,,,,,,,,,,,,,,,,,,,,,,,,,,,,,,,,,,,,,,,,,,,,,,,,,,,,,,,,,,,,,,,,,,,,,,,,,,,,,,,,,,,,,,,,,,,,,,,,,,,,,,,,,,,,,,,,,,,,,,,,,,,,,,,,,,,,,,,,,,,
,,27,9,${e://Field/PROLIFIC_PID,F,18,2023-11-09_24h53.30.510,MouseEye_CC,2023.2.2,Win32,143.6988073,1.28,,,1536,864,47.623000000000005,4.52,"246.65, 240.09, 252.09, 282.29, 273.71, 274.34, 277.06",778.79,8.312625571,37.57306758,27.83653633,Passed,125.8697764,,,,,,,,241.3835,242.5391,a,1,0.6419,,242.5393,243.0351,0,0,0,0,1,practice,1,1,0,left,a,,,,,,,,,,,,,,,,,,,,,,,,,,,,,,,,,,,,,,,,,,,,,,,,,,,,,,,,,,,,,,,,,,,,,,,,,,,,,,,,,,,,,,,,,,,,,,,,,,,,,,,,,,,,,,,,,,,,,,,,,,,,,,,,,,,,,,,,,,,
,,27,9,${e://Field/PROLIFIC_PID,F,18,2023-11-09_24h53.30.510,MouseEye_CC,2023.2.2,Win32,143.6988073,1.28,,,1536,864,47.623000000000005,4.52,"246.65, 240.09, 252.09, 282.29, 273.71, 274.34, 277.06",778.79,8.312625571,37.57306758,27.83653633,Passed,125.8697764,,,,,,,,243.0354,244.1602,a,1,0.6119,,244.1603,244.6595,0,1,1,1,1,practice,1,2,0,left,a,,,,,,,,,,,,,,,,,,,,,,,,,,,,,,,,,,,,,,,,,,,,,,,,,,,,,,,,,,,,,,,,,,,,,,,,,,,,,,,,,,,,,,,,,,,,,,,,,,,,,,,,,,,,,,,,,,,,,,,,,,,,,,,,,,,,,,,,,,,
,,27,9,${e://Field/PROLIFIC_PID,F,18,2023-11-09_24h53.30.510,MouseEye_CC,2023.2.2,Win32,143.6988073,1.28,,,1536,864,47.623000000000005,4.52,"246.65, 240.09, 252.09, 282.29, 273.71, 274.34, 277.06",778.79,8.312625571,37.57306758,27.83653633,Passed,125.8697764,,,,,,,,244.6598,245.6617,a,1,0.4947,,245.6618,246.1617,0,2,2,2,1,practice,1,3,0,left,a,,,,,,,,,,,,,,,,,,,,,,,,,,,,,,,,,,,,,,,,,,,,,,,,,,,,,,,,,,,,,,,,,,,,,,,,,,,,,,,,,,,,,,,,,,,,,,,,,,,,,,,,,,,,,,,,,,,,,,,,,,,,,,,,,,,,,,,,,,,
,,27,9,${e://Field/PROLIFIC_PID,F,18,2023-11-09_24h53.30.510,MouseEye_CC,2023.2.2,Win32,143.6988073,1.28,,,1536,864,47.623000000000005,4.52,"246.65, 240.09, 252.09, 282.29, 273.71, 274.34, 277.06",778.79,8.312625571,37.57306758,27.83653633,Passed,125.8697764,,,,,,,,246.1622,247.231,s,1,0.5568,,247.231,247.7261,0,3,3,3,1,practice,1,4,180,right,s,,,,,,,,,,,,,,,,,,,,,,,,,,,,,,,,,,,,,,,,,,,,,,,,,,,,,,,,,,,,,,,,,,,,,,,,,,,,,,,,,,,,,,,,,,,,,,,,,,,,,,,,,,,,,,,,,,,,,,,,,,,,,,,,,,,,,,,,,,,
,,27,9,${e://Field/PROLIFIC_PID,F,18,2023-11-09_24h53.30.510,MouseEye_CC,2023.2.2,Win32,143.6988073,1.28,,,1536,864,47.623000000000005,4.52,"246.65, 240.09, 252.09, 282.29, 273.71, 274.34, 277.06",778.79,8.312625571,37.57306758,27.83653633,Passed,125.8697764,,,,,,,,247.7267,248.8,s,1,0.5632,,248.8001,249.3001,0,4,4,4,1,practice,1,5,180,right,s,,,,,,,,,,,,,,,,,,,,,,,,,,,,,,,,,,,,,,,,,,,,,,,,,,,,,,,,,,,,,,,,,,,,,,,,,,,,,,,,,,,,,,,,,,,,,,,,,,,,,,,,,,,,,,,,,,,,,,,,,,,,,,,,,,,,,,,,,,,
,,27,9,${e://Field/PROLIFIC_PID,F,18,2023-11-09_24h53.30.510,MouseEye_CC,2023.2.2,Win32,143.6988073,1.28,,,1536,864,47.623000000000005,4.52,"246.65, 240.09, 252.09, 282.29, 273.71, 274.34, 277.06",778.79,8.312625571,37.57306758,27.83653633,Passed,125.8697764,,,,,,,,249.3006,250.1957,a,1,0.3758,,250.1957,250.6907,0,5,5,5,1,practice,1,6,0,left,a,,,,,,,,,,,,,,,,,,,,,,,,,,,,,,,,,,,,,,,,,,,,,,,,,,,,,,,,,,,,,,,,,,,,,,,,,,,,,,,,,,,,,,,,,,,,,,,,,,,,,,,,,,,,,,,,,,,,,,,,,,,,,,,,,,,,,,,,,,,
,,27,9,${e://Field/PROLIFIC_PID,F,18,2023-11-09_24h53.30.510,MouseEye_CC,2023.2.2,Win32,143.6988073,1.28,,,1536,864,47.623000000000005,4.52,"246.65, 240.09, 252.09, 282.29, 273.71, 274.34, 277.06",778.79,8.312625571,37.57306758,27.83653633,Passed,125.8697764,,,,,,,,,,,,,,,,,,,,,,,,,,,250.6917,257.6119,,,,,,,,,,,,,,,,,,,,,,,,,,,,,,,,,,,,,,,,,,,,,,,,,,,,,,,,,,,,,,,,,,,,,,,,,,,,,,,,,,,,,,,,,,,,,,,,,,,,,,,,,,,,,,,,,,,,,,,,,,,,,,,,,,,,,,,,,
,,27,9,${e://Field/PROLIFIC_PID,F,18,2023-11-09_24h53.30.510,MouseEye_CC,2023.2.2,Win32,143.6988073,1.28,,,1536,864,47.623000000000005,4.52,"246.65, 240.09, 252.09, 282.29, 273.71, 274.34, 277.06",778.79,8.312625571,37.57306758,27.83653633,Passed,125.8697764,,,,,,,,,,,,,,,,,,,,,,,,,,,,,257.6121,269.6932,,,,,,,,,,,,,,,,,,,,,,,,,,,,,,,,,,,,,,,,,,,,,,,,,,,,,,,,,,,,,,,,,,,,,,,,,,,,,,,,,,,,,,,,,,,,,,,,,,,,,,,,,,,,,,,,,,,,,,,,,,,,,,,,,,,,,,,
,,27,9,${e://Field/PROLIFIC_PID,F,18,2023-11-09_24h53.30.510,MouseEye_CC,2023.2.2,Win32,143.6988073,1.28,,,1536,864,47.623000000000005,4.52,"246.65, 240.09, 252.09, 282.29, 273.71, 274.34, 277.06",778.79,8.312625571,37.57306758,27.83653633,Passed,125.8697764,,,,,,,,,,,,,,,,,,,,,practice,0,1,0,left,a,,,,,269.7081,271.3526,35.84,3.200012207,3.199981689,1,0,0,1.6442,fixationPoint,271.3527,271.4496,271.4497,275.6506,35.84,10240,616.96,a,1,4.1875,,275.6507,275.8518,0,0,0,0,1,4,sparse,90,217,-164,68,123,222,26,214,216,-218,159,-120,223,-110,82,-115,-130,-224,-120,-68,-219,79,-175,19,-128,90,270,360,90,270,270,180,90,90,90,270,,,,,,,,,,,,,,,,,,,,,,,,,,,,,,,,,,,,,,,,,,,,,,,,,,,,,,,,,,,,,,,,,,,,,
,,27,9,${e://Field/PROLIFIC_PID,F,18,2023-11-09_24h53.30.510,MouseEye_CC,2023.2.2,Win32,143.6988073,1.28,,,1536,864,47.623000000000005,4.52,"246.65, 240.09, 252.09, 282.29, 273.71, 274.34, 277.06",778.79,8.312625571,37.57306758,27.83653633,Passed,125.8697764,,,,,,,,,,,,,,,,,,,,,practice,0,2,0,left,a,,,,,275.8524,277.6433,35.84,4.799987793,0.799987793,1,0,0,1.7904,fixationPoint,277.6433,277.7403,277.7405,279.4465,35.84,10240,616.96,a,1,1.6945,,279.4465,279.6466,0,1,1,1,1,1,rich,39,169,66,-126,125,-169,169,-130,19,-169,-116,-125,-167,-224,-216,218,-129,171,-218,18,-208,166,26,17,170,180,90,360,270,90,90,90,270,180,180,270,,,,,,,,,,,,,,,,,,,,,,,,,,,,,,,,,,,,,,,,,,,,,,,,,,,,,,,,,,,,,,,,,,,,,
,,27,9,${e://Field/PROLIFIC_PID,F,18,2023-11-09_24h53.30.510,MouseEye_CC,2023.2.2,Win32,143.6988073,1.28,,,1536,864,47.623000000000005,4.52,"246.65, 240.09, 252.09, 282.29, 273.71, 274.34, 277.06",778.79,8.312625571,37.57306758,27.83653633,Passed,125.8697764,,,,,,,,,,,,,,,,,,,,,practice,0,3,0,left,a,,,,,279.6468,281.0662,35.84,-0.799987793,0.799987793,1,0,0,1.4193,fixationPoint,281.0662,281.1643,281.1644,287.327,35.84,10240,616.96,a,1,6.1521,,287.327,287.5236,0,2,2,2,1,2,sparse,22,-162,126,222,26,17,170,126,172,-25,-117,-175,-206,-224,-216,116,-19,130,-174,217,-164,-218,159,-21,162,90,90,180,360,360,270,360,360,360,360,180,,,,,,,,,,,,,,,,,,,,,,,,,,,,,,,,,,,,,,,,,,,,,,,,,,,,,,,,,,,,,,,,,,,,,
,,27,9,${e://Field/PROLIFIC_PID,F,18,2023-11-09_24h53.30.510,MouseEye_CC,2023.2.2,Win32,143.6988073,1.28,,,1536,864,47.623000000000005,4.52,"246.65, 240.09, 252.09, 282.29, 273.71, 274.34, 277.06",778.79,8.312625571,37.57306758,27.83653633,Passed,125.8697764,,,,,,,,,,,,,,,,,,,,,practice,0,4,180,right,s,,,,,287.5238,289.1415,35.84,4.799987793,3.199981689,1,0,0,1.6176,fixationPoint,289.1416,289.2395,289.2395,294.1271,35.84,10240,616.96,s,1,4.8814,,294.1272,294.3281,0,3,3,3,1,4,sparse,76,19,-128,159,121,214,216,219,165,-218,159,-162,126,-219,119,-169,-116,-111,-31,-175,-206,18,-208,81,-114,90,270,180,180,270,180,360,360,360,270,360,,,,,,,,,,,,,,,,,,,,,,,,,,,,,,,,,,,,,,,,,,,,,,,,,,,,,,,,,,,,,,,,,,,,,
,,27,9,${e://Field/PROLIFIC_PID,F,18,2023-11-09_24h53.30.510,MouseEye_CC,2023.2.2,Win32,143.6988073,1.28,,,1536,864,47.623000000000005,4.52,"246.65, 240.09, 252.09, 282.29, 273.71, 274.34, 277.06",778.79,8.312625571,37.57306758,27.83653633,Passed,125.8697764,,,,,,,,,,,,,,,,,,,,,practice,0,5,180,right,s,,,,,294.3283,295.4257,35.84,-4,-7.200012207,1,0,0,1.0972,fixationPoint,295.4258,295.5223,295.5224,297.904,35.84,10240,616.96,s,1,2.3743,,297.904,298.1053,0,4,4,4,1,3,sparse,85,-19,-173,219,165,68,123,214,216,-160,68,-64,120,-226,34,162,-21,224,-216,167,-163,-167,-74,-224,-216,360,360,360,90,180,270,90,360,270,270,360,,,,,,,,,,,,,,,,,,,,,,,,,,,,,,,,,,,,,,,,,,,,,,,,,,,,,,,,,,,,,,,,,,,,,
,,27,9,${e://Field/PROLIFIC_PID,F,18,2023-11-09_24h53.30.510,MouseEye_CC,2023.2.2,Win32,143.6988073,1.28,,,1536,864,47.623000000000005,4.52,"246.65, 240.09, 252.09, 282.29, 273.71, 274.34, 277.06",778.79,8.312625571,37.57306758,27.83653633,Passed,125.8697764,,,,,,,,,,,,,,,,,,,,,practice,0,6,180,right,s,,,,,298.1057,299.5292,35.84,-4,4.799987793,1,0,0,1.4234,fixationPoint,299.5292,299.6258,299.6259,306.7707,35.84,10240,616.96,a,0,7.1381,,306.7708,310.7722,0,5,5,5,1,3,sparse,95,-21,-224,126,172,219,165,166,26,-166,207,-223,206,-219,119,169,-75,18,-208,224,-216,-72,-121,-115,-130,180,180,360,180,360,180,270,180,90,180,360,,,,,,,,,,,,,,,,,,,,,,,,,,,,,,,,,,,,,,,,,,,,,,,,,,,,,,,,,,,,,,,,,,,,,
,,27,9,${e://Field/PROLIFIC_PID,F,18,2023-11-09_24h53.30.510,MouseEye_CC,2023.2.2,Win32,143.6988073,1.28,,,1536,864,47.623000000000005,4.52,"246.65, 240.09, 252.09, 282.29, 273.71, 274.34, 277.06",778.79,8.312625571,37.57306758,27.83653633,Passed,125.8697764,,,,,,,,,,,,,,,,,,,,,practice,0,7,0,left,a,,,,,310.7773,311.7632,35.84,-4,11.19998169,1,0,0,0.9857,fixationPoint,311.7634,311.8649,311.8649,315.3978,35.84,10240,616.96,a,1,3.5255,,315.3979,315.5958,0,6,6,6,1,1,rich,7,62,223,-166,207,-226,34,-162,126,-169,-116,-168,-160,-161,-27,15,-162,162,-21,79,-175,219,165,219,129,180,180,360,180,270,360,180,360,270,180,360,,,,,,,,,,,,,,,,,,,,,,,,,,,,,,,,,,,,,,,,,,,,,,,,,,,,,,,,,,,,,,,,,,,,,
,,27,9,${e://Field/PROLIFIC_PID,F,18,2023-11-09_24h53.30.510,MouseEye_CC,2023.2.2,Win32,143.6988073,1.28,,,1536,864,47.623000000000005,4.52,"246.65, 240.09, 252.09, 282.29, 273.71, 274.34, 277.06",778.79,8.312625571,37.57306758,27.83653633,Passed,125.8697764,,,,,,,,,,,,,,,,,,,,,practice,0,8,180,right,s,,,,,315.5961,316.747,35.84,5.600036621,3.199981689,1,0,0,1.1509,fixationPoint,316.747,316.8504,316.8505,321.8567,35.84,10240,616.96,s,1,4.9997,,321.8568,322.0532,0,7,7,7,1,2,sparse,24,-64,120,18,215,126,172,33,121,-206,-170,-64,-162,-218,-78,130,-174,211,-74,168,-130,-164,32,-21,162,90,180,270,360,180,90,180,180,180,360,270,,,,,,,,,,,,,,,,,,,,,,,,,,,,,,,,,,,,,,,,,,,,,,,,,,,,,,,,,,,,,,,,,,,,,
,,27,9,${e://Field/PROLIFIC_PID,F,18,2023-11-09_24h53.30.510,MouseEye_CC,2023.2.2,Win32,143.6988073,1.28,,,1536,864,47.623000000000005,4.52,"246.65, 240.09, 252.09, 282.29, 273.71, 274.34, 277.06",778.79,8.312625571,37.57306758,27.83653633,Passed,125.8697764,,,,,,,,,,,,,,,,,,,,,practice,0,9,180,right,s,,,,,322.0535,322.6712,35.84,5.600036621,3.199981689,1,0,0,0.6176,fixationPoint,322.6713,322.7683,322.7684,326.0874,35.84,10240,616.96,s,1,3.3113,,326.0875,326.2888,0,8,8,8,1,3,sparse,85,-19,-173,127,30,62,223,217,67,-110,82,-21,162,-80,218,167,-163,126,-79,130,-174,-125,-167,-68,-219,360,360,360,180,360,360,180,270,90,360,180,,,,,,,,,,,,,,,,,,,,,,,,,,,,,,,,,,,,,,,,,,,,,,,,,,,,,,,,,,,,,,,,,,,,,
,,27,9,${e://Field/PROLIFIC_PID,F,18,2023-11-09_24h53.30.510,MouseEye_CC,2023.2.2,Win32,143.6988073,1.28,,,1536,864,47.623000000000005,4.52,"246.65, 240.09, 252.09, 282.29, 273.71, 274.34, 277.06",778.79,8.312625571,37.57306758,27.83653633,Passed,125.8697764,,,,,,,,,,,,,,,,,,,,,practice,0,10,180,right,s,,,,,326.2894,326.7867,35.84,5.600036621,3.199981689,1,0,0,0.4972,fixationPoint,326.7867,326.8828,326.8828,331.5263,35.84,10240,616.96,s,1,4.6356,,331.5264,331.7231,0,9,9,9,1,1,rich,9,160,209,-166,207,-226,34,-120,223,-224,-120,-118,-217,-218,-78,112,-209,126,-113,169,-75,178,160,110,129,180,90,90,270,360,270,360,180,360,180,360,,,,,,,,,,,,,,,,,,,,,,,,,,,,,,,,,,,,,,,,,,,,,,,,,,,,,,,,,,,,,,,,,,,,,
,,27,9,${e://Field/PROLIFIC_PID,F,18,2023-11-09_24h53.30.510,MouseEye_CC,2023.2.2,Win32,143.6988073,1.28,,,1536,864,47.623000000000005,4.52,"246.65, 240.09, 252.09, 282.29, 273.71, 274.34, 277.06",778.79,8.312625571,37.57306758,27.83653633,Passed,125.8697764,,,,,,,,,,,,,,,,,,,,,practice,0,11,180,right,s,,,,,331.7236,332.1908,35.84,5.600036621,3.199981689,1,0,0,0.467,fixationPoint,332.1909,332.2878,332.2879,335.4873,35.84,10240,616.96,s,1,3.1878,,335.4873,335.6831,0,10,10,10,1,4,sparse,80,218,-129,62,223,159,121,110,129,-218,159,-223,206,-75,173,-169,-116,-118,-217,-125,-167,217,-164,169,-75,360,270,360,180,360,180,180,270,360,180,90,,,,,,,,,,,,,,,,,,,,,,,,,,,,,,,,,,,,,,,,,,,,,,,,,,,,,,,,,,,,,,,,,,,,,
,,27,9,${e://Field/PROLIFIC_PID,F,18,2023-11-09_24h53.30.510,MouseEye_CC,2023.2.2,Win32,143.6988073,1.28,,,1536,864,47.623000000000005,4.52,"246.65, 240.09, 252.09, 282.29, 273.71, 274.34, 277.06",778.79,8.312625571,37.57306758,27.83653633,Passed,125.8697764,,,,,,,,,,,,,,,,,,,,,practice,0,12,0,left,a,,,,,335.6834,336.1345,35.84,5.600036621,3.199981689,1,0,0,0.451,fixationPoint,336.1345,336.2317,336.2317,339.8701,35.84,10240,616.96,a,1,3.6325,,339.8701,340.0714,0,11,11,11,1,3,sparse,75,-25,-117,110,129,125,63,214,216,-164,32,-27,117,-126,125,171,-218,126,-113,167,-163,-21,-224,-212,-21,270,180,180,360,180,270,360,270,360,180,270,,,,,,,,,,,,,,,,,,,,,,,,,,,,,,,,,,,,,,,,,,,,,,,,,,,,,,,,,,,,,,,,,,,,,
,,27,9,${e://Field/PROLIFIC_PID,F,18,2023-11-09_24h53.30.510,MouseEye_CC,2023.2.2,Win32,143.6988073,1.28,,,1536,864,47.623000000000005,4.52,"246.65, 240.09, 252.09, 282.29, 273.71, 274.34, 277.06",778.79,8.312625571,37.57306758,27.83653633,Passed,125.8697764,,,,,,,,,,,,,,,,,,,,,,,,,,,,,,,,,,,,,,,,,,,,,,,,,,,,,,,,,,,,,,,,,,,,,,,,,,,,,,,,,,,,,,,,,,,,,,,,,340.0719,344.8951,a,1,4.8151,,,,,,,,,,,,,,,,,,,,,,,,,,,,,,,,,,,,,,,,,,,,,,,,,,,,,,,,,,,,,,,,
,,27,9,${e://Field/PROLIFIC_PID,F,18,2023-11-09_24h53.30.510,MouseEye_CC,2023.2.2,Win32,143.6988073,1.28,,,1536,864,47.623000000000005,4.52,"246.65, 240.09, 252.09, 282.29, 273.71, 274.34, 277.06",778.79,8.312625571,37.57306758,27.83653633,Passed,125.8697764,,,,,,,,,,,,,,,,,,,,,,,,,,,,,,,,,,,,,,,,,,,,,,,,,,,,,,,,,,,,,,,,,,,,,,,,,,,,,,,,,,,,,,,,,,,,,,,,,,,,,,,344.8952,347.1448,,,,,,,,,,,,,,,,,,,,,,,,,,,,,,,,,,,,,,,,,,,,,,,,,,,,,,,,,,,,,
,,27,9,${e://Field/PROLIFIC_PID,F,18,2023-11-09_24h53.30.510,MouseEye_CC,2023.2.2,Win32,143.6988073,1.28,,,1536,864,47.623000000000005,4.52,"246.65, 240.09, 252.09, 282.29, 273.71, 274.34, 277.06",778.79,8.312625571,37.57306758,27.83653633,Passed,125.8697764,,,,,,,,,,,,,,,,,,,,,,,,,,,,,,,,,,,,,,,,,,,,,,,,,,,,,,,,,,,,,,,,,,,,,,,,,,,,,,,,,,,,,,,,,,,,,,,,,,,,,,,,,347.1449,361.8165,,,,,,,,,,,,,,,,,,,,,,,,,,,,,,,,,,,,,,,,,,,,,,,,,,,,,,,,,,,
,,27,9,${e://Field/PROLIFIC_PID,F,18,2023-11-09_24h53.30.510,MouseEye_CC,2023.2.2,Win32,143.6988073,1.28,,,1536,864,47.623000000000005,4.52,"246.65, 240.09, 252.09, 282.29, 273.71, 274.34, 277.06",778.79,8.312625571,37.57306758,27.83653633,Passed,125.8697764,,,,,,,,,,,,,,,,,,,,,training,1,1,0,left,a,,,,,361.8676,362.9525,35.84,1.600036621,-1.600006104,1,0,0,1.0848,fixationPoint,362.9526,363.0542,363.0542,365.4269,35.84,10240,616.96,a,1,2.3608,,365.4269,365.6277,,,,,,,,6,17,210,-218,124,-18,73,-24,224,-116,-24,-176,-224,-17,-64,167,-25,67,-128,217,-32,118,66,71,24,90,90,180,270,180,270,360,90,90,270,180,,,,,,,,,,,365.628,365.6294,,0,0,0,0,1,14,novel,,,,,,,,,,,,,,,,,,,,,,,,,,,,,,,,,,,,,,,,,,,,,,,,,
,,27,9,${e://Field/PROLIFIC_PID,F,18,2023-11-09_24h53.30.510,MouseEye_CC,2023.2.2,Win32,143.6988073,1.28,,,1536,864,47.623000000000005,4.52,"246.65, 240.09, 252.09, 282.29, 273.71, 274.34, 277.06",778.79,8.312625571,37.57306758,27.83653633,Passed,125.8697764,,,,,,,,,,,,,,,,,,,,,training,1,2,0,left,a,,,,,365.6296,366.1094,35.84,1.600036621,-1.600006104,1,0,0,0.4796,fixationPoint,366.1095,366.2087,366.2088,370.2595,35.84,10240,616.96,a,1,4.0415,,370.2595,370.4558,,,,,,,,50,224,31,-28,120,-68,19,-169,222,-21,-118,-224,-220,-176,-224,21,-169,22,-26,167,-25,118,66,162,219,270,270,90,270,270,180,270,360,270,270,90,,,,,,,,,,,370.4558,370.456,,0,1,1,1,1,13,novel,,,,,,,,,,,,,,,,,,,,,,,,,,,,,,,,,,,,,,,,,,,,,,,,,
,,27,9,${e://Field/PROLIFIC_PID,F,18,2023-11-09_24h53.30.510,MouseEye_CC,2023.2.2,Win32,143.6988073,1.28,,,1536,864,47.623000000000005,4.52,"246.65, 240.09, 252.09, 282.29, 273.71, 274.34, 277.06",778.79,8.312625571,37.57306758,27.83653633,Passed,125.8697764,,,,,,,,,,,,,,,,,,,,,training,1,3,180,right,s,,,,,370.4562,370.8654,35.84,1.600036621,-1.600006104,1,0,0,0.4092,fixationPoint,370.8655,370.9626,370.9627,374.3233,35.84,10240,616.96,s,1,3.3546,,374.3233,374.5246,,,,,,,,60,217,-32,122,124,220,72,127,173,-174,19,-218,124,-25,172,-160,-69,-176,-224,-211,-115,117,-172,165,-68,360,180,90,360,270,180,90,90,270,180,90,,,,,,,,,,,374.5248,374.525,,0,2,2,2,1,7,repeated,,,,,,,,,,,,,,,,,,,,,,,,,,,,,,,,,,,,,,,,,,,,,,,,,
,,27,9,${e://Field/PROLIFIC_PID,F,18,2023-11-09_24h53.30.510,MouseEye_CC,2023.2.2,Win32,143.6988073,1.28,,,1536,864,47.623000000000005,4.52,"246.65, 240.09, 252.09, 282.29, 273.71, 274.34, 277.06",778.79,8.312625571,37.57306758,27.83653633,Passed,125.8697764,,,,,,,,,,,,,,,,,,,,,training,1,4,180,right,s,,,,,374.5257,374.9204,35.84,1.600036621,-1.600006104,1,0,0,0.3946,fixationPoint,374.9205,375.0176,375.0177,376.9804,35.84,10240,616.96,s,1,1.9512,,376.9804,377.1786,,,,,,,,48,116,31,-66,176,-68,19,-77,71,-69,-122,-76,-17,-21,-118,160,-168,22,-26,121,-128,168,22,222,117,90,180,180,180,270,90,360,90,90,180,90,,,,,,,,,,,377.1786,377.1789,,0,3,3,3,1,1,repeated,,,,,,,,,,,,,,,,,,,,,,,,,,,,,,,,,,,,,,,,,,,,,,,,,
,,27,9,${e://Field/PROLIFIC_PID,F,18,2023-11-09_24h53.30.510,MouseEye_CC,2023.2.2,Win32,143.6988073,1.28,,,1536,864,47.623000000000005,4.52,"246.65, 240.09, 252.09, 282.29, 273.71, 274.34, 277.06",778.79,8.312625571,37.57306758,27.83653633,Passed,125.8697764,,,,,,,,,,,,,,,,,,,,,training,1,5,0,left,a,,,,,377.1796,377.7377,35.84,1.600036621,-1.600006104,1,0,0,0.558,fixationPoint,377.7378,377.8415,377.8415,381.3224,35.84,10240,616.96,a,1,3.4722,,381.3226,381.5236,,,,,,,,95,-26,-222,69,168,26,161,66,213,-25,172,-174,19,-163,77,121,-128,123,-79,117,-172,-68,-165,-160,-69,270,180,360,360,90,360,270,360,90,360,90,,,,,,,,,,,381.5237,381.524,,0,4,4,4,1,6,repeated,,,,,,,,,,,,,,,,,,,,,,,,,,,,,,,,,,,,,,,,,,,,,,,,,
,,27,9,${e://Field/PROLIFIC_PID,F,18,2023-11-09_24h53.30.510,MouseEye_CC,2023.2.2,Win32,143.6988073,1.28,,,1536,864,47.623000000000005,4.52,"246.65, 240.09, 252.09, 282.29, 273.71, 274.34, 277.06",778.79,8.312625571,37.57306758,27.83653633,Passed,125.8697764,,,,,,,,,,,,,,,,,,,,,training,1,6,180,right,s,,,,,381.5246,381.9012,35.84,1.600036621,-1.600006104,1,0,0,0.3764,fixationPoint,381.9013,382.0006,382.0006,387.5348,35.84,10240,616.96,s,1,5.5272,,387.5349,387.731,,,,,,,,41,-216,24,28,72,26,161,168,65,-166,-20,-76,-17,-220,-72,68,-68,160,-168,113,-21,-30,26,-169,222,270,180,180,180,270,270,270,90,180,270,360,,,,,,,,,,,387.7311,387.7312,,0,5,5,5,1,15,novel,,,,,,,,,,,,,,,,,,,,,,,,,,,,,,,,,,,,,,,,,,,,,,,,,
,,27,9,${e://Field/PROLIFIC_PID,F,18,2023-11-09_24h53.30.510,MouseEye_CC,2023.2.2,Win32,143.6988073,1.28,,,1536,864,47.623000000000005,4.52,"246.65, 240.09, 252.09, 282.29, 273.71, 274.34, 277.06",778.79,8.312625571,37.57306758,27.83653633,Passed,125.8697764,,,,,,,,,,,,,,,,,,,,,training,1,7,180,right,s,,,,,387.7314,388.1409,35.84,1.600036621,-1.600006104,1,0,0,0.4094,fixationPoint,388.141,388.2379,388.238,391.3277,35.84,10240,616.96,s,1,3.0823,,391.3277,391.5336,,,,,,,,98,112,-215,116,31,69,168,112,220,-71,215,-24,224,-120,66,-67,-77,-160,-69,-220,-166,221,-162,162,-123,180,270,90,90,90,270,270,360,180,90,360,,,,,,,,,,,391.5337,391.5337,,0,6,6,6,1,12,novel,,,,,,,,,,,,,,,,,,,,,,,,,,,,,,,,,,,,,,,,,,,,,,,,,
,,27,9,${e://Field/PROLIFIC_PID,F,18,2023-11-09_24h53.30.510,MouseEye_CC,2023.2.2,Win32,143.6988073,1.28,,,1536,864,47.623000000000005,4.52,"246.65, 240.09, 252.09, 282.29, 273.71, 274.34, 277.06",778.79,8.312625571,37.57306758,27.83653633,Passed,125.8697764,,,,,,,,,,,,,,,,,,,,,training,1,8,0,left,a,,,,,391.534,391.8634,35.84,1.600036621,-1.600006104,1,0,0,0.3293,fixationPoint,391.8636,391.9644,391.9644,393.5546,35.84,10240,616.96,a,1,1.5833,,393.5547,393.7513,,,,,,,,76,25,-124,26,22,17,210,222,117,-161,112,-163,77,-218,124,-120,-120,-211,-115,-212,-20,67,-221,79,-28,270,360,180,270,360,180,360,90,360,360,90,,,,,,,,,,,393.7515,393.7518,,0,7,7,7,1,8,repeated,,,,,,,,,,,,,,,,,,,,,,,,,,,,,,,,,,,,,,,,,,,,,,,,,
,,27,9,${e://Field/PROLIFIC_PID,F,18,2023-11-09_24h53.30.510,MouseEye_CC,2023.2.2,Win32,143.6988073,1.28,,,1536,864,47.623000000000005,4.52,"246.65, 240.09, 252.09, 282.29, 273.71, 274.34, 277.06",778.79,8.312625571,37.57306758,27.83653633,Passed,125.8697764,,,,,,,,,,,,,,,,,,,,,training,1,9,0,left,a,,,,,393.7522,394.1132,35.84,1.600036621,-1.600006104,1,0,0,0.361,fixationPoint,394.1134,394.2113,394.2113,395.9846,35.84,10240,616.96,a,1,1.7635,,395.9846,396.1813,,,,,,,,25,-28,120,71,24,26,161,168,22,-68,-165,-172,-175,-21,-118,68,-68,22,-26,21,-169,-174,19,-120,66,90,270,180,270,90,360,270,180,360,180,270,,,,,,,,,,,396.1814,396.1817,,0,8,8,8,1,16,novel,,,,,,,,,,,,,,,,,,,,,,,,,,,,,,,,,,,,,,,,,,,,,,,,,
,,27,9,${e://Field/PROLIFIC_PID,F,18,2023-11-09_24h53.30.510,MouseEye_CC,2023.2.2,Win32,143.6988073,1.28,,,1536,864,47.623000000000005,4.52,"246.65, 240.09, 252.09, 282.29, 273.71, 274.34, 277.06",778.79,8.312625571,37.57306758,27.83653633,Passed,125.8697764,,,,,,,,,,,,,,,,,,,,,training,1,10,180,right,s,,,,,396.1821,396.5286,35.84,1.600036621,-1.600006104,1,0,0,0.3463,fixationPoint,396.5287,396.6257,396.6258,401.1579,35.84,10240,616.96,s,1,4.5208,,401.158,401.3541,,,,,,,,58,113,-21,122,124,118,66,168,22,-30,26,-28,120,-120,213,-17,-64,-121,-162,-120,-120,160,-220,21,-169,270,180,90,180,90,90,360,90,270,270,90,,,,,,,,,,,401.3541,401.3541,,0,9,9,9,1,11,novel,,,,,,,,,,,,,,,,,,,,,,,,,,,,,,,,,,,,,,,,,,,,,,,,,
,,27,9,${e://Field/PROLIFIC_PID,F,18,2023-11-09_24h53.30.510,MouseEye_CC,2023.2.2,Win32,143.6988073,1.28,,,1536,864,47.623000000000005,4.52,"246.65, 240.09, 252.09, 282.29, 273.71, 274.34, 277.06",778.79,8.312625571,37.57306758,27.83653633,Passed,125.8697764,,,,,,,,,,,,,,,,,,,,,training,1,11,180,right,s,,,,,401.3544,401.722,35.84,1.600036621,-1.600006104,1,0,0,0.3676,fixationPoint,401.7221,401.8193,401.8193,404.6105,35.84,10240,616.96,s,1,2.7851,,404.6106,404.8119,,,,,,,,43,-112,20,28,72,224,31,26,161,-224,-220,-18,-172,-116,-24,25,-124,22,-26,113,-21,-172,170,-25,172,180,270,270,90,90,270,360,180,180,360,180,,,,,,,,,,,404.8119,404.8122,,0,10,10,10,1,3,repeated,,,,,,,,,,,,,,,,,,,,,,,,,,,,,,,,,,,,,,,,,,,,,,,,,
,,27,9,${e://Field/PROLIFIC_PID,F,18,2023-11-09_24h53.30.510,MouseEye_CC,2023.2.2,Win32,143.6988073,1.28,,,1536,864,47.623000000000005,4.52,"246.65, 240.09, 252.09, 282.29, 273.71, 274.34, 277.06",778.79,8.312625571,37.57306758,27.83653633,Passed,125.8697764,,,,,,,,,,,,,,,,,,,,,training,1,12,180,right,s,,,,,404.8126,405.2127,35.84,1.600036621,-1.600006104,1,0,0,0.4,fixationPoint,405.2128,405.3092,405.3092,409.0941,35.84,10240,616.96,s,1,3.7778,,409.0941,409.2903,,,,,,,,61,-220,-72,162,219,224,210,67,77,-216,223,-169,222,-218,124,28,-68,113,-21,209,-115,-172,-175,-116,-224,180,360,270,90,180,180,360,180,90,180,360,,,,,,,,,,,409.2904,409.2906,,0,11,11,11,1,10,novel,,,,,,,,,,,,,,,,,,,,,,,,,,,,,,,,,,,,,,,,,,,,,,,,,
,,27,9,${e://Field/PROLIFIC_PID,F,18,2023-11-09_24h53.30.510,MouseEye_CC,2023.2.2,Win32,143.6988073,1.28,,,1536,864,47.623000000000005,4.52,"246.65, 240.09, 252.09, 282.29, 273.71, 274.34, 277.06",778.79,8.312625571,37.57306758,27.83653633,Passed,125.8697764,,,,,,,,,,,,,,,,,,,,,training,1,13,180,right,s,,,,,409.2908,409.5751,35.84,1.600036621,-1.600006104,1,0,0,0.2842,fixationPoint,409.5751,409.6722,409.6723,412.651,35.84,10240,616.96,s,1,2.9717,,412.6511,412.8523,,,,,,,,40,220,72,-25,172,-112,20,-120,213,-76,-17,-21,-118,-26,-222,121,-128,221,-162,219,-212,222,169,20,127,270,90,90,360,90,360,270,360,90,90,180,,,,,,,,,,,412.8524,412.8526,,0,12,12,12,1,2,repeated,,,,,,,,,,,,,,,,,,,,,,,,,,,,,,,,,,,,,,,,,,,,,,,,,
,,27,9,${e://Field/PROLIFIC_PID,F,18,2023-11-09_24h53.30.510,MouseEye_CC,2023.2.2,Win32,143.6988073,1.28,,,1536,864,47.623000000000005,4.52,"246.65, 240.09, 252.09, 282.29, 273.71, 274.34, 277.06",778.79,8.312625571,37.57306758,27.83653633,Passed,125.8697764,,,,,,,,,,,,,,,,,,,,,training,1,14,0,left,a,,,,,412.8532,413.1788,35.84,1.600036621,-1.600006104,1,0,0,0.3253,fixationPoint,413.1788,413.2773,413.2774,415.7946,35.84,10240,616.96,a,1,2.5071,,415.7947,415.9955,,,,,,,,53,-116,-24,69,168,17,210,67,77,-169,222,-28,120,-120,115,113,-21,221,-74,67,-128,-116,-80,-120,-120,90,90,360,180,180,270,270,90,360,360,360,,,,,,,,,,,415.9955,415.9956,,0,13,13,13,1,9,novel,,,,,,,,,,,,,,,,,,,,,,,,,,,,,,,,,,,,,,,,,,,,,,,,,
,,27,9,${e://Field/PROLIFIC_PID,F,18,2023-11-09_24h53.30.510,MouseEye_CC,2023.2.2,Win32,143.6988073,1.28,,,1536,864,47.623000000000005,4.52,"246.65, 240.09, 252.09, 282.29, 273.71, 274.34, 277.06",778.79,8.312625571,37.57306758,27.83653633,Passed,125.8697764,,,,,,,,,,,,,,,,,,,,,training,1,15,0,left,a,,,,,415.9959,416.375,35.84,1.600036621,-1.600006104,1,0,0,0.379,fixationPoint,416.3751,416.4767,416.4768,419.4606,35.84,10240,616.96,a,1,2.972,,419.4606,419.657,,,,,,,,51,-212,-20,26,22,222,169,122,124,-71,215,-216,223,-163,77,67,-221,167,-25,165,-68,-172,-175,-116,-80,270,360,90,270,360,270,180,360,180,270,360,,,,,,,,,,,419.657,419.6572,,0,14,14,14,1,5,repeated,,,,,,,,,,,,,,,,,,,,,,,,,,,,,,,,,,,,,,,,,,,,,,,,,
,,27,9,${e://Field/PROLIFIC_PID,F,18,2023-11-09_24h53.30.510,MouseEye_CC,2023.2.2,Win32,143.6988073,1.28,,,1536,864,47.623000000000005,4.52,"246.65, 240.09, 252.09, 282.29, 273.71, 274.34, 277.06",778.79,8.312625571,37.57306758,27.83653633,Passed,125.8697764,,,,,,,,,,,,,,,,,,,,,training,1,16,0,left,a,,,,,419.6574,419.9811,35.84,1.600036621,-1.600006104,1,0,0,0.3234,fixationPoint,419.9812,420.0806,420.0809,420.9672,35.84,10240,616.96,a,1,0.8755,,420.9673,421.1638,,,,,,,,3,-120,213,220,72,122,124,66,213,-120,-120,-116,-224,-21,-118,219,-212,217,-32,79,-28,-30,26,-216,24,360,360,360,270,90,360,180,360,180,90,90,,,,,,,,,,,421.1649,429.313,space,0,15,15,15,1,4,repeated,8.1367,,,,,,,,,,,,,,,,,,,,,,,,,,,,,,,,,,,,,,,,,,,,,,,,
,,27,9,${e://Field/PROLIFIC_PID,F,18,2023-11-09_24h53.30.510,MouseEye_CC,2023.2.2,Win32,143.6988073,1.28,,,1536,864,47.623000000000005,4.52,"246.65, 240.09, 252.09, 282.29, 273.71, 274.34, 277.06",778.79,8.312625571,37.57306758,27.83653633,Passed,125.8697764,,,,,,,,,,,,,,,,,,,,,training,2,1,180,right,s,,,,,429.3184,430.7872,35.84,1.600036621,-1.600006104,1,0,0,1.4687,fixationPoint,430.7873,430.8844,430.8844,433.8493,35.84,10240,616.96,a,0,2.9561,,433.8494,437.849,,,,,,,,53,-116,-24,161,116,220,72,127,173,-28,120,-68,19,-169,222,25,-124,162,-123,160,-220,-76,-17,-224,-220,90,270,180,180,90,360,180,90,180,270,360,,,,,,,,,,,437.8491,437.8548,,0,16,16,16,1,9,novel,,,,,,,,,,,,,,,,,,,,,,,,,,,,,,,,,,,,,,,,,,,,,,,,,
,,27,9,${e://Field/PROLIFIC_PID,F,18,2023-11-09_24h53.30.510,MouseEye_CC,2023.2.2,Win32,143.6988073,1.28,,,1536,864,47.623000000000005,4.52,"246.65, 240.09, 252.09, 282.29, 273.71, 274.34, 277.06",778.79,8.312625571,37.57306758,27.83653633,Passed,125.8697764,,,,,,,,,,,,,,,,,,,,,training,2,2,0,left,a,,,,,437.8549,438.3348,35.84,1.600036621,-1.600006104,1,0,0,0.4797,fixationPoint,438.3349,438.4319,438.432,440.14,35.84,10240,616.96,a,1,1.6949,,440.1401,440.3389,,,,,,,,43,-112,20,28,72,224,31,26,161,-224,-220,-18,-172,-116,-24,25,-124,22,-26,113,-21,-172,170,-25,172,90,180,180,180,270,270,90,90,270,270,90,,,,,,,,,,,440.339,440.3391,,0,17,17,17,1,3,repeated,,,,,,,,,,,,,,,,,,,,,,,,,,,,,,,,,,,,,,,,,,,,,,,,,
,,27,9,${e://Field/PROLIFIC_PID,F,18,2023-11-09_24h53.30.510,MouseEye_CC,2023.2.2,Win32,143.6988073,1.28,,,1536,864,47.623000000000005,4.52,"246.65, 240.09, 252.09, 282.29, 273.71, 274.34, 277.06",778.79,8.312625571,37.57306758,27.83653633,Passed,125.8697764,,,,,,,,,,,,,,,,,,,,,training,2,3,0,left,a,,,,,440.3393,440.6886,35.84,1.600036621,-1.600006104,1,0,0,0.3492,fixationPoint,440.6886,440.7857,440.7857,444.9363,35.84,10240,616.96,a,1,4.1387,,444.9363,445.1324,,,,,,,,50,224,31,-112,20,-25,172,-24,224,-21,-118,-116,-24,-121,-162,67,-128,64,-167,217,-32,127,173,116,31,90,90,270,90,180,270,270,270,360,180,270,,,,,,,,,,,445.1324,445.1324,,0,18,18,18,1,13,novel,,,,,,,,,,,,,,,,,,,,,,,,,,,,,,,,,,,,,,,,,,,,,,,,,
,,27,9,${e://Field/PROLIFIC_PID,F,18,2023-11-09_24h53.30.510,MouseEye_CC,2023.2.2,Win32,143.6988073,1.28,,,1536,864,47.623000000000005,4.52,"246.65, 240.09, 252.09, 282.29, 273.71, 274.34, 277.06",778.79,8.312625571,37.57306758,27.83653633,Passed,125.8697764,,,,,,,,,,,,,,,,,,,,,training,2,4,180,right,s,,,,,445.1326,445.4658,35.84,1.600036621,-1.600006104,1,0,0,0.3332,fixationPoint,445.4659,445.5628,445.5628,452.2077,35.84,10240,616.96,s,1,6.6367,,452.2077,452.4069,,,,,,,,95,-26,-222,69,168,26,161,66,213,-25,172,-174,19,-163,77,121,-128,123,-79,117,-172,-68,-165,-160,-69,270,90,360,270,180,90,90,90,180,90,270,,,,,,,,,,,452.4069,452.407,,0,19,19,19,1,6,repeated,,,,,,,,,,,,,,,,,,,,,,,,,,,,,,,,,,,,,,,,,,,,,,,,,
,,27,9,${e://Field/PROLIFIC_PID,F,18,2023-11-09_24h53.30.510,MouseEye_CC,2023.2.2,Win32,143.6988073,1.28,,,1536,864,47.623000000000005,4.52,"246.65, 240.09, 252.09, 282.29, 273.71, 274.34, 277.06",778.79,8.312625571,37.57306758,27.83653633,Passed,125.8697764,,,,,,,,,,,,,,,,,,,,,training,2,5,0,left,a,,,,,452.4072,453.1428,35.84,1.600036621,-1.600006104,1,0,0,0.7355,fixationPoint,453.1428,453.2422,453.2423,459.9618,35.84,10240,616.96,a,1,6.7079,,459.9619,460.1579,,,,,,,,60,217,-32,122,124,220,72,127,173,-174,19,-218,124,-25,172,-160,-69,-176,-224,-211,-115,117,-172,165,-68,360,360,270,90,360,90,270,270,90,90,360,,,,,,,,,,,460.158,460.1581,,0,20,20,20,1,7,repeated,,,,,,,,,,,,,,,,,,,,,,,,,,,,,,,,,,,,,,,,,,,,,,,,,
,,27,9,${e://Field/PROLIFIC_PID,F,18,2023-11-09_24h53.30.510,MouseEye_CC,2023.2.2,Win32,143.6988073,1.28,,,1536,864,47.623000000000005,4.52,"246.65, 240.09, 252.09, 282.29, 273.71, 274.34, 277.06",778.79,8.312625571,37.57306758,27.83653633,Passed,125.8697764,,,,,,,,,,,,,,,,,,,,,training,2,6,180,right,s,,,,,460.1583,460.7898,35.84,1.600036621,-1.600006104,1,0,0,0.6314,fixationPoint,460.7898,460.887,460.887,462.5464,35.84,10240,616.96,s,1,1.6511,,462.5465,462.748,,,,,,,,76,25,-124,26,22,17,210,222,117,-161,112,-163,77,-218,124,-120,-120,-211,-115,-212,-20,67,-221,79,-28,90,90,270,90,180,90,90,180,270,360,90,,,,,,,,,,,462.748,462.7481,,0,21,21,21,1,8,repeated,,,,,,,,,,,,,,,,,,,,,,,,,,,,,,,,,,,,,,,,,,,,,,,,,
,,27,9,${e://Field/PROLIFIC_PID,F,18,2023-11-09_24h53.30.510,MouseEye_CC,2023.2.2,Win32,143.6988073,1.28,,,1536,864,47.623000000000005,4.52,"246.65, 240.09, 252.09, 282.29, 273.71, 274.34, 277.06",778.79,8.312625571,37.57306758,27.83653633,Passed,125.8697764,,,,,,,,,,,,,,,,,,,,,training,2,7,0,left,a,,,,,462.7484,463.0742,35.84,1.600036621,-1.600006104,1,0,0,0.3257,fixationPoint,463.0742,463.1713,463.1713,465.6364,35.84,10240,616.96,a,1,2.4586,,465.6364,465.8376,,,,,,,,41,-216,24,28,72,26,22,26,161,-17,-64,-160,-69,-170,-114,167,-25,28,-68,117,-172,-120,115,-218,124,180,270,360,360,180,270,180,180,180,360,360,,,,,,,,,,,465.8376,465.8377,,0,22,22,22,1,15,novel,,,,,,,,,,,,,,,,,,,,,,,,,,,,,,,,,,,,,,,,,,,,,,,,,
,,27,9,${e://Field/PROLIFIC_PID,F,18,2023-11-09_24h53.30.510,MouseEye_CC,2023.2.2,Win32,143.6988073,1.28,,,1536,864,47.623000000000005,4.52,"246.65, 240.09, 252.09, 282.29, 273.71, 274.34, 277.06",778.79,8.312625571,37.57306758,27.83653633,Passed,125.8697764,,,,,,,,,,,,,,,,,,,,,training,2,8,0,left,a,,,,,465.838,466.1571,35.84,1.600036621,-1.600006104,1,0,0,0.319,fixationPoint,466.1571,466.2543,466.2543,467.4416,35.84,10240,616.96,a,1,1.1797,,467.4416,467.6429,,,,,,,,6,17,210,-120,115,-216,24,-68,19,-17,-64,-80,-208,-121,-162,79,-28,167,-25,121,-128,161,160,161,116,90,360,360,270,90,90,270,360,180,360,360,,,,,,,,,,,467.6429,467.643,,0,23,23,23,1,14,novel,,,,,,,,,,,,,,,,,,,,,,,,,,,,,,,,,,,,,,,,,,,,,,,,,
,,27,9,${e://Field/PROLIFIC_PID,F,18,2023-11-09_24h53.30.510,MouseEye_CC,2023.2.2,Win32,143.6988073,1.28,,,1536,864,47.623000000000005,4.52,"246.65, 240.09, 252.09, 282.29, 273.71, 274.34, 277.06",778.79,8.312625571,37.57306758,27.83653633,Passed,125.8697764,,,,,,,,,,,,,,,,,,,,,training,2,9,0,left,a,,,,,467.6433,467.9831,35.84,1.600036621,-1.600006104,1,0,0,0.3397,fixationPoint,467.9832,468.0803,468.0804,474.3225,35.84,10240,616.96,a,1,6.2353,,474.3226,474.524,,,,,,,,58,113,-21,224,210,168,22,69,119,-216,24,-163,77,-68,19,-224,-220,-21,-118,-121,-162,221,-74,209,-115,180,360,180,180,270,270,90,360,90,360,90,,,,,,,,,,,474.5241,474.5243,,0,24,24,24,1,11,novel,,,,,,,,,,,,,,,,,,,,,,,,,,,,,,,,,,,,,,,,,,,,,,,,,
,,27,9,${e://Field/PROLIFIC_PID,F,18,2023-11-09_24h53.30.510,MouseEye_CC,2023.2.2,Win32,143.6988073,1.28,,,1536,864,47.623000000000005,4.52,"246.65, 240.09, 252.09, 282.29, 273.71, 274.34, 277.06",778.79,8.312625571,37.57306758,27.83653633,Passed,125.8697764,,,,,,,,,,,,,,,,,,,,,training,2,10,180,right,s,,,,,474.5248,474.8645,35.84,1.600036621,-1.600006104,1,0,0,0.3395,fixationPoint,474.8646,474.9613,474.9615,477.0773,35.84,10240,616.96,s,1,2.1045,,477.0773,477.2779,,,,,,,,51,-212,-20,26,22,222,169,122,124,-71,215,-216,223,-163,77,67,-221,167,-25,165,-68,-172,-175,-116,-80,90,360,360,360,270,180,360,90,180,90,270,,,,,,,,,,,477.2779,477.2781,,0,25,25,25,1,5,repeated,,,,,,,,,,,,,,,,,,,,,,,,,,,,,,,,,,,,,,,,,,,,,,,,,
,,27,9,${e://Field/PROLIFIC_PID,F,18,2023-11-09_24h53.30.510,MouseEye_CC,2023.2.2,Win32,143.6988073,1.28,,,1536,864,47.623000000000005,4.52,"246.65, 240.09, 252.09, 282.29, 273.71, 274.34, 277.06",778.79,8.312625571,37.57306758,27.83653633,Passed,125.8697764,,,,,,,,,,,,,,,,,,,,,training,2,11,0,left,a,,,,,477.2783,477.463,35.84,1.600036621,-1.600006104,1,0,0,0.1846,fixationPoint,477.4631,477.5581,477.5581,479.6393,35.84,10240,616.96,s,0,2.0697,,479.6393,483.6406,,,,,,,,3,-120,213,220,72,122,124,66,213,-120,-120,-116,-224,-21,-118,219,-212,217,-32,79,-28,-30,26,-216,24,360,180,360,360,90,180,270,90,360,270,180,,,,,,,,,,,483.6406,483.6457,,0,26,26,26,1,4,repeated,,,,,,,,,,,,,,,,,,,,,,,,,,,,,,,,,,,,,,,,,,,,,,,,,
,,27,9,${e://Field/PROLIFIC_PID,F,18,2023-11-09_24h53.30.510,MouseEye_CC,2023.2.2,Win32,143.6988073,1.28,,,1536,864,47.623000000000005,4.52,"246.65, 240.09, 252.09, 282.29, 273.71, 274.34, 277.06",778.79,8.312625571,37.57306758,27.83653633,Passed,125.8697764,,,,,,,,,,,,,,,,,,,,,training,2,12,180,right,s,,,,,483.6459,484.0432,35.84,1.600036621,-1.600006104,1,0,0,0.3973,fixationPoint,484.0433,484.1405,484.1406,486.2027,35.84,10240,616.96,s,1,2.0557,,486.2028,486.404,,,,,,,,61,-220,-72,69,119,222,117,116,31,-169,222,-120,115,-18,73,209,-115,67,-221,112,-215,-116,-224,-18,-172,360,270,180,360,180,270,180,90,180,90,180,,,,,,,,,,,486.404,486.4041,,0,27,27,27,1,10,novel,,,,,,,,,,,,,,,,,,,,,,,,,,,,,,,,,,,,,,,,,,,,,,,,,
,,27,9,${e://Field/PROLIFIC_PID,F,18,2023-11-09_24h53.30.510,MouseEye_CC,2023.2.2,Win32,143.6988073,1.28,,,1536,864,47.623000000000005,4.52,"246.65, 240.09, 252.09, 282.29, 273.71, 274.34, 277.06",778.79,8.312625571,37.57306758,27.83653633,Passed,125.8697764,,,,,,,,,,,,,,,,,,,,,training,2,13,0,left,a,,,,,486.4044,486.7234,35.84,1.600036621,-1.600006104,1,0,0,0.3189,fixationPoint,486.7235,486.8206,486.8206,490.2091,35.84,10240,616.96,a,1,3.383,,490.2091,490.4105,,,,,,,,25,-28,120,69,168,162,219,17,210,-166,-20,-212,-20,-21,-31,117,-172,123,-79,162,-123,-218,124,-30,26,360,270,180,180,270,270,360,360,180,180,270,,,,,,,,,,,490.4105,490.4106,,0,28,28,28,1,16,novel,,,,,,,,,,,,,,,,,,,,,,,,,,,,,,,,,,,,,,,,,,,,,,,,,
,,27,9,${e://Field/PROLIFIC_PID,F,18,2023-11-09_24h53.30.510,MouseEye_CC,2023.2.2,Win32,143.6988073,1.28,,,1536,864,47.623000000000005,4.52,"246.65, 240.09, 252.09, 282.29, 273.71, 274.34, 277.06",778.79,8.312625571,37.57306758,27.83653633,Passed,125.8697764,,,,,,,,,,,,,,,,,,,,,training,2,14,180,right,s,,,,,490.4108,490.8271,35.84,1.600036621,-1.600006104,1,0,0,0.4162,fixationPoint,490.8271,490.9242,490.9242,493.778,35.84,10240,616.96,s,1,2.8469,,493.778,493.9793,,,,,,,,40,220,72,-25,172,-112,20,-120,213,-76,-17,-21,-118,-26,-222,121,-128,221,-162,219,-212,222,169,20,127,270,270,360,360,360,90,180,90,360,360,180,,,,,,,,,,,493.9793,493.9795,,0,29,29,29,1,2,repeated,,,,,,,,,,,,,,,,,,,,,,,,,,,,,,,,,,,,,,,,,,,,,,,,,
,,27,9,${e://Field/PROLIFIC_PID,F,18,2023-11-09_24h53.30.510,MouseEye_CC,2023.2.2,Win32,143.6988073,1.28,,,1536,864,47.623000000000005,4.52,"246.65, 240.09, 252.09, 282.29, 273.71, 274.34, 277.06",778.79,8.312625571,37.57306758,27.83653633,Passed,125.8697764,,,,,,,,,,,,,,,,,,,,,training,2,15,180,right,s,,,,,493.9797,494.2918,35.84,1.600036621,-1.600006104,1,0,0,0.3121,fixationPoint,494.2919,494.389,494.389,497.2636,35.84,10240,616.96,s,1,2.8688,,497.2636,497.465,,,,,,,,98,112,-215,162,219,28,72,220,72,-169,222,-120,213,-172,170,-21,-118,-121,-162,-170,-114,167,-25,67,-221,360,270,90,180,180,90,270,270,360,90,90,,,,,,,,,,,497.4651,497.4651,,0,30,30,30,1,12,novel,,,,,,,,,,,,,,,,,,,,,,,,,,,,,,,,,,,,,,,,,,,,,,,,,
,,27,9,${e://Field/PROLIFIC_PID,F,18,2023-11-09_24h53.30.510,MouseEye_CC,2023.2.2,Win32,143.6988073,1.28,,,1536,864,47.623000000000005,4.52,"246.65, 240.09, 252.09, 282.29, 273.71, 274.34, 277.06",778.79,8.312625571,37.57306758,27.83653633,Passed,125.8697764,,,,,,,,,,,,,,,,,,,,,training,2,16,180,right,s,,,,,497.4653,497.7913,35.84,1.600036621,-1.600006104,1,0,0,0.3259,fixationPoint,497.7913,497.8884,497.8885,498.8953,35.84,10240,616.96,s,1,1.0008,,498.8953,499.0967,,,,,,,,48,116,31,-66,176,-68,19,-77,71,-69,-122,-76,-17,-21,-118,160,-168,22,-26,121,-128,168,22,222,117,360,360,180,360,360,270,180,270,180,90,90,,,,,,,,,,,499.0967,503.7071,space,0,31,31,31,1,1,repeated,4.5967,,,,,,,,,,,,,,,,,,,,,,,,,,,,,,,,,,,,,,,,,,,,,,,,
,,27,9,${e://Field/PROLIFIC_PID,F,18,2023-11-09_24h53.30.510,MouseEye_CC,2023.2.2,Win32,143.6988073,1.28,,,1536,864,47.623000000000005,4.52,"246.65, 240.09, 252.09, 282.29, 273.71, 274.34, 277.06",778.79,8.312625571,37.57306758,27.83653633,Passed,125.8697764,,,,,,,,,,,,,,,,,,,,,training,3,1,0,left,a,,,,,503.7122,504.4292,35.84,1.600036621,-1.600006104,1,0,0,0.7169,fixationPoint,504.4294,504.5273,504.5274,508.1074,35.84,10240,616.96,a,1,3.5692,,508.1074,508.3036,,,,,,,,58,113,-21,116,31,161,160,162,219,-71,215,-68,19,-208,74,-21,-31,-116,-224,-224,-220,160,-168,28,-68,180,90,270,270,180,90,360,90,90,360,360,,,,,,,,,,,508.3036,508.3073,,0,32,32,32,1,11,novel,,,,,,,,,,,,,,,,,,,,,,,,,,,,,,,,,,,,,,,,,,,,,,,,,
,,27,9,${e://Field/PROLIFIC_PID,F,18,2023-11-09_24h53.30.510,MouseEye_CC,2023.2.2,Win32,143.6988073,1.28,,,1536,864,47.623000000000005,4.52,"246.65, 240.09, 252.09, 282.29, 273.71, 274.34, 277.06",778.79,8.312625571,37.57306758,27.83653633,Passed,125.8697764,,,,,,,,,,,,,,,,,,,,,training,3,2,180,right,s,,,,,508.3076,508.6577,35.84,1.600036621,-1.600006104,1,0,0,0.3501,fixationPoint,508.6577,508.7549,508.7549,517.6982,35.84,10240,616.96,s,1,8.937,,517.6982,517.9013,,,,,,,,43,-112,20,28,72,224,31,26,161,-224,-220,-18,-172,-116,-24,25,-124,22,-26,113,-21,-172,170,-25,172,180,180,90,360,90,180,270,360,180,90,90,,,,,,,,,,,517.9013,517.9014,,0,33,33,33,1,3,repeated,,,,,,,,,,,,,,,,,,,,,,,,,,,,,,,,,,,,,,,,,,,,,,,,,
,,27,9,${e://Field/PROLIFIC_PID,F,18,2023-11-09_24h53.30.510,MouseEye_CC,2023.2.2,Win32,143.6988073,1.28,,,1536,864,47.623000000000005,4.52,"246.65, 240.09, 252.09, 282.29, 273.71, 274.34, 277.06",778.79,8.312625571,37.57306758,27.83653633,Passed,125.8697764,,,,,,,,,,,,,,,,,,,,,training,3,3,180,right,s,,,,,517.9016,518.3232,35.84,1.600036621,-1.600006104,1,0,0,0.4215,fixationPoint,518.3233,518.4202,518.4203,519.7287,35.84,10240,616.96,s,1,1.2967,,519.7289,519.927,,,,,,,,76,25,-124,26,22,17,210,222,117,-161,112,-163,77,-218,124,-120,-120,-211,-115,-212,-20,67,-221,79,-28,180,270,270,360,360,270,90,180,90,270,360,,,,,,,,,,,519.9272,519.9274,,0,34,34,34,1,8,repeated,,,,,,,,,,,,,,,,,,,,,,,,,,,,,,,,,,,,,,,,,,,,,,,,,
,,27,9,${e://Field/PROLIFIC_PID,F,18,2023-11-09_24h53.30.510,MouseEye_CC,2023.2.2,Win32,143.6988073,1.28,,,1536,864,47.623000000000005,4.52,"246.65, 240.09, 252.09, 282.29, 273.71, 274.34, 277.06",778.79,8.312625571,37.57306758,27.83653633,Passed,125.8697764,,,,,,,,,,,,,,,,,,,,,training,3,4,0,left,a,,,,,519.9278,520.2374,35.84,1.600036621,-1.600006104,1,0,0,0.3096,fixationPoint,520.2374,520.3365,520.3366,523.8056,35.84,10240,616.96,a,1,3.4575,,523.8056,524.0072,,,,,,,,61,-220,-72,69,119,161,116,222,169,-28,120,-216,223,-163,77,117,-172,162,-123,221,-162,-67,-77,-116,-24,180,180,360,90,90,90,180,90,360,90,360,,,,,,,,,,,524.0072,524.0072,,0,35,35,35,1,10,novel,,,,,,,,,,,,,,,,,,,,,,,,,,,,,,,,,,,,,,,,,,,,,,,,,
,,27,9,${e://Field/PROLIFIC_PID,F,18,2023-11-09_24h53.30.510,MouseEye_CC,2023.2.2,Win32,143.6988073,1.28,,,1536,864,47.623000000000005,4.52,"246.65, 240.09, 252.09, 282.29, 273.71, 274.34, 277.06",778.79,8.312625571,37.57306758,27.83653633,Passed,125.8697764,,,,,,,,,,,,,,,,,,,,,training,3,5,180,right,s,,,,,524.0075,524.2459,35.84,1.600036621,-1.600006104,1,0,0,0.2382,fixationPoint,524.2459,524.343,524.3431,528.3943,35.84,10240,616.96,s,1,4.0395,,528.3944,528.5924,,,,,,,,25,-28,120,168,22,127,173,20,127,-220,-166,-224,-220,-21,-118,209,-115,221,-74,221,-162,-77,71,-68,19,90,360,360,360,360,270,180,360,90,90,180,,,,,,,,,,,528.5925,528.5928,,0,36,36,36,1,16,novel,,,,,,,,,,,,,,,,,,,,,,,,,,,,,,,,,,,,,,,,,,,,,,,,,
,,27,9,${e://Field/PROLIFIC_PID,F,18,2023-11-09_24h53.30.510,MouseEye_CC,2023.2.2,Win32,143.6988073,1.28,,,1536,864,47.623000000000005,4.52,"246.65, 240.09, 252.09, 282.29, 273.71, 274.34, 277.06",778.79,8.312625571,37.57306758,27.83653633,Passed,125.8697764,,,,,,,,,,,,,,,,,,,,,training,3,6,0,left,a,,,,,528.5932,528.7521,35.84,1.600036621,-1.600006104,1,0,0,0.1587,fixationPoint,528.7521,528.8471,528.8472,531.6874,35.84,10240,616.96,a,1,2.8334,,531.6875,531.8834,,,,,,,,3,-120,213,220,72,122,124,66,213,-120,-120,-116,-224,-21,-118,219,-212,217,-32,79,-28,-30,26,-216,24,180,360,180,90,360,270,180,360,180,360,360,,,,,,,,,,,531.8836,531.8838,,0,37,37,37,1,4,repeated,,,,,,,,,,,,,,,,,,,,,,,,,,,,,,,,,,,,,,,,,,,,,,,,,
,,27,9,${e://Field/PROLIFIC_PID,F,18,2023-11-09_24h53.30.510,MouseEye_CC,2023.2.2,Win32,143.6988073,1.28,,,1536,864,47.623000000000005,4.52,"246.65, 240.09, 252.09, 282.29, 273.71, 274.34, 277.06",778.79,8.312625571,37.57306758,27.83653633,Passed,125.8697764,,,,,,,,,,,,,,,,,,,,,training,3,7,180,right,s,,,,,531.8844,532.0898,35.84,1.600036621,-1.600006104,1,0,0,0.2054,fixationPoint,532.0898,532.1895,532.1897,536.4039,35.84,10240,616.96,s,1,4.2011,,536.404,536.6029,,,,,,,,98,112,-215,17,210,168,22,162,219,-163,77,-28,120,-66,176,-170,-114,-116,-224,-76,-17,64,-167,117,-172,270,180,90,180,360,180,270,180,180,180,90,,,,,,,,,,,536.6029,536.6029,,0,38,38,38,1,12,novel,,,,,,,,,,,,,,,,,,,,,,,,,,,,,,,,,,,,,,,,,,,,,,,,,
,,27,9,${e://Field/PROLIFIC_PID,F,18,2023-11-09_24h53.30.510,MouseEye_CC,2023.2.2,Win32,143.6988073,1.28,,,1536,864,47.623000000000005,4.52,"246.65, 240.09, 252.09, 282.29, 273.71, 274.34, 277.06",778.79,8.312625571,37.57306758,27.83653633,Passed,125.8697764,,,,,,,,,,,,,,,,,,,,,training,3,8,180,right,s,,,,,536.6032,536.8204,35.84,1.600036621,-1.600006104,1,0,0,0.217,fixationPoint,536.8205,536.9191,536.9191,538.9312,35.84,10240,616.96,s,1,1.9999,,538.9313,539.1364,,,,,,,,51,-212,-20,26,22,222,169,122,124,-71,215,-216,223,-163,77,67,-221,167,-25,165,-68,-172,-175,-116,-80,270,180,180,360,360,90,180,360,180,270,360,,,,,,,,,,,539.1364,539.1365,,0,39,39,39,1,5,repeated,,,,,,,,,,,,,,,,,,,,,,,,,,,,,,,,,,,,,,,,,,,,,,,,,
,,27,9,${e://Field/PROLIFIC_PID,F,18,2023-11-09_24h53.30.510,MouseEye_CC,2023.2.2,Win32,143.6988073,1.28,,,1536,864,47.623000000000005,4.52,"246.65, 240.09, 252.09, 282.29, 273.71, 274.34, 277.06",778.79,8.312625571,37.57306758,27.83653633,Passed,125.8697764,,,,,,,,,,,,,,,,,,,,,training,3,9,0,left,a,,,,,539.1367,539.3061,35.84,1.600036621,-1.600006104,1,0,0,0.1692,fixationPoint,539.3063,539.4034,539.4035,540.5954,35.84,10240,616.96,a,1,1.1805,,540.5954,540.7968,,,,,,,,6,17,210,-76,121,-161,112,-172,170,-160,-69,-18,-172,-69,-122,26,-219,79,-28,162,-123,66,213,222,169,270,360,90,180,90,90,270,180,90,360,360,,,,,,,,,,,540.7968,540.7969,,0,40,40,40,1,14,novel,,,,,,,,,,,,,,,,,,,,,,,,,,,,,,,,,,,,,,,,,,,,,,,,,
,,27,9,${e://Field/PROLIFIC_PID,F,18,2023-11-09_24h53.30.510,MouseEye_CC,2023.2.2,Win32,143.6988073,1.28,,,1536,864,47.623000000000005,4.52,"246.65, 240.09, 252.09, 282.29, 273.71, 274.34, 277.06",778.79,8.312625571,37.57306758,27.83653633,Passed,125.8697764,,,,,,,,,,,,,,,,,,,,,training,3,10,0,left,a,,,,,540.7972,541.019,35.84,1.600036621,-1.600006104,1,0,0,0.2218,fixationPoint,541.0191,541.1182,541.1183,545.076,35.84,10240,616.96,a,1,3.9445,,545.0762,545.2775,,,,,,,,41,-216,24,66,213,17,210,26,22,-160,-69,-26,-222,-69,-122,160,-168,112,-215,217,-32,-18,73,-208,74,360,180,180,360,90,180,270,270,180,90,270,,,,,,,,,,,545.2776,545.2779,,0,41,41,41,1,15,novel,,,,,,,,,,,,,,,,,,,,,,,,,,,,,,,,,,,,,,,,,,,,,,,,,
,,27,9,${e://Field/PROLIFIC_PID,F,18,2023-11-09_24h53.30.510,MouseEye_CC,2023.2.2,Win32,143.6988073,1.28,,,1536,864,47.623000000000005,4.52,"246.65, 240.09, 252.09, 282.29, 273.71, 274.34, 277.06",778.79,8.312625571,37.57306758,27.83653633,Passed,125.8697764,,,,,,,,,,,,,,,,,,,,,training,3,11,180,right,s,,,,,545.2783,545.4254,35.84,1.600036621,-1.600006104,1,0,0,0.1471,fixationPoint,545.4254,545.5204,545.5205,553.3251,35.84,10240,616.96,s,1,7.7924,,553.3252,553.5238,,,,,,,,95,-26,-222,69,168,26,161,66,213,-25,172,-174,19,-163,77,121,-128,123,-79,117,-172,-68,-165,-160,-69,90,90,360,180,270,180,360,270,180,180,90,,,,,,,,,,,553.5238,553.5239,,0,42,42,42,1,6,repeated,,,,,,,,,,,,,,,,,,,,,,,,,,,,,,,,,,,,,,,,,,,,,,,,,
,,27,9,${e://Field/PROLIFIC_PID,F,18,2023-11-09_24h53.30.510,MouseEye_CC,2023.2.2,Win32,143.6988073,1.28,,,1536,864,47.623000000000005,4.52,"246.65, 240.09, 252.09, 282.29, 273.71, 274.34, 277.06",778.79,8.312625571,37.57306758,27.83653633,Passed,125.8697764,,,,,,,,,,,,,,,,,,,,,training,3,12,0,left,a,,,,,553.5242,553.6908,35.84,1.600036621,-1.600006104,1,0,0,0.1666,fixationPoint,553.6908,553.7947,553.7947,556.5516,35.84,10240,616.96,a,1,2.7497,,556.5517,556.7479,,,,,,,,53,-116,-24,224,210,67,77,224,31,-18,73,-216,223,-66,176,160,-220,117,-172,121,-128,-68,-165,-67,-77,360,360,360,90,360,90,90,180,270,90,360,,,,,,,,,,,556.7479,556.748,,0,43,43,43,1,9,novel,,,,,,,,,,,,,,,,,,,,,,,,,,,,,,,,,,,,,,,,,,,,,,,,,
,,27,9,${e://Field/PROLIFIC_PID,F,18,2023-11-09_24h53.30.510,MouseEye_CC,2023.2.2,Win32,143.6988073,1.28,,,1536,864,47.623000000000005,4.52,"246.65, 240.09, 252.09, 282.29, 273.71, 274.34, 277.06",778.79,8.312625571,37.57306758,27.83653633,Passed,125.8697764,,,,,,,,,,,,,,,,,,,,,training,3,13,0,left,a,,,,,556.7482,557.2617,35.84,1.600036621,-1.600006104,1,0,0,0.5133,fixationPoint,557.2617,557.3589,557.3589,558.9489,35.84,10240,616.96,a,1,1.5837,,558.949,559.1502,,,,,,,,50,224,31,-30,26,-216,24,-224,160,-160,-69,-121,-162,-80,-208,22,-26,160,-220,26,-219,112,220,127,173,270,90,270,360,180,360,360,90,90,90,270,,,,,,,,,,,559.1503,559.1504,,0,44,44,44,1,13,novel,,,,,,,,,,,,,,,,,,,,,,,,,,,,,,,,,,,,,,,,,,,,,,,,,
,,27,9,${e://Field/PROLIFIC_PID,F,18,2023-11-09_24h53.30.510,MouseEye_CC,2023.2.2,Win32,143.6988073,1.28,,,1536,864,47.623000000000005,4.52,"246.65, 240.09, 252.09, 282.29, 273.71, 274.34, 277.06",778.79,8.312625571,37.57306758,27.83653633,Passed,125.8697764,,,,,,,,,,,,,,,,,,,,,training,3,14,180,right,s,,,,,559.1506,559.2684,35.84,1.600036621,-1.600006104,1,0,0,0.1177,fixationPoint,559.2684,559.3655,559.3656,561.9139,35.84,10240,616.96,s,1,2.5418,,561.9139,562.1151,,,,,,,,40,220,72,-25,172,-112,20,-120,213,-76,-17,-21,-118,-26,-222,121,-128,221,-162,219,-212,222,169,20,127,90,270,270,180,360,270,360,360,90,90,270,,,,,,,,,,,562.1152,562.1153,,0,45,45,45,1,2,repeated,,,,,,,,,,,,,,,,,,,,,,,,,,,,,,,,,,,,,,,,,,,,,,,,,
,,27,9,${e://Field/PROLIFIC_PID,F,18,2023-11-09_24h53.30.510,MouseEye_CC,2023.2.2,Win32,143.6988073,1.28,,,1536,864,47.623000000000005,4.52,"246.65, 240.09, 252.09, 282.29, 273.71, 274.34, 277.06",778.79,8.312625571,37.57306758,27.83653633,Passed,125.8697764,,,,,,,,,,,,,,,,,,,,,training,3,15,0,left,a,,,,,562.1155,562.254,35.84,1.600036621,-1.600006104,1,0,0,0.1384,fixationPoint,562.254,562.3512,562.3512,563.6219,35.84,10240,616.96,a,1,1.265,,563.6219,563.8232,,,,,,,,60,217,-32,122,124,220,72,127,173,-174,19,-218,124,-25,172,-160,-69,-176,-224,-211,-115,117,-172,165,-68,270,270,90,360,270,360,360,180,90,270,180,,,,,,,,,,,563.8232,563.8234,,0,46,46,46,1,7,repeated,,,,,,,,,,,,,,,,,,,,,,,,,,,,,,,,,,,,,,,,,,,,,,,,,
,,27,9,${e://Field/PROLIFIC_PID,F,18,2023-11-09_24h53.30.510,MouseEye_CC,2023.2.2,Win32,143.6988073,1.28,,,1536,864,47.623000000000005,4.52,"246.65, 240.09, 252.09, 282.29, 273.71, 274.34, 277.06",778.79,8.312625571,37.57306758,27.83653633,Passed,125.8697764,,,,,,,,,,,,,,,,,,,,,training,3,16,180,right,s,,,,,563.8236,564.0039,35.84,1.600036621,-1.600006104,1,0,0,0.1802,fixationPoint,564.0039,564.1009,564.1009,565.1287,35.84,10240,616.96,s,1,1.0198,,565.1288,565.33,,,,,,,,48,116,31,-66,176,-68,19,-77,71,-69,-122,-76,-17,-21,-118,160,-168,22,-26,121,-128,168,22,222,117,90,360,270,360,270,180,360,270,90,360,270,,,,,,,,,,,565.33,568.5517,space,0,47,47,47,1,1,repeated,3.2099,,,,,,,,,,,,,,,,,,,,,,,,,,,,,,,,,,,,,,,,,,,,,,,,
,,27,9,${e://Field/PROLIFIC_PID,F,18,2023-11-09_24h53.30.510,MouseEye_CC,2023.2.2,Win32,143.6988073,1.28,,,1536,864,47.623000000000005,4.52,"246.65, 240.09, 252.09, 282.29, 273.71, 274.34, 277.06",778.79,8.312625571,37.57306758,27.83653633,Passed,125.8697764,,,,,,,,,,,,,,,,,,,,,training,4,1,0,left,a,,,,,568.5568,569.2858,35.84,1.600036621,-1.600006104,1,0,0,0.7288,fixationPoint,569.2859,569.3848,569.3849,570.7161,35.84,10240,616.96,a,1,1.3196,,570.7161,570.9129,,,,,,,,53,-116,-24,17,210,222,117,118,66,-169,222,-216,24,-208,74,160,-220,79,-28,221,-74,-224,-220,-69,-122,270,270,180,270,180,270,180,270,180,360,90,,,,,,,,,,,570.913,570.917,,0,48,48,48,1,9,novel,,,,,,,,,,,,,,,,,,,,,,,,,,,,,,,,,,,,,,,,,,,,,,,,,
,,27,9,${e://Field/PROLIFIC_PID,F,18,2023-11-09_24h53.30.510,MouseEye_CC,2023.2.2,Win32,143.6988073,1.28,,,1536,864,47.623000000000005,4.52,"246.65, 240.09, 252.09, 282.29, 273.71, 274.34, 277.06",778.79,8.312625571,37.57306758,27.83653633,Passed,125.8697764,,,,,,,,,,,,,,,,,,,,,training,4,2,180,right,s,,,,,570.9172,571.0839,35.84,1.600036621,-1.600006104,1,0,0,0.1667,fixationPoint,571.084,571.1834,571.1835,577.8814,35.84,10240,616.96,s,1,6.6867,,577.8815,578.0781,,,,,,,,50,224,31,-172,170,-71,215,-25,172,-176,-224,-166,-20,-76,-17,64,-167,160,-220,67,-128,69,168,69,119,360,90,180,360,270,270,270,180,90,270,360,,,,,,,,,,,578.0781,578.0781,,0,49,49,49,1,13,novel,,,,,,,,,,,,,,,,,,,,,,,,,,,,,,,,,,,,,,,,,,,,,,,,,
,,27,9,${e://Field/PROLIFIC_PID,F,18,2023-11-09_24h53.30.510,MouseEye_CC,2023.2.2,Win32,143.6988073,1.28,,,1536,864,47.623000000000005,4.52,"246.65, 240.09, 252.09, 282.29, 273.71, 274.34, 277.06",778.79,8.312625571,37.57306758,27.83653633,Passed,125.8697764,,,,,,,,,,,,,,,,,,,,,training,4,3,0,left,a,,,,,578.0784,578.2587,35.84,1.600036621,-1.600006104,1,0,0,0.1802,fixationPoint,578.2587,578.3558,578.3558,582.5567,35.84,10240,616.96,a,1,4.1947,,582.5568,582.7581,,,,,,,,25,-28,120,162,219,26,22,168,22,-80,-208,-21,-31,-121,-162,167,-25,68,-68,221,-74,-76,121,-77,71,360,360,270,270,270,270,90,180,360,360,90,,,,,,,,,,,582.7581,582.7581,,0,50,50,50,1,16,novel,,,,,,,,,,,,,,,,,,,,,,,,,,,,,,,,,,,,,,,,,,,,,,,,,
,,27,9,${e://Field/PROLIFIC_PID,F,18,2023-11-09_24h53.30.510,MouseEye_CC,2023.2.2,Win32,143.6988073,1.28,,,1536,864,47.623000000000005,4.52,"246.65, 240.09, 252.09, 282.29, 273.71, 274.34, 277.06",778.79,8.312625571,37.57306758,27.83653633,Passed,125.8697764,,,,,,,,,,,,,,,,,,,,,training,4,4,0,left,a,,,,,582.7584,582.8552,35.84,1.600036621,-1.600006104,1,0,0,0.0967,fixationPoint,582.8552,582.9524,582.9524,587.2018,35.84,10240,616.96,a,1,4.2426,,587.2018,587.4031,,,,,,,,51,-212,-20,26,22,222,169,122,124,-71,215,-216,223,-163,77,67,-221,167,-25,165,-68,-172,-175,-116,-80,270,360,180,180,270,180,360,360,270,90,360,,,,,,,,,,,587.4032,587.4033,,0,51,51,51,1,5,repeated,,,,,,,,,,,,,,,,,,,,,,,,,,,,,,,,,,,,,,,,,,,,,,,,,
,,27,9,${e://Field/PROLIFIC_PID,F,18,2023-11-09_24h53.30.510,MouseEye_CC,2023.2.2,Win32,143.6988073,1.28,,,1536,864,47.623000000000005,4.52,"246.65, 240.09, 252.09, 282.29, 273.71, 274.34, 277.06",778.79,8.312625571,37.57306758,27.83653633,Passed,125.8697764,,,,,,,,,,,,,,,,,,,,,training,4,5,180,right,s,,,,,587.4036,587.5419,35.84,1.600036621,-1.600006104,1,0,0,0.1382,fixationPoint,587.5419,587.6392,587.6393,590.0904,35.84,10240,616.96,s,1,2.4446,,590.0904,590.2916,,,,,,,,40,220,72,-25,172,-112,20,-120,213,-76,-17,-21,-118,-26,-222,121,-128,221,-162,219,-212,222,169,20,127,180,90,360,180,180,90,270,270,270,360,180,,,,,,,,,,,590.2916,590.2917,,0,52,52,52,1,2,repeated,,,,,,,,,,,,,,,,,,,,,,,,,,,,,,,,,,,,,,,,,,,,,,,,,
,,27,9,${e://Field/PROLIFIC_PID,F,18,2023-11-09_24h53.30.510,MouseEye_CC,2023.2.2,Win32,143.6988073,1.28,,,1536,864,47.623000000000005,4.52,"246.65, 240.09, 252.09, 282.29, 273.71, 274.34, 277.06",778.79,8.312625571,37.57306758,27.83653633,Passed,125.8697764,,,,,,,,,,,,,,,,,,,,,training,4,6,180,right,s,,,,,590.2919,590.5623,35.84,1.600036621,-1.600006104,1,0,0,0.2704,fixationPoint,590.5623,590.6596,590.6597,592.4235,35.84,10240,616.96,s,1,1.7573,,592.4236,592.6246,,,,,,,,98,112,-215,122,124,222,117,220,72,-218,124,-120,115,-113,176,-18,-172,-26,-222,-211,-115,219,-212,165,-68,270,90,180,270,90,270,180,180,360,180,90,,,,,,,,,,,592.6246,592.6247,,0,53,53,53,1,12,novel,,,,,,,,,,,,,,,,,,,,,,,,,,,,,,,,,,,,,,,,,,,,,,,,,
,,27,9,${e://Field/PROLIFIC_PID,F,18,2023-11-09_24h53.30.510,MouseEye_CC,2023.2.2,Win32,143.6988073,1.28,,,1536,864,47.623000000000005,4.52,"246.65, 240.09, 252.09, 282.29, 273.71, 274.34, 277.06",778.79,8.312625571,37.57306758,27.83653633,Passed,125.8697764,,,,,,,,,,,,,,,,,,,,,training,4,7,180,right,s,,,,,592.6249,592.8328,35.84,1.600036621,-1.600006104,1,0,0,0.2077,fixationPoint,592.8329,592.93,592.93,594.4924,35.84,10240,616.96,s,1,1.5561,,594.4924,594.6937,,,,,,,,48,116,31,-66,176,-68,19,-77,71,-69,-122,-76,-17,-21,-118,160,-168,22,-26,121,-128,168,22,222,117,360,360,360,90,90,270,270,270,270,90,180,,,,,,,,,,,594.6938,594.6939,,0,54,54,54,1,1,repeated,,,,,,,,,,,,,,,,,,,,,,,,,,,,,,,,,,,,,,,,,,,,,,,,,
,,27,9,${e://Field/PROLIFIC_PID,F,18,2023-11-09_24h53.30.510,MouseEye_CC,2023.2.2,Win32,143.6988073,1.28,,,1536,864,47.623000000000005,4.52,"246.65, 240.09, 252.09, 282.29, 273.71, 274.34, 277.06",778.79,8.312625571,37.57306758,27.83653633,Passed,125.8697764,,,,,,,,,,,,,,,,,,,,,training,4,8,0,left,a,,,,,594.6941,594.8814,35.84,1.600036621,-1.600006104,1,0,0,0.1872,fixationPoint,594.8815,594.9783,594.9783,597.777,35.84,10240,616.96,a,1,2.7926,,597.777,597.9779,,,,,,,,3,-120,213,220,72,122,124,66,213,-120,-120,-116,-224,-21,-118,219,-212,217,-32,79,-28,-30,26,-216,24,360,270,270,270,270,180,270,270,360,270,90,,,,,,,,,,,597.9779,597.9781,,0,55,55,55,1,4,repeated,,,,,,,,,,,,,,,,,,,,,,,,,,,,,,,,,,,,,,,,,,,,,,,,,
,,27,9,${e://Field/PROLIFIC_PID,F,18,2023-11-09_24h53.30.510,MouseEye_CC,2023.2.2,Win32,143.6988073,1.28,,,1536,864,47.623000000000005,4.52,"246.65, 240.09, 252.09, 282.29, 273.71, 274.34, 277.06",778.79,8.312625571,37.57306758,27.83653633,Passed,125.8697764,,,,,,,,,,,,,,,,,,,,,training,4,9,0,left,a,,,,,597.9783,598.1309,35.84,1.600036621,-1.600006104,1,0,0,0.1526,fixationPoint,598.131,598.228,598.228,601.6927,35.84,10240,616.96,a,1,3.4577,,601.6927,601.894,,,,,,,,6,17,210,-76,121,-77,71,-28,120,-211,-115,-21,-118,-121,-162,25,-124,221,-74,113,-21,116,31,71,24,270,180,90,360,360,180,270,90,180,270,270,,,,,,,,,,,601.894,601.8941,,0,56,56,56,1,14,novel,,,,,,,,,,,,,,,,,,,,,,,,,,,,,,,,,,,,,,,,,,,,,,,,,
,,27,9,${e://Field/PROLIFIC_PID,F,18,2023-11-09_24h53.30.510,MouseEye_CC,2023.2.2,Win32,143.6988073,1.28,,,1536,864,47.623000000000005,4.52,"246.65, 240.09, 252.09, 282.29, 273.71, 274.34, 277.06",778.79,8.312625571,37.57306758,27.83653633,Passed,125.8697764,,,,,,,,,,,,,,,,,,,,,training,4,10,180,right,s,,,,,601.8943,602.0678,35.84,1.600036621,-1.600006104,1,0,0,0.1734,fixationPoint,602.0679,602.1648,602.1649,604.4493,35.84,10240,616.96,s,1,2.2777,,604.4493,604.6507,,,,,,,,43,-112,20,28,72,224,31,26,161,-224,-220,-18,-172,-116,-24,25,-124,22,-26,113,-21,-172,170,-25,172,180,180,360,270,180,270,270,270,180,270,90,,,,,,,,,,,604.6507,604.6508,,0,57,57,57,1,3,repeated,,,,,,,,,,,,,,,,,,,,,,,,,,,,,,,,,,,,,,,,,,,,,,,,,
,,27,9,${e://Field/PROLIFIC_PID,F,18,2023-11-09_24h53.30.510,MouseEye_CC,2023.2.2,Win32,143.6988073,1.28,,,1536,864,47.623000000000005,4.52,"246.65, 240.09, 252.09, 282.29, 273.71, 274.34, 277.06",778.79,8.312625571,37.57306758,27.83653633,Passed,125.8697764,,,,,,,,,,,,,,,,,,,,,training,4,11,0,left,a,,,,,604.6511,604.7964,35.84,1.600036621,-1.600006104,1,0,0,0.1452,fixationPoint,604.7964,604.8935,604.8936,608.1848,35.84,10240,616.96,a,1,3.2841,,608.1849,608.3862,,,,,,,,95,-26,-222,69,168,26,161,66,213,-25,172,-174,19,-163,77,121,-128,123,-79,117,-172,-68,-165,-160,-69,90,270,270,360,360,180,270,270,270,360,90,,,,,,,,,,,608.3862,608.3862,,0,58,58,58,1,6,repeated,,,,,,,,,,,,,,,,,,,,,,,,,,,,,,,,,,,,,,,,,,,,,,,,,
,,27,9,${e://Field/PROLIFIC_PID,F,18,2023-11-09_24h53.30.510,MouseEye_CC,2023.2.2,Win32,143.6988073,1.28,,,1536,864,47.623000000000005,4.52,"246.65, 240.09, 252.09, 282.29, 273.71, 274.34, 277.06",778.79,8.312625571,37.57306758,27.83653633,Passed,125.8697764,,,,,,,,,,,,,,,,,,,,,training,4,12,180,right,s,,,,,608.3865,608.4972,35.84,1.600036621,-1.600006104,1,0,0,0.1106,fixationPoint,608.4972,608.5944,608.5945,612.948,35.84,10240,616.96,s,1,4.3468,,612.9481,613.1494,,,,,,,,58,113,-21,168,65,69,168,224,31,-172,170,-216,223,-18,73,-211,-115,-21,-118,-21,-31,112,-215,160,-220,360,360,270,180,90,180,360,90,270,360,270,,,,,,,,,,,613.1494,613.1495,,0,59,59,59,1,11,novel,,,,,,,,,,,,,,,,,,,,,,,,,,,,,,,,,,,,,,,,,,,,,,,,,
,,27,9,${e://Field/PROLIFIC_PID,F,18,2023-11-09_24h53.30.510,MouseEye_CC,2023.2.2,Win32,143.6988073,1.28,,,1536,864,47.623000000000005,4.52,"246.65, 240.09, 252.09, 282.29, 273.71, 274.34, 277.06",778.79,8.312625571,37.57306758,27.83653633,Passed,125.8697764,,,,,,,,,,,,,,,,,,,,,training,4,13,0,left,a,,,,,613.1498,613.2883,35.84,1.600036621,-1.600006104,1,0,0,0.1384,fixationPoint,613.2883,613.3855,613.3855,616.142,35.84,10240,616.96,a,1,2.7496,,616.1421,616.3433,,,,,,,,41,-216,24,69,119,168,65,26,22,-176,-224,-121,-162,-21,-31,219,-212,123,-79,68,-68,-218,124,-18,73,180,270,360,360,90,360,180,90,90,270,180,,,,,,,,,,,616.3433,616.3434,,0,60,60,60,1,15,novel,,,,,,,,,,,,,,,,,,,,,,,,,,,,,,,,,,,,,,,,,,,,,,,,,
,,27,9,${e://Field/PROLIFIC_PID,F,18,2023-11-09_24h53.30.510,MouseEye_CC,2023.2.2,Win32,143.6988073,1.28,,,1536,864,47.623000000000005,4.52,"246.65, 240.09, 252.09, 282.29, 273.71, 274.34, 277.06",778.79,8.312625571,37.57306758,27.83653633,Passed,125.8697764,,,,,,,,,,,,,,,,,,,,,training,4,14,180,right,s,,,,,616.3436,616.6567,35.84,1.600036621,-1.600006104,1,0,0,0.3129,fixationPoint,616.6567,616.753,616.753,623.0923,35.84,10240,616.96,s,1,6.3326,,623.0924,623.2936,,,,,,,,61,-220,-72,28,72,26,22,168,22,-163,77,-120,115,-172,170,64,-167,25,-124,209,-115,-212,-20,-17,-64,90,270,90,270,270,360,90,270,360,90,270,,,,,,,,,,,623.2937,623.2937,,0,61,61,61,1,10,novel,,,,,,,,,,,,,,,,,,,,,,,,,,,,,,,,,,,,,,,,,,,,,,,,,
,,27,9,${e://Field/PROLIFIC_PID,F,18,2023-11-09_24h53.30.510,MouseEye_CC,2023.2.2,Win32,143.6988073,1.28,,,1536,864,47.623000000000005,4.52,"246.65, 240.09, 252.09, 282.29, 273.71, 274.34, 277.06",778.79,8.312625571,37.57306758,27.83653633,Passed,125.8697764,,,,,,,,,,,,,,,,,,,,,training,4,15,0,left,a,,,,,623.294,623.4186,35.84,1.600036621,-1.600006104,1,0,0,0.1246,fixationPoint,623.4187,623.5159,623.5159,633.3133,35.84,10240,616.96,a,1,9.7912,,633.3133,633.5145,,,,,,,,60,217,-32,122,124,220,72,127,173,-174,19,-218,124,-25,172,-160,-69,-176,-224,-211,-115,117,-172,165,-68,180,90,90,180,90,90,270,270,90,360,90,,,,,,,,,,,633.5145,633.5147,,0,62,62,62,1,7,repeated,,,,,,,,,,,,,,,,,,,,,,,,,,,,,,,,,,,,,,,,,,,,,,,,,
,,27,9,${e://Field/PROLIFIC_PID,F,18,2023-11-09_24h53.30.510,MouseEye_CC,2023.2.2,Win32,143.6988073,1.28,,,1536,864,47.623000000000005,4.52,"246.65, 240.09, 252.09, 282.29, 273.71, 274.34, 277.06",778.79,8.312625571,37.57306758,27.83653633,Passed,125.8697764,,,,,,,,,,,,,,,,,,,,,training,4,16,180,right,s,,,,,633.515,634.077,35.84,1.600036621,-1.600006104,1,0,0,0.5619,fixationPoint,634.077,634.1741,634.1741,635.8474,35.84,10240,616.96,s,1,1.6661,,635.8474,636.0487,,,,,,,,76,25,-124,26,22,17,210,222,117,-161,112,-163,77,-218,124,-120,-120,-211,-115,-212,-20,67,-221,79,-28,90,90,270,90,90,90,180,270,270,180,360,,,,,,,,,,,636.0487,638.3919,space,0,63,63,63,1,8,repeated,2.3308,,,,,,,,,,,,,,,,,,,,,,,,,,,,,,,,,,,,,,,,,,,,,,,,
,,27,9,${e://Field/PROLIFIC_PID,F,18,2023-11-09_24h53.30.510,MouseEye_CC,2023.2.2,Win32,143.6988073,1.28,,,1536,864,47.623000000000005,4.52,"246.65, 240.09, 252.09, 282.29, 273.71, 274.34, 277.06",778.79,8.312625571,37.57306758,27.83653633,Passed,125.8697764,,,,,,,,,,,,,,,,,,,,,training,5,1,0,left,a,,,,,638.3923,638.991,35.84,1.600036621,-1.600006104,1,0,0,0.5987,fixationPoint,638.9911,639.09,639.09,643.6642,35.84,10240,616.96,a,1,4.5626,,643.6643,643.8601,,,,,,,,60,217,-32,122,124,220,72,127,173,-174,19,-218,124,-25,172,-160,-69,-176,-224,-211,-115,117,-172,165,-68,270,270,90,90,180,360,180,270,180,90,90,,,,,,,,,,,643.8601,643.8642,,0,64,64,64,1,7,repeated,,,,,,,,,,,,,,,,,,,,,,,,,,,,,,,,,,,,,,,,,,,,,,,,,
,,27,9,${e://Field/PROLIFIC_PID,F,18,2023-11-09_24h53.30.510,MouseEye_CC,2023.2.2,Win32,143.6988073,1.28,,,1536,864,47.623000000000005,4.52,"246.65, 240.09, 252.09, 282.29, 273.71, 274.34, 277.06",778.79,8.312625571,37.57306758,27.83653633,Passed,125.8697764,,,,,,,,,,,,,,,,,,,,,training,5,2,180,right,s,,,,,643.8646,643.9574,35.84,1.600036621,-1.600006104,1,0,0,0.0927,fixationPoint,643.9574,644.0545,644.0546,647.1861,35.84,10240,616.96,s,1,3.1236,,647.1861,647.3875,,,,,,,,48,116,31,-66,176,-68,19,-77,71,-69,-122,-76,-17,-21,-118,160,-168,22,-26,121,-128,168,22,222,117,360,90,360,360,360,180,270,90,180,180,360,,,,,,,,,,,647.3875,647.3876,,0,65,65,65,1,1,repeated,,,,,,,,,,,,,,,,,,,,,,,,,,,,,,,,,,,,,,,,,,,,,,,,,
,,27,9,${e://Field/PROLIFIC_PID,F,18,2023-11-09_24h53.30.510,MouseEye_CC,2023.2.2,Win32,143.6988073,1.28,,,1536,864,47.623000000000005,4.52,"246.65, 240.09, 252.09, 282.29, 273.71, 274.34, 277.06",778.79,8.312625571,37.57306758,27.83653633,Passed,125.8697764,,,,,,,,,,,,,,,,,,,,,training,5,3,0,left,a,,,,,647.3878,647.5263,35.84,1.600036621,-1.600006104,1,0,0,0.1383,fixationPoint,647.5263,647.6234,647.6234,648.8455,35.84,10240,616.96,a,1,1.2143,,648.8455,649.0469,,,,,,,,58,113,-21,122,124,17,210,127,173,-113,176,-120,213,-169,222,-212,-20,-17,-64,-116,-80,162,-123,217,-32,360,90,270,360,360,90,360,180,270,270,180,,,,,,,,,,,649.047,649.047,,0,66,66,66,1,11,novel,,,,,,,,,,,,,,,,,,,,,,,,,,,,,,,,,,,,,,,,,,,,,,,,,
,,27,9,${e://Field/PROLIFIC_PID,F,18,2023-11-09_24h53.30.510,MouseEye_CC,2023.2.2,Win32,143.6988073,1.28,,,1536,864,47.623000000000005,4.52,"246.65, 240.09, 252.09, 282.29, 273.71, 274.34, 277.06",778.79,8.312625571,37.57306758,27.83653633,Passed,125.8697764,,,,,,,,,,,,,,,,,,,,,training,5,4,180,right,s,,,,,649.0473,649.2066,35.84,1.600036621,-1.600006104,1,0,0,0.1591,fixationPoint,649.2066,649.3038,649.3038,652.6991,35.84,10240,616.96,s,1,3.3876,,652.6992,652.9004,,,,,,,,98,112,-215,112,220,220,72,118,66,-77,71,-120,66,-169,222,-160,-69,-17,-64,-80,-208,79,-28,121,-128,270,360,360,360,270,180,90,270,360,90,360,,,,,,,,,,,652.9004,652.9006,,0,67,67,67,1,12,novel,,,,,,,,,,,,,,,,,,,,,,,,,,,,,,,,,,,,,,,,,,,,,,,,,
,,27,9,${e://Field/PROLIFIC_PID,F,18,2023-11-09_24h53.30.510,MouseEye_CC,2023.2.2,Win32,143.6988073,1.28,,,1536,864,47.623000000000005,4.52,"246.65, 240.09, 252.09, 282.29, 273.71, 274.34, 277.06",778.79,8.312625571,37.57306758,27.83653633,Passed,125.8697764,,,,,,,,,,,,,,,,,,,,,training,5,5,0,left,a,,,,,652.9008,653.199,35.84,1.600036621,-1.600006104,1,0,0,0.2982,fixationPoint,653.1991,653.2964,653.2964,655.8097,35.84,10240,616.96,a,1,2.5077,,655.8098,656.0091,,,,,,,,40,220,72,-25,172,-112,20,-120,213,-76,-17,-21,-118,-26,-222,121,-128,221,-162,219,-212,222,169,20,127,360,180,360,180,270,90,180,90,90,270,360,,,,,,,,,,,656.0091,656.0093,,0,68,68,68,1,2,repeated,,,,,,,,,,,,,,,,,,,,,,,,,,,,,,,,,,,,,,,,,,,,,,,,,
,,27,9,${e://Field/PROLIFIC_PID,F,18,2023-11-09_24h53.30.510,MouseEye_CC,2023.2.2,Win32,143.6988073,1.28,,,1536,864,47.623000000000005,4.52,"246.65, 240.09, 252.09, 282.29, 273.71, 274.34, 277.06",778.79,8.312625571,37.57306758,27.83653633,Passed,125.8697764,,,,,,,,,,,,,,,,,,,,,training,5,6,180,right,s,,,,,656.0094,656.1152,35.84,1.600036621,-1.600006104,1,0,0,0.1057,fixationPoint,656.1153,656.2124,656.2126,659.0184,35.84,10240,616.96,s,1,2.794,,659.0185,659.2192,,,,,,,,6,17,210,-28,120,-216,223,-218,124,-69,-122,-18,-172,-80,-208,79,-28,165,-68,123,-79,116,31,71,24,270,90,180,270,360,180,90,360,180,180,180,,,,,,,,,,,659.2192,659.2195,,0,69,69,69,1,14,novel,,,,,,,,,,,,,,,,,,,,,,,,,,,,,,,,,,,,,,,,,,,,,,,,,
,,27,9,${e://Field/PROLIFIC_PID,F,18,2023-11-09_24h53.30.510,MouseEye_CC,2023.2.2,Win32,143.6988073,1.28,,,1536,864,47.623000000000005,4.52,"246.65, 240.09, 252.09, 282.29, 273.71, 274.34, 277.06",778.79,8.312625571,37.57306758,27.83653633,Passed,125.8697764,,,,,,,,,,,,,,,,,,,,,training,5,7,180,right,s,,,,,659.2199,659.2976,35.84,1.600036621,-1.600006104,1,0,0,0.0775,fixationPoint,659.2977,659.3972,659.3973,669.5487,35.84,10240,616.96,s,1,10.1448,,669.5488,669.7453,,,,,,,,25,-28,120,116,31,222,117,224,210,-18,-172,-160,-69,-176,-224,165,-68,219,-212,123,-79,-18,73,-161,112,270,90,360,90,180,180,270,180,180,180,180,,,,,,,,,,,669.7453,669.7454,,0,70,70,70,1,16,novel,,,,,,,,,,,,,,,,,,,,,,,,,,,,,,,,,,,,,,,,,,,,,,,,,
,,27,9,${e://Field/PROLIFIC_PID,F,18,2023-11-09_24h53.30.510,MouseEye_CC,2023.2.2,Win32,143.6988073,1.28,,,1536,864,47.623000000000005,4.52,"246.65, 240.09, 252.09, 282.29, 273.71, 274.34, 277.06",778.79,8.312625571,37.57306758,27.83653633,Passed,125.8697764,,,,,,,,,,,,,,,,,,,,,training,5,8,0,left,a,,,,,669.7458,670.1133,35.84,1.600036621,-1.600006104,1,0,0,0.3675,fixationPoint,670.1134,670.2105,670.2105,672.6475,35.84,10240,616.96,a,1,2.4305,,672.6476,672.8489,,,,,,,,76,25,-124,26,22,17,210,222,117,-161,112,-163,77,-218,124,-120,-120,-211,-115,-212,-20,67,-221,79,-28,90,270,90,360,90,180,90,270,360,180,90,,,,,,,,,,,672.8489,672.8489,,0,71,71,71,1,8,repeated,,,,,,,,,,,,,,,,,,,,,,,,,,,,,,,,,,,,,,,,,,,,,,,,,
,,27,9,${e://Field/PROLIFIC_PID,F,18,2023-11-09_24h53.30.510,MouseEye_CC,2023.2.2,Win32,143.6988073,1.28,,,1536,864,47.623000000000005,4.52,"246.65, 240.09, 252.09, 282.29, 273.71, 274.34, 277.06",778.79,8.312625571,37.57306758,27.83653633,Passed,125.8697764,,,,,,,,,,,,,,,,,,,,,training,5,9,180,right,s,,,,,672.8492,672.9461,35.84,1.600036621,-1.600006104,1,0,0,0.0968,fixationPoint,672.9462,673.0434,673.0436,675.2861,35.84,10240,616.96,s,1,2.2361,,675.2861,675.4874,,,,,,,,53,-116,-24,26,22,224,31,224,210,-112,20,-218,124,-172,170,221,-162,121,-128,64,-167,-116,-80,-69,-122,90,180,180,360,180,180,90,180,180,180,90,,,,,,,,,,,675.4875,675.4876,,0,72,72,72,1,9,novel,,,,,,,,,,,,,,,,,,,,,,,,,,,,,,,,,,,,,,,,,,,,,,,,,
,,27,9,${e://Field/PROLIFIC_PID,F,18,2023-11-09_24h53.30.510,MouseEye_CC,2023.2.2,Win32,143.6988073,1.28,,,1536,864,47.623000000000005,4.52,"246.65, 240.09, 252.09, 282.29, 273.71, 274.34, 277.06",778.79,8.312625571,37.57306758,27.83653633,Passed,125.8697764,,,,,,,,,,,,,,,,,,,,,training,5,10,0,left,a,,,,,675.4878,675.6822,35.84,1.600036621,-1.600006104,1,0,0,0.1942,fixationPoint,675.6822,675.779,675.7791,681.9448,35.84,10240,616.96,a,1,6.1593,,681.9449,682.1461,,,,,,,,43,-112,20,28,72,224,31,26,161,-224,-220,-18,-172,-116,-24,25,-124,22,-26,113,-21,-172,170,-25,172,90,360,90,90,270,90,180,90,270,90,270,,,,,,,,,,,682.1462,682.1463,,0,73,73,73,1,3,repeated,,,,,,,,,,,,,,,,,,,,,,,,,,,,,,,,,,,,,,,,,,,,,,,,,
,,27,9,${e://Field/PROLIFIC_PID,F,18,2023-11-09_24h53.30.510,MouseEye_CC,2023.2.2,Win32,143.6988073,1.28,,,1536,864,47.623000000000005,4.52,"246.65, 240.09, 252.09, 282.29, 273.71, 274.34, 277.06",778.79,8.312625571,37.57306758,27.83653633,Passed,125.8697764,,,,,,,,,,,,,,,,,,,,,training,5,11,180,right,s,,,,,682.1465,683.0974,35.84,-109.5999756,0,1,0,0,0.1248,fixationPoint,683.0974,683.195,683.1951,685.972,35.84,10240,616.96,s,1,2.7698,,685.972,686.1733,,,,,,,,50,224,31,-66,176,-161,112,-24,224,-67,-77,-26,-222,-21,-118,167,-25,221,-74,22,-26,161,116,168,65,90,360,180,270,360,180,270,90,90,180,360,,,,,,,,,,,686.1733,686.1734,,0,74,74,74,1,13,novel,,,,,,,,,,,,,,,,,,,,,,,,,,,,,,,,,,,,,,,,,,,,,,,,,
,,27,9,${e://Field/PROLIFIC_PID,F,18,2023-11-09_24h53.30.510,MouseEye_CC,2023.2.2,Win32,143.6988073,1.28,,,1536,864,47.623000000000005,4.52,"246.65, 240.09, 252.09, 282.29, 273.71, 274.34, 277.06",778.79,8.312625571,37.57306758,27.83653633,Passed,125.8697764,,,,,,,,,,,,,,,,,,,,,training,5,12,0,left,a,,,,,686.1737,687.0625,35.84,-4,19.19998169,1,0,0,0.1037,fixationPoint,687.0625,687.16,687.1601,689.4024,35.84,10240,616.96,a,1,2.2362,,689.4025,689.6034,,,,,,,,51,-212,-20,26,22,222,169,122,124,-71,215,-216,223,-163,77,67,-221,167,-25,165,-68,-172,-175,-116,-80,360,360,180,90,180,360,180,360,270,270,90,,,,,,,,,,,689.6035,689.6036,,0,75,75,75,1,5,repeated,,,,,,,,,,,,,,,,,,,,,,,,,,,,,,,,,,,,,,,,,,,,,,,,,
,,27,9,${e://Field/PROLIFIC_PID,F,18,2023-11-09_24h53.30.510,MouseEye_CC,2023.2.2,Win32,143.6988073,1.28,,,1536,864,47.623000000000005,4.52,"246.65, 240.09, 252.09, 282.29, 273.71, 274.34, 277.06",778.79,8.312625571,37.57306758,27.83653633,Passed,125.8697764,,,,,,,,,,,,,,,,,,,,,training,5,13,180,right,s,,,,,689.6038,689.7216,35.84,-1.599975586,-8,1,0,0,0.1177,fixationPoint,689.7216,689.8186,689.8186,692.0127,35.84,10240,616.96,s,1,2.1875,,692.0127,692.2141,,,,,,,,95,-26,-222,69,168,26,161,66,213,-25,172,-174,19,-163,77,121,-128,123,-79,117,-172,-68,-165,-160,-69,180,360,90,180,90,90,360,90,90,90,180,,,,,,,,,,,692.2142,692.2143,,0,76,76,76,1,6,repeated,,,,,,,,,,,,,,,,,,,,,,,,,,,,,,,,,,,,,,,,,,,,,,,,,
,,27,9,${e://Field/PROLIFIC_PID,F,18,2023-11-09_24h53.30.510,MouseEye_CC,2023.2.2,Win32,143.6988073,1.28,,,1536,864,47.623000000000005,4.52,"246.65, 240.09, 252.09, 282.29, 273.71, 274.34, 277.06",778.79,8.312625571,37.57306758,27.83653633,Passed,125.8697764,,,,,,,,,,,,,,,,,,,,,training,5,14,180,right,s,,,,,692.2146,692.3673,35.84,-1.599975586,-8,1,0,0,0.1526,fixationPoint,692.3673,692.4641,692.4641,694.1861,35.84,10240,616.96,s,1,1.7144,,694.1861,694.3874,,,,,,,,41,-216,24,161,116,161,160,224,210,-67,-77,-26,-222,-220,-166,22,-26,64,-167,160,-168,-218,124,-161,112,180,180,360,270,360,180,180,360,90,360,180,,,,,,,,,,,694.3874,694.3875,,0,77,77,77,1,15,novel,,,,,,,,,,,,,,,,,,,,,,,,,,,,,,,,,,,,,,,,,,,,,,,,,
,,27,9,${e://Field/PROLIFIC_PID,F,18,2023-11-09_24h53.30.510,MouseEye_CC,2023.2.2,Win32,143.6988073,1.28,,,1536,864,47.623000000000005,4.52,"246.65, 240.09, 252.09, 282.29, 273.71, 274.34, 277.06",778.79,8.312625571,37.57306758,27.83653633,Passed,125.8697764,,,,,,,,,,,,,,,,,,,,,training,5,15,0,left,a,,,,,694.3878,694.5262,35.84,-1.599975586,-8,1,0,0,0.1384,fixationPoint,694.5263,694.6234,694.6234,697.3661,35.84,10240,616.96,a,1,2.7356,,697.3661,697.5678,,,,,,,,61,-220,-72,122,124,66,213,222,117,-24,224,-66,176,-71,215,28,-68,21,-169,113,-21,-67,-77,-18,-172,360,270,180,270,360,90,360,180,90,90,360,,,,,,,,,,,697.5678,697.5679,,0,78,78,78,1,10,novel,,,,,,,,,,,,,,,,,,,,,,,,,,,,,,,,,,,,,,,,,,,,,,,,,
,,27,9,${e://Field/PROLIFIC_PID,F,18,2023-11-09_24h53.30.510,MouseEye_CC,2023.2.2,Win32,143.6988073,1.28,,,1536,864,47.623000000000005,4.52,"246.65, 240.09, 252.09, 282.29, 273.71, 274.34, 277.06",778.79,8.312625571,37.57306758,27.83653633,Passed,125.8697764,,,,,,,,,,,,,,,,,,,,,training,5,16,0,left,a,,,,,697.5682,697.7137,35.84,-1.599975586,-8,1,0,0,0.1454,fixationPoint,697.7137,697.8105,697.8105,699.6367,35.84,10240,616.96,a,1,1.819,,699.6367,699.838,,,,,,,,3,-120,213,220,72,122,124,66,213,-120,-120,-116,-224,-21,-118,219,-212,217,-32,79,-28,-30,26,-216,24,270,360,180,90,270,180,270,90,270,270,360,,,,,,,,,,,699.838,703.2333,space,0,79,79,79,1,4,repeated,3.3835,,,,,,,,,,,,,,,,,,,,,,,,,,,,,,,,,,,,,,,,,,,,,,,,
,,27,9,${e://Field/PROLIFIC_PID,F,18,2023-11-09_24h53.30.510,MouseEye_CC,2023.2.2,Win32,143.6988073,1.28,,,1536,864,47.623000000000005,4.52,"246.65, 240.09, 252.09, 282.29, 273.71, 274.34, 277.06",778.79,8.312625571,37.57306758,27.83653633,Passed,125.8697764,,,,,,,,,,,,,,,,,,,,,training,6,1,180,right,s,,,,,703.2336,703.7403,35.84,-1.599975586,-8,1,0,0,0.5065,fixationPoint,703.7403,703.8374,703.8374,705.095,35.84,10240,616.96,s,1,1.2506,,705.0951,705.2955,,,,,,,,53,-116,-24,168,22,168,65,220,72,-120,66,-161,112,-216,24,113,-21,162,-123,160,-168,-116,-224,-212,-20,90,360,360,90,180,360,270,90,270,180,270,,,,,,,,,,,705.2955,705.3,,0,80,80,80,1,9,novel,,,,,,,,,,,,,,,,,,,,,,,,,,,,,,,,,,,,,,,,,,,,,,,,,
,,27,9,${e://Field/PROLIFIC_PID,F,18,2023-11-09_24h53.30.510,MouseEye_CC,2023.2.2,Win32,143.6988073,1.28,,,1536,864,47.623000000000005,4.52,"246.65, 240.09, 252.09, 282.29, 273.71, 274.34, 277.06",778.79,8.312625571,37.57306758,27.83653633,Passed,125.8697764,,,,,,,,,,,,,,,,,,,,,training,6,2,0,left,a,,,,,705.3002,705.5108,35.84,-1.599975586,-8,1,0,0,0.2104,fixationPoint,705.5108,705.6079,705.608,707.6563,35.84,10240,616.96,a,1,2.0417,,707.6563,707.8577,,,,,,,,40,220,72,-25,172,-112,20,-120,213,-76,-17,-21,-118,-26,-222,121,-128,221,-162,219,-212,222,169,20,127,90,360,270,180,360,360,180,270,90,180,180,,,,,,,,,,,707.8577,707.8579,,0,81,81,81,1,2,repeated,,,,,,,,,,,,,,,,,,,,,,,,,,,,,,,,,,,,,,,,,,,,,,,,,
,,27,9,${e://Field/PROLIFIC_PID,F,18,2023-11-09_24h53.30.510,MouseEye_CC,2023.2.2,Win32,143.6988073,1.28,,,1536,864,47.623000000000005,4.52,"246.65, 240.09, 252.09, 282.29, 273.71, 274.34, 277.06",778.79,8.312625571,37.57306758,27.83653633,Passed,125.8697764,,,,,,,,,,,,,,,,,,,,,training,6,3,180,right,s,,,,,707.8581,708.059,35.84,-1.599975586,-8,1,0,0,0.2008,fixationPoint,708.0591,708.1561,708.1562,712.3848,35.84,10240,616.96,s,1,4.2212,,712.3849,712.5861,,,,,,,,98,112,-215,224,210,222,117,66,213,-25,172,-71,215,-172,170,-211,-115,-21,-118,-80,-208,26,-219,121,-128,180,90,180,90,180,270,180,360,360,360,360,,,,,,,,,,,712.5861,712.5863,,0,82,82,82,1,12,novel,,,,,,,,,,,,,,,,,,,,,,,,,,,,,,,,,,,,,,,,,,,,,,,,,
,,27,9,${e://Field/PROLIFIC_PID,F,18,2023-11-09_24h53.30.510,MouseEye_CC,2023.2.2,Win32,143.6988073,1.28,,,1536,864,47.623000000000005,4.52,"246.65, 240.09, 252.09, 282.29, 273.71, 274.34, 277.06",778.79,8.312625571,37.57306758,27.83653633,Passed,125.8697764,,,,,,,,,,,,,,,,,,,,,training,6,4,180,right,s,,,,,712.5865,712.6625,35.84,-1.599975586,-8,1,0,0,0.0759,fixationPoint,712.6626,712.76,712.76,717.4604,35.84,10240,616.96,s,1,4.6936,,717.4604,717.6618,,,,,,,,48,116,31,-66,176,-68,19,-77,71,-69,-122,-76,-17,-21,-118,160,-168,22,-26,121,-128,168,22,222,117,360,90,180,270,180,90,360,180,180,360,270,,,,,,,,,,,717.6618,717.6619,,0,83,83,83,1,1,repeated,,,,,,,,,,,,,,,,,,,,,,,,,,,,,,,,,,,,,,,,,,,,,,,,,
,,27,9,${e://Field/PROLIFIC_PID,F,18,2023-11-09_24h53.30.510,MouseEye_CC,2023.2.2,Win32,143.6988073,1.28,,,1536,864,47.623000000000005,4.52,"246.65, 240.09, 252.09, 282.29, 273.71, 274.34, 277.06",778.79,8.312625571,37.57306758,27.83653633,Passed,125.8697764,,,,,,,,,,,,,,,,,,,,,training,6,5,0,left,a,,,,,717.662,717.752,35.84,-1.599975586,-8,1,0,0,0.0899,fixationPoint,717.7521,717.8494,717.8494,720.3906,35.84,10240,616.96,a,1,2.5341,,720.3907,720.5919,,,,,,,,61,-220,-72,116,31,67,77,28,72,-161,112,-30,26,-120,115,21,-169,113,-21,217,-32,-26,-222,-68,-165,180,90,90,360,180,90,90,180,180,360,90,,,,,,,,,,,720.592,720.592,,0,84,84,84,1,10,novel,,,,,,,,,,,,,,,,,,,,,,,,,,,,,,,,,,,,,,,,,,,,,,,,,
,,27,9,${e://Field/PROLIFIC_PID,F,18,2023-11-09_24h53.30.510,MouseEye_CC,2023.2.2,Win32,143.6988073,1.28,,,1536,864,47.623000000000005,4.52,"246.65, 240.09, 252.09, 282.29, 273.71, 274.34, 277.06",778.79,8.312625571,37.57306758,27.83653633,Passed,125.8697764,,,,,,,,,,,,,,,,,,,,,training,6,6,180,right,s,,,,,720.5924,720.703,35.84,-1.599975586,-8,1,0,0,0.1105,fixationPoint,720.7031,720.8002,720.8003,721.7949,35.84,10240,616.96,s,1,0.9878,,721.795,721.9945,,,,,,,,58,113,-21,161,160,71,24,69,168,-28,120,-24,224,-163,77,-176,-224,-116,-24,-172,-175,217,-32,21,-169,360,270,360,180,90,360,90,270,270,270,360,,,,,,,,,,,721.9945,721.9946,,0,85,85,85,1,11,novel,,,,,,,,,,,,,,,,,,,,,,,,,,,,,,,,,,,,,,,,,,,,,,,,,
,,27,9,${e://Field/PROLIFIC_PID,F,18,2023-11-09_24h53.30.510,MouseEye_CC,2023.2.2,Win32,143.6988073,1.28,,,1536,864,47.623000000000005,4.52,"246.65, 240.09, 252.09, 282.29, 273.71, 274.34, 277.06",778.79,8.312625571,37.57306758,27.83653633,Passed,125.8697764,,,,,,,,,,,,,,,,,,,,,training,6,7,180,right,s,,,,,721.995,722.1125,35.84,-1.599975586,-8,1,0,0,0.1174,fixationPoint,722.1125,722.2098,722.2098,728.702,35.84,10240,616.96,s,1,6.4857,,728.7021,728.9031,,,,,,,,41,-216,24,116,31,168,22,224,210,-120,-120,-121,-162,-220,-72,112,-215,209,-115,219,-212,-208,74,-120,213,180,90,270,270,180,270,180,90,270,180,360,,,,,,,,,,,728.9031,728.9032,,0,86,86,86,1,15,novel,,,,,,,,,,,,,,,,,,,,,,,,,,,,,,,,,,,,,,,,,,,,,,,,,
,,27,9,${e://Field/PROLIFIC_PID,F,18,2023-11-09_24h53.30.510,MouseEye_CC,2023.2.2,Win32,143.6988073,1.28,,,1536,864,47.623000000000005,4.52,"246.65, 240.09, 252.09, 282.29, 273.71, 274.34, 277.06",778.79,8.312625571,37.57306758,27.83653633,Passed,125.8697764,,,,,,,,,,,,,,,,,,,,,training,6,8,0,left,a,,,,,728.9035,728.9379,35.84,-1.599975586,-8,1,0,0,0.0344,fixationPoint,728.9379,729.0351,729.0352,735.6175,35.84,10240,616.96,a,1,6.5755,,735.6176,735.8188,,,,,,,,43,-112,20,28,72,224,31,26,161,-224,-220,-18,-172,-116,-24,25,-124,22,-26,113,-21,-172,170,-25,172,270,90,270,270,180,360,270,360,270,180,360,,,,,,,,,,,735.8188,735.8189,,0,87,87,87,1,3,repeated,,,,,,,,,,,,,,,,,,,,,,,,,,,,,,,,,,,,,,,,,,,,,,,,,
,,27,9,${e://Field/PROLIFIC_PID,F,18,2023-11-09_24h53.30.510,MouseEye_CC,2023.2.2,Win32,143.6988073,1.28,,,1536,864,47.623000000000005,4.52,"246.65, 240.09, 252.09, 282.29, 273.71, 274.34, 277.06",778.79,8.312625571,37.57306758,27.83653633,Passed,125.8697764,,,,,,,,,,,,,,,,,,,,,training,6,9,0,left,a,,,,,735.8191,735.9718,35.84,-1.599975586,-8,1,0,0,0.1525,fixationPoint,735.9719,736.069,736.069,741.811,35.84,10240,616.96,a,1,5.7355,,741.811,742.0123,,,,,,,,25,-28,120,222,117,26,161,224,31,-116,-224,-121,-162,-26,-222,165,-68,68,-68,160,-220,-66,176,-25,172,270,90,180,270,360,360,270,180,180,180,270,,,,,,,,,,,742.0123,742.0125,,0,88,88,88,1,16,novel,,,,,,,,,,,,,,,,,,,,,,,,,,,,,,,,,,,,,,,,,,,,,,,,,
,,27,9,${e://Field/PROLIFIC_PID,F,18,2023-11-09_24h53.30.510,MouseEye_CC,2023.2.2,Win32,143.6988073,1.28,,,1536,864,47.623000000000005,4.52,"246.65, 240.09, 252.09, 282.29, 273.71, 274.34, 277.06",778.79,8.312625571,37.57306758,27.83653633,Passed,125.8697764,,,,,,,,,,,,,,,,,,,,,training,6,10,180,right,s,,,,,742.0126,742.1582,35.84,-1.599975586,-8,1,0,0,0.1454,fixationPoint,742.1583,742.2554,742.2554,745.13,35.84,10240,616.96,s,1,2.867,,745.1301,745.3314,,,,,,,,76,25,-124,26,22,17,210,222,117,-161,112,-163,77,-218,124,-120,-120,-211,-115,-212,-20,67,-221,79,-28,180,270,360,90,90,360,360,90,270,270,180,,,,,,,,,,,745.3314,745.3316,,0,89,89,89,1,8,repeated,,,,,,,,,,,,,,,,,,,,,,,,,,,,,,,,,,,,,,,,,,,,,,,,,
,,27,9,${e://Field/PROLIFIC_PID,F,18,2023-11-09_24h53.30.510,MouseEye_CC,2023.2.2,Win32,143.6988073,1.28,,,1536,864,47.623000000000005,4.52,"246.65, 240.09, 252.09, 282.29, 273.71, 274.34, 277.06",778.79,8.312625571,37.57306758,27.83653633,Passed,125.8697764,,,,,,,,,,,,,,,,,,,,,training,6,11,180,right,s,,,,,745.3318,745.4494,35.84,-1.599975586,-8,1,0,0,0.1174,fixationPoint,745.4495,745.5466,745.5466,747.4494,35.84,10240,616.96,s,1,1.8966,,747.4494,747.6505,,,,,,,,3,-120,213,220,72,122,124,66,213,-120,-120,-116,-224,-21,-118,219,-212,217,-32,79,-28,-30,26,-216,24,360,180,360,90,180,180,360,360,180,90,360,,,,,,,,,,,747.6505,747.6506,,0,90,90,90,1,4,repeated,,,,,,,,,,,,,,,,,,,,,,,,,,,,,,,,,,,,,,,,,,,,,,,,,
,,27,9,${e://Field/PROLIFIC_PID,F,18,2023-11-09_24h53.30.510,MouseEye_CC,2023.2.2,Win32,143.6988073,1.28,,,1536,864,47.623000000000005,4.52,"246.65, 240.09, 252.09, 282.29, 273.71, 274.34, 277.06",778.79,8.312625571,37.57306758,27.83653633,Passed,125.8697764,,,,,,,,,,,,,,,,,,,,,training,6,12,180,right,s,,,,,747.6508,747.8033,35.84,-1.599975586,-8,1,0,0,0.1523,fixationPoint,747.8033,747.9004,747.9004,749.796,35.84,10240,616.96,s,1,1.8884,,749.7961,749.9973,,,,,,,,51,-212,-20,26,22,222,169,122,124,-71,215,-216,223,-163,77,67,-221,167,-25,165,-68,-172,-175,-116,-80,180,180,90,270,180,90,270,90,180,180,90,,,,,,,,,,,749.9973,749.9975,,0,91,91,91,1,5,repeated,,,,,,,,,,,,,,,,,,,,,,,,,,,,,,,,,,,,,,,,,,,,,,,,,
,,27,9,${e://Field/PROLIFIC_PID,F,18,2023-11-09_24h53.30.510,MouseEye_CC,2023.2.2,Win32,143.6988073,1.28,,,1536,864,47.623000000000005,4.52,"246.65, 240.09, 252.09, 282.29, 273.71, 274.34, 277.06",778.79,8.312625571,37.57306758,27.83653633,Passed,125.8697764,,,,,,,,,,,,,,,,,,,,,training,6,13,0,left,a,,,,,749.9977,750.1155,35.84,-1.599975586,-8,1,0,0,0.1176,fixationPoint,750.1155,750.2126,750.2126,757.156,35.84,10240,616.96,a,1,6.9367,,757.1561,757.3573,,,,,,,,6,17,210,-24,224,-76,121,-28,120,-68,-165,-116,-80,-220,-166,209,-115,112,-215,25,-124,112,220,69,119,90,90,360,90,90,270,270,90,90,90,360,,,,,,,,,,,757.3573,757.3574,,0,92,92,92,1,14,novel,,,,,,,,,,,,,,,,,,,,,,,,,,,,,,,,,,,,,,,,,,,,,,,,,
,,27,9,${e://Field/PROLIFIC_PID,F,18,2023-11-09_24h53.30.510,MouseEye_CC,2023.2.2,Win32,143.6988073,1.28,,,1536,864,47.623000000000005,4.52,"246.65, 240.09, 252.09, 282.29, 273.71, 274.34, 277.06",778.79,8.312625571,37.57306758,27.83653633,Passed,125.8697764,,,,,,,,,,,,,,,,,,,,,training,6,14,0,left,a,,,,,757.3577,757.6913,35.84,-1.599975586,-8,1,0,0,0.3334,fixationPoint,757.6913,757.7878,757.7878,759.1905,35.84,10240,616.96,a,1,1.3967,,759.1905,759.3917,,,,,,,,60,217,-32,122,124,220,72,127,173,-174,19,-218,124,-25,172,-160,-69,-176,-224,-211,-115,117,-172,165,-68,180,180,270,360,90,360,90,270,360,270,270,,,,,,,,,,,759.3917,759.3918,,0,93,93,93,1,7,repeated,,,,,,,,,,,,,,,,,,,,,,,,,,,,,,,,,,,,,,,,,,,,,,,,,
,,27,9,${e://Field/PROLIFIC_PID,F,18,2023-11-09_24h53.30.510,MouseEye_CC,2023.2.2,Win32,143.6988073,1.28,,,1536,864,47.623000000000005,4.52,"246.65, 240.09, 252.09, 282.29, 273.71, 274.34, 277.06",778.79,8.312625571,37.57306758,27.83653633,Passed,125.8697764,,,,,,,,,,,,,,,,,,,,,training,6,15,0,left,a,,,,,759.3921,759.5167,35.84,-1.599975586,-8,1,0,0,0.1246,fixationPoint,759.5167,759.614,759.614,761.4055,35.84,10240,616.96,a,1,1.7844,,761.4055,761.6067,,,,,,,,50,224,31,-218,124,-216,223,-30,26,-166,-20,-21,-31,-116,-80,162,-123,25,-124,217,-32,26,161,161,160,90,90,90,270,270,90,360,180,360,180,90,,,,,,,,,,,761.6067,761.6069,,0,94,94,94,1,13,novel,,,,,,,,,,,,,,,,,,,,,,,,,,,,,,,,,,,,,,,,,,,,,,,,,
,,27,9,${e://Field/PROLIFIC_PID,F,18,2023-11-09_24h53.30.510,MouseEye_CC,2023.2.2,Win32,143.6988073,1.28,,,1536,864,47.623000000000005,4.52,"246.65, 240.09, 252.09, 282.29, 273.71, 274.34, 277.06",778.79,8.312625571,37.57306758,27.83653633,Passed,125.8697764,,,,,,,,,,,,,,,,,,,,,training,6,16,0,left,a,,,,,761.6071,761.7318,35.84,-1.599975586,-8,1,0,0,0.1245,fixationPoint,761.7318,761.829,761.829,764.5369,35.84,10240,616.96,a,1,2.7012,,764.5369,764.7382,,,,,,,,95,-26,-222,69,168,26,161,66,213,-25,172,-174,19,-163,77,121,-128,123,-79,117,-172,-68,-165,-160,-69,90,90,360,90,360,180,360,360,360,180,270,,,,,,,,,,,764.7382,766.842,space,0,95,95,95,1,6,repeated,2.0921,,,,,,,,,,,,,,,,,,,,,,,,,,,,,,,,,,,,,,,,,,,,,,,,
,,27,9,${e://Field/PROLIFIC_PID,F,18,2023-11-09_24h53.30.510,MouseEye_CC,2023.2.2,Win32,143.6988073,1.28,,,1536,864,47.623000000000005,4.52,"246.65, 240.09, 252.09, 282.29, 273.71, 274.34, 277.06",778.79,8.312625571,37.57306758,27.83653633,Passed,125.8697764,,,,,,,,,,,,,,,,,,,,,training,7,1,180,right,s,,,,,766.8422,767.3488,35.84,-1.599975586,-8,1,0,0,0.5065,fixationPoint,767.3489,767.4461,767.4461,770.0637,35.84,10240,616.96,s,1,2.611,,770.0637,770.2653,,,,,,,,58,113,-21,118,66,168,22,161,160,-25,172,-66,176,-28,120,-18,-172,-21,-118,-212,-20,221,-162,167,-25,360,180,270,360,90,270,90,360,270,360,360,,,,,,,,,,,770.2653,770.2701,,0,96,96,96,1,11,novel,,,,,,,,,,,,,,,,,,,,,,,,,,,,,,,,,,,,,,,,,,,,,,,,,
,,27,9,${e://Field/PROLIFIC_PID,F,18,2023-11-09_24h53.30.510,MouseEye_CC,2023.2.2,Win32,143.6988073,1.28,,,1536,864,47.623000000000005,4.52,"246.65, 240.09, 252.09, 282.29, 273.71, 274.34, 277.06",778.79,8.312625571,37.57306758,27.83653633,Passed,125.8697764,,,,,,,,,,,,,,,,,,,,,training,7,2,180,right,s,,,,,770.2702,770.2819,35.84,-1.599975586,-8,1,0,0,0.0116,fixationPoint,770.282,770.3832,770.3832,773.1677,35.84,10240,616.96,s,1,2.7783,,773.1677,773.3688,,,,,,,,98,112,-215,161,160,28,72,118,66,-216,24,-120,115,-24,224,-17,-64,-116,-224,-69,-122,25,-124,21,-169,270,270,270,270,360,90,360,180,180,270,360,,,,,,,,,,,773.3688,773.369,,0,97,97,97,1,12,novel,,,,,,,,,,,,,,,,,,,,,,,,,,,,,,,,,,,,,,,,,,,,,,,,,
,,27,9,${e://Field/PROLIFIC_PID,F,18,2023-11-09_24h53.30.510,MouseEye_CC,2023.2.2,Win32,143.6988073,1.28,,,1536,864,47.623000000000005,4.52,"246.65, 240.09, 252.09, 282.29, 273.71, 274.34, 277.06",778.79,8.312625571,37.57306758,27.83653633,Passed,125.8697764,,,,,,,,,,,,,,,,,,,,,training,7,3,180,right,s,,,,,773.3692,773.4871,35.84,-1.599975586,-8,1,0,0,0.1178,fixationPoint,773.4871,773.584,773.584,775.9518,35.84,10240,616.96,s,1,2.3611,,775.9519,776.1532,,,,,,,,51,-212,-20,26,22,222,169,122,124,-71,215,-216,223,-163,77,67,-221,167,-25,165,-68,-172,-175,-116,-80,360,90,360,270,360,180,270,360,270,180,180,,,,,,,,,,,776.1532,776.1533,,0,98,98,98,1,5,repeated,,,,,,,,,,,,,,,,,,,,,,,,,,,,,,,,,,,,,,,,,,,,,,,,,
,,27,9,${e://Field/PROLIFIC_PID,F,18,2023-11-09_24h53.30.510,MouseEye_CC,2023.2.2,Win32,143.6988073,1.28,,,1536,864,47.623000000000005,4.52,"246.65, 240.09, 252.09, 282.29, 273.71, 274.34, 277.06",778.79,8.312625571,37.57306758,27.83653633,Passed,125.8697764,,,,,,,,,,,,,,,,,,,,,training,7,4,0,left,a,,,,,776.1537,776.2297,35.84,-1.599975586,-8,1,0,0,0.0759,fixationPoint,776.2297,776.3267,776.3268,779.1182,35.84,10240,616.96,a,1,2.785,,779.1182,779.3193,,,,,,,,41,-216,24,168,22,168,65,69,168,-211,-115,-212,-20,-17,-64,21,-169,28,-68,117,-172,-120,213,-172,170,180,270,360,270,180,360,360,90,180,360,90,,,,,,,,,,,779.3194,779.3194,,0,99,99,99,1,15,novel,,,,,,,,,,,,,,,,,,,,,,,,,,,,,,,,,,,,,,,,,,,,,,,,,
,,27,9,${e://Field/PROLIFIC_PID,F,18,2023-11-09_24h53.30.510,MouseEye_CC,2023.2.2,Win32,143.6988073,1.28,,,1536,864,47.623000000000005,4.52,"246.65, 240.09, 252.09, 282.29, 273.71, 274.34, 277.06",778.79,8.312625571,37.57306758,27.83653633,Passed,125.8697764,,,,,,,,,,,,,,,,,,,,,training,7,5,0,left,a,,,,,779.3197,779.4236,35.84,-1.599975586,-8,1,0,0,0.1038,fixationPoint,779.4236,779.5207,779.5207,781.6385,35.84,10240,616.96,a,1,2.111,,781.6385,781.8398,,,,,,,,53,-116,-24,222,117,67,77,168,22,-163,77,-112,20,-120,115,167,-25,25,-124,64,-167,-220,-166,-116,-224,360,90,180,360,180,360,360,360,180,360,180,,,,,,,,,,,781.8399,781.84,,0,100,100,100,1,9,novel,,,,,,,,,,,,,,,,,,,,,,,,,,,,,,,,,,,,,,,,,,,,,,,,,
,,27,9,${e://Field/PROLIFIC_PID,F,18,2023-11-09_24h53.30.510,MouseEye_CC,2023.2.2,Win32,143.6988073,1.28,,,1536,864,47.623000000000005,4.52,"246.65, 240.09, 252.09, 282.29, 273.71, 274.34, 277.06",778.79,8.312625571,37.57306758,27.83653633,Passed,125.8697764,,,,,,,,,,,,,,,,,,,,,training,7,6,0,left,a,,,,,781.8402,781.9509,35.84,-1.599975586,-8,1,0,0,0.1107,fixationPoint,781.951,782.0481,782.0481,784.1033,35.84,10240,616.96,a,1,2.0476,,784.1034,784.3047,,,,,,,,61,-220,-72,161,160,127,173,20,127,-174,19,-24,224,-172,170,112,-215,221,-162,123,-79,-176,-224,-18,-172,180,360,180,90,180,270,90,180,90,360,360,,,,,,,,,,,784.3047,784.3049,,0,101,101,101,1,10,novel,,,,,,,,,,,,,,,,,,,,,,,,,,,,,,,,,,,,,,,,,,,,,,,,,
,,27,9,${e://Field/PROLIFIC_PID,F,18,2023-11-09_24h53.30.510,MouseEye_CC,2023.2.2,Win32,143.6988073,1.28,,,1536,864,47.623000000000005,4.52,"246.65, 240.09, 252.09, 282.29, 273.71, 274.34, 277.06",778.79,8.312625571,37.57306758,27.83653633,Passed,125.8697764,,,,,,,,,,,,,,,,,,,,,training,7,7,180,right,s,,,,,784.3051,784.4507,35.84,-1.599975586,-8,1,0,0,0.1456,fixationPoint,784.4507,784.5479,784.5479,786.5544,35.84,10240,616.96,s,1,2.0003,,786.5544,786.7558,,,,,,,,3,-120,213,220,72,122,124,66,213,-120,-120,-116,-224,-21,-118,219,-212,217,-32,79,-28,-30,26,-216,24,360,90,180,270,360,270,270,270,270,270,360,,,,,,,,,,,786.7559,786.7559,,0,102,102,102,1,4,repeated,,,,,,,,,,,,,,,,,,,,,,,,,,,,,,,,,,,,,,,,,,,,,,,,,
,,27,9,${e://Field/PROLIFIC_PID,F,18,2023-11-09_24h53.30.510,MouseEye_CC,2023.2.2,Win32,143.6988073,1.28,,,1536,864,47.623000000000005,4.52,"246.65, 240.09, 252.09, 282.29, 273.71, 274.34, 277.06",778.79,8.312625571,37.57306758,27.83653633,Passed,125.8697764,,,,,,,,,,,,,,,,,,,,,training,7,8,180,right,s,,,,,786.7562,786.9919,35.84,-1.599975586,-8,1,0,0,0.2356,fixationPoint,786.9919,787.0891,787.0891,788.1097,35.84,10240,616.96,s,1,1.0133,,788.1098,788.3111,,,,,,,,60,217,-32,122,124,220,72,127,173,-174,19,-218,124,-25,172,-160,-69,-176,-224,-211,-115,117,-172,165,-68,360,360,270,360,180,270,270,180,360,180,270,,,,,,,,,,,788.3111,788.3111,,0,103,103,103,1,7,repeated,,,,,,,,,,,,,,,,,,,,,,,,,,,,,,,,,,,,,,,,,,,,,,,,,
,,27,9,${e://Field/PROLIFIC_PID,F,18,2023-11-09_24h53.30.510,MouseEye_CC,2023.2.2,Win32,143.6988073,1.28,,,1536,864,47.623000000000005,4.52,"246.65, 240.09, 252.09, 282.29, 273.71, 274.34, 277.06",778.79,8.312625571,37.57306758,27.83653633,Passed,125.8697764,,,,,,,,,,,,,,,,,,,,,training,7,9,180,right,s,,,,,788.3113,788.4569,35.84,-1.599975586,-8,1,0,0,0.1455,fixationPoint,788.457,788.5542,788.5542,789.6026,35.84,10240,616.96,s,1,1.0414,,789.6026,789.8039,,,,,,,,50,224,31,-208,74,-24,224,-113,176,-170,-114,-172,-175,-68,-165,25,-124,22,-26,113,-21,26,22,127,173,270,270,270,270,270,270,360,270,270,360,270,,,,,,,,,,,789.8039,789.804,,0,104,104,104,1,13,novel,,,,,,,,,,,,,,,,,,,,,,,,,,,,,,,,,,,,,,,,,,,,,,,,,
,,27,9,${e://Field/PROLIFIC_PID,F,18,2023-11-09_24h53.30.510,MouseEye_CC,2023.2.2,Win32,143.6988073,1.28,,,1536,864,47.623000000000005,4.52,"246.65, 240.09, 252.09, 282.29, 273.71, 274.34, 277.06",778.79,8.312625571,37.57306758,27.83653633,Passed,125.8697764,,,,,,,,,,,,,,,,,,,,,training,7,10,0,left,a,,,,,789.8042,789.9845,35.84,-1.599975586,-8,1,0,0,0.1802,fixationPoint,789.9845,790.0822,790.0822,798.1431,35.84,10240,616.96,s,0,8.0534,,798.1432,802.1403,,,,,,,,25,-28,120,26,161,220,72,222,169,-68,-165,-69,-122,-116,-224,221,-162,22,-26,221,-74,-68,19,-216,223,270,90,270,360,90,90,360,270,360,180,90,,,,,,,,,,,802.1404,802.1405,,0,105,105,105,1,16,novel,,,,,,,,,,,,,,,,,,,,,,,,,,,,,,,,,,,,,,,,,,,,,,,,,
,,27,9,${e://Field/PROLIFIC_PID,F,18,2023-11-09_24h53.30.510,MouseEye_CC,2023.2.2,Win32,143.6988073,1.28,,,1536,864,47.623000000000005,4.52,"246.65, 240.09, 252.09, 282.29, 273.71, 274.34, 277.06",778.79,8.312625571,37.57306758,27.83653633,Passed,125.8697764,,,,,,,,,,,,,,,,,,,,,training,7,11,0,left,a,,,,,802.1407,802.6147,35.84,-2.399963379,-9.600006104,1,0,0,0.4738,fixationPoint,802.6148,802.7097,802.7097,805.2254,35.84,10240,616.96,a,1,2.5071,,805.2255,805.4266,,,,,,,,40,220,72,-25,172,-112,20,-120,213,-76,-17,-21,-118,-26,-222,121,-128,221,-162,219,-212,222,169,20,127,360,270,180,180,90,180,180,90,270,270,270,,,,,,,,,,,805.4267,805.4267,,0,106,106,106,1,2,repeated,,,,,,,,,,,,,,,,,,,,,,,,,,,,,,,,,,,,,,,,,,,,,,,,,
,,27,9,${e://Field/PROLIFIC_PID,F,18,2023-11-09_24h53.30.510,MouseEye_CC,2023.2.2,Win32,143.6988073,1.28,,,1536,864,47.623000000000005,4.52,"246.65, 240.09, 252.09, 282.29, 273.71, 274.34, 277.06",778.79,8.312625571,37.57306758,27.83653633,Passed,125.8697764,,,,,,,,,,,,,,,,,,,,,training,7,12,0,left,a,,,,,805.427,805.5934,35.84,-2.399963379,-9.600006104,1,0,0,0.1663,fixationPoint,805.5934,805.6904,805.6905,811.4537,35.84,10240,616.96,a,1,5.7567,,811.4537,811.6526,,,,,,,,95,-26,-222,69,168,26,161,66,213,-25,172,-174,19,-163,77,121,-128,123,-79,117,-172,-68,-165,-160,-69,270,180,360,270,360,180,180,270,90,270,360,,,,,,,,,,,811.6526,811.6527,,0,107,107,107,1,6,repeated,,,,,,,,,,,,,,,,,,,,,,,,,,,,,,,,,,,,,,,,,,,,,,,,,
,,27,9,${e://Field/PROLIFIC_PID,F,18,2023-11-09_24h53.30.510,MouseEye_CC,2023.2.2,Win32,143.6988073,1.28,,,1536,864,47.623000000000005,4.52,"246.65, 240.09, 252.09, 282.29, 273.71, 274.34, 277.06",778.79,8.312625571,37.57306758,27.83653633,Passed,125.8697764,,,,,,,,,,,,,,,,,,,,,training,7,13,180,right,s,,,,,811.6529,812.306,35.84,-2.399963379,-9.600006104,1,0,0,0.653,fixationPoint,812.3061,812.4097,812.4098,816.6524,35.84,10240,616.96,s,1,4.2357,,816.6524,816.8485,,,,,,,,43,-112,20,28,72,224,31,26,161,-224,-220,-18,-172,-116,-24,25,-124,22,-26,113,-21,-172,170,-25,172,360,270,360,270,270,360,270,360,90,360,180,,,,,,,,,,,816.8486,816.8486,,0,108,108,108,1,3,repeated,,,,,,,,,,,,,,,,,,,,,,,,,,,,,,,,,,,,,,,,,,,,,,,,,
,,27,9,${e://Field/PROLIFIC_PID,F,18,2023-11-09_24h53.30.510,MouseEye_CC,2023.2.2,Win32,143.6988073,1.28,,,1536,864,47.623000000000005,4.52,"246.65, 240.09, 252.09, 282.29, 273.71, 274.34, 277.06",778.79,8.312625571,37.57306758,27.83653633,Passed,125.8697764,,,,,,,,,,,,,,,,,,,,,training,7,14,0,left,a,,,,,816.8489,817.0362,35.84,-2.399963379,-9.600006104,1,0,0,0.1873,fixationPoint,817.0363,817.1332,817.1332,818.2095,35.84,10240,616.96,a,1,1.0703,,818.2096,818.4109,,,,,,,,48,116,31,-66,176,-68,19,-77,71,-69,-122,-76,-17,-21,-118,160,-168,22,-26,121,-128,168,22,222,117,180,360,90,360,270,270,180,360,180,180,270,,,,,,,,,,,818.4109,818.411,,0,109,109,109,1,1,repeated,,,,,,,,,,,,,,,,,,,,,,,,,,,,,,,,,,,,,,,,,,,,,,,,,
,,27,9,${e://Field/PROLIFIC_PID,F,18,2023-11-09_24h53.30.510,MouseEye_CC,2023.2.2,Win32,143.6988073,1.28,,,1536,864,47.623000000000005,4.52,"246.65, 240.09, 252.09, 282.29, 273.71, 274.34, 277.06",778.79,8.312625571,37.57306758,27.83653633,Passed,125.8697764,,,,,,,,,,,,,,,,,,,,,training,7,15,0,left,a,,,,,818.4111,818.647,35.84,-2.399963379,-9.600006104,1,0,0,0.2357,fixationPoint,818.647,818.7441,818.7442,824.7225,35.84,10240,616.96,a,1,5.9706,,824.7225,824.9238,,,,,,,,6,17,210,-161,112,-163,77,-24,224,-116,-24,-18,-172,-26,-222,26,-219,22,-26,209,-115,26,22,112,220,270,270,360,360,360,360,90,360,90,270,360,,,,,,,,,,,824.9238,824.9239,,0,110,110,110,1,14,novel,,,,,,,,,,,,,,,,,,,,,,,,,,,,,,,,,,,,,,,,,,,,,,,,,
,,27,9,${e://Field/PROLIFIC_PID,F,18,2023-11-09_24h53.30.510,MouseEye_CC,2023.2.2,Win32,143.6988073,1.28,,,1536,864,47.623000000000005,4.52,"246.65, 240.09, 252.09, 282.29, 273.71, 274.34, 277.06",778.79,8.312625571,37.57306758,27.83653633,Passed,125.8697764,,,,,,,,,,,,,,,,,,,,,training,7,16,180,right,s,,,,,824.9241,824.9795,35.84,-2.399963379,-9.600006104,1,0,0,0.0554,fixationPoint,824.9796,825.0766,825.0767,830.7008,35.84,10240,616.96,s,1,5.6161,,830.7008,830.9001,,,,,,,,76,25,-124,26,22,17,210,222,117,-161,112,-163,77,-218,124,-120,-120,-211,-115,-212,-20,67,-221,79,-28,360,90,360,360,180,180,90,270,90,180,360,,,,,,,,,,,830.9002,834.0891,space,0,111,111,111,1,8,repeated,3.1751,,,,,,,,,,,,,,,,,,,,,,,,,,,,,,,,,,,,,,,,,,,,,,,,
,,27,9,${e://Field/PROLIFIC_PID,F,18,2023-11-09_24h53.30.510,MouseEye_CC,2023.2.2,Win32,143.6988073,1.28,,,1536,864,47.623000000000005,4.52,"246.65, 240.09, 252.09, 282.29, 273.71, 274.34, 277.06",778.79,8.312625571,37.57306758,27.83653633,Passed,125.8697764,,,,,,,,,,,,,,,,,,,,,training,8,1,180,right,s,,,,,834.0893,834.8598,35.84,-2.399963379,-9.600006104,1,0,0,0.7704,fixationPoint,834.8599,834.9571,834.9571,837.2484,35.84,10240,616.96,s,1,2.2846,,837.2484,837.4499,,,,,,,,41,-216,24,168,22,67,77,28,72,-211,-115,-120,-120,-172,-175,67,-221,28,-68,112,-215,-216,223,-30,26,180,270,180,180,270,90,180,270,90,180,360,,,,,,,,,,,837.45,837.4549,,0,112,112,112,1,15,novel,,,,,,,,,,,,,,,,,,,,,,,,,,,,,,,,,,,,,,,,,,,,,,,,,
