InstrStartPage.started,InstrStartPage.stopped,participant,designid,prolificid,Gender,Age,date,expName,psychopyVersion,OS,frameRate,ratio_monitor2CRT,VirtualChinrest.started,VirtualChinrest.stopped,xRes,yRes,viewingdistance_cm,pixeldensity_px2mm,BallPos,squarePos,mm2degree,px2degree,CRT_px2degree,PassVirtualChinrest,foveaRadius_inPixel,InstrRedo.started,InstrRedo.stopped,VirtualChinrest_Redo.started,VirtualChinrest_Redo.stopped,Redo_virtualChinrest,Instruction1.started,Instruction1.stopped,keyPractice.started,keyPractice.stopped,key_keyprac.keys,key_keyprac.corr,key_keyprac.rt,key_keyprac.duration,keyPracFeedback.started,keyPracFeedback.stopped,keyPracLoop.thisRepN,keyPracLoop.thisTrialN,keyPracLoop.thisN,keyPracLoop.thisIndex,keyPracLoop.ran,phase,block,trial,targOrientdeg,targOrient,corrAnswer,Instruction2.started,Instruction2.stopped,Instruction3.started,Instruction3.stopped,fixation.started,fixation.stopped,fixationSize,mouseintial.x,mouseintial.y,mouseintial.leftButton,mouseintial.midButton,mouseintial.rightButton,mouseintial.time,mouseintial.clicked_name,greenFixation.started,greenFixation.stopped,trial.started,trial.stopped,letterSize,apertureSize,searchsize,key_respMain.keys,key_respMain.corr,key_respMain.rt,key_respMain.duration,trialFeedback.started,trialFeedback.stopped,trialsPractice.thisRepN,trialsPractice.thisTrialN,trialsPractice.thisN,trialsPractice.thisIndex,trialsPractice.ran,targetQuad,Tcondition,targcell,tlocx,tlocy,d1x,d1y,d2x,d2y,d3x,d3y,d4x,d4y,d5x,d5y,d6x,d6y,d7x,d7y,d8x,d8y,d9x,d9y,d10x,d10y,d11x,d11y,d1Orient,d2Orient,d3Orient,d4Orient,d5Orient,d6Orient,d7Orient,d8Orient,d9Orient,d10Orient,d11Orient,CheckInstr.started,CheckInstr.stopped,key_checkInstr.keys,key_checkInstr.corr,key_checkInstr.rt,key_checkInstr.duration,CheckInstr_FB.started,CheckInstr_FB.stopped,Instruction_MainExp.started,Instruction_MainExp.stopped,TakeABreak.started,TakeABreak.stopped,key_respBreak.keys,trials.thisRepN,trials.thisTrialN,trials.thisN,trials.thisIndex,trials.ran,configurationNumber,CCCondition,key_respBreak.rt,key_respBreak.duration,displayTestingPhase.started,displayTestingPhase.stopped,key_respTesting.keys,key_respTesting.corr,key_respTesting.rt,key_respTesting.duration,TakeABreak2.started,TakeABreak2.stopped,key_RespBreak.keys,Testingtrials.thisRepN,Testingtrials.thisTrialN,Testingtrials.thisN,Testingtrials.thisIndex,Testingtrials.ran,key_RespBreak.rt,key_RespBreak.duration,RecogQuestion.started,RecogQuestion.stopped,key_AnswerQues.keys,key_AnswerQues.rt,key_AnswerQues.duration,Disclose.started,Disclose.stopped,InstrRT.started,InstrRT.stopped,fixation_RT.started,fixation_RT.stopped,mouseInitial.x,mouseInitial.y,mouseInitial.leftButton,mouseInitial.midButton,mouseInitial.rightButton,mouseInitial.time,mouseInitial.clicked_name,displayRT.started,displayRT.stopped,key_respRT.keys,key_respRT.corr,key_respRT.rt,key_respRT.duration,RTtrials.thisRepN,RTtrials.thisTrialN,RTtrials.thisN,RTtrials.thisIndex,RTtrials.ran,EndOfExperiment.started,EndOfExperiment.stopped
0,4.499,29,10,${e://Field/PROLIFIC_PID,M,26,2023-11-08_19h01.44.363,MouseEye_CC,2023.2.2,Win32,58.82352941,1,,,,,,,,,,,,,,,,,,,,,,,,,,,,,,,,,,,,,,,,,,,,,,,,,,,,,,,,,,,,,,,,,,,,,,,,,,,,,,,,,,,,,,,,,,,,,,,,,,,,,,,,,,,,,,,,,,,,,,,,,,,,,,,,,,,,,,,,,,,,,,,,,,,,,,,,,,,,,,,,,,,,,,,,,,,,,,,,,,
,,29,10,${e://Field/PROLIFIC_PID,M,26,2023-11-08_19h01.44.363,MouseEye_CC,2023.2.2,Win32,58.82352941,2.044838137,4.499,100.255,1920,1080,52.597,6.2,"664.56, 248.04, 176.36, 239.53, 122.57, 28.02, 124.01",965,9.1808405,56.9212111,27.83653633,Failed,190.6860572,,,,,,,,,,,,,,,,,,,,,,,,,,,,,,,,,,,,,,,,,,,,,,,,,,,,,,,,,,,,,,,,,,,,,,,,,,,,,,,,,,,,,,,,,,,,,,,,,,,,,,,,,,,,,,,,,,,,,,,,,,,,,,,,,,,,,,,,,,,,,,,,,,,,,,,,,,,,,,,,,,,,,
,,29,10,${e://Field/PROLIFIC_PID,M,26,2023-11-08_19h01.44.363,MouseEye_CC,2023.2.2,Win32,58.82352941,2.044838137,,,1920,1080,52.597,6.2,"664.56, 248.04, 176.36, 239.53, 122.57, 28.02, 124.01",965,9.1808405,56.9212111,27.83653633,Failed,190.6860572,100.255,103.931,,,,,,,,,,,,,,,,,,,,,,,,,,,,,,,,,,,,,,,,,,,,,,,,,,,,,,,,,,,,,,,,,,,,,,,,,,,,,,,,,,,,,,,,,,,,,,,,,,,,,,,,,,,,,,,,,,,,,,,,,,,,,,,,,,,,,,,,,,,,,,,,,,,,,,,,,,,,,,,,,,,
,,29,10,${e://Field/PROLIFIC_PID,M,26,2023-11-08_19h01.44.363,MouseEye_CC,2023.2.2,Win32,58.82352941,1.28,,,1920,1080,66.72,4.31,"664.56, 248.04, 176.36, 239.53, 122.57, 28.02, 124.01",965,11.64601932,50.19434327,27.83653633,Failed,168.15105,,,103.932,171.498,failed,,,,,,,,,,,,,,,,,,,,,,,,,,,,,,,,,,,,,,,,,,,,,,,,,,,,,,,,,,,,,,,,,,,,,,,,,,,,,,,,,,,,,,,,,,,,,,,,,,,,,,,,,,,,,,,,,,,,,,,,,,,,,,,,,,,,,,,,,,,,,,,,,,,,,,,,,,,,,,,,
,,29,10,${e://Field/PROLIFIC_PID,M,26,2023-11-08_19h01.44.363,MouseEye_CC,2023.2.2,Win32,58.82352941,1.28,,,1920,1080,66.72,4.31,"664.56, 248.04, 176.36, 239.53, 122.57, 28.02, 124.01",965,11.64601932,50.19434327,27.83653633,Failed,168.15105,,,,,,171.498,183.515,,,,,,,,,,,,,,,,,,,,,,,,,,,,,,,,,,,,,,,,,,,,,,,,,,,,,,,,,,,,,,,,,,,,,,,,,,,,,,,,,,,,,,,,,,,,,,,,,,,,,,,,,,,,,,,,,,,,,,,,,,,,,,,,,,,,,,,,,,,,,,,,,,,,,,,,,,,,,,
,,29,10,${e://Field/PROLIFIC_PID,M,26,2023-11-08_19h01.44.363,MouseEye_CC,2023.2.2,Win32,58.82352941,1.28,,,1920,1080,66.72,4.31,"664.56, 248.04, 176.36, 239.53, 122.57, 28.02, 124.01",965,11.64601932,50.19434327,27.83653633,Failed,168.15105,,,,,,,,183.537,184.581,a,1,0.514,,184.581,185.081,0,0,0,0,1,practice,1,1,0,left,a,,,,,,,,,,,,,,,,,,,,,,,,,,,,,,,,,,,,,,,,,,,,,,,,,,,,,,,,,,,,,,,,,,,,,,,,,,,,,,,,,,,,,,,,,,,,,,,,,,,,,,,,,,,,,,,,,,,,,,,,,,,,,,,,,,,,,,,,,,,
,,29,10,${e://Field/PROLIFIC_PID,M,26,2023-11-08_19h01.44.363,MouseEye_CC,2023.2.2,Win32,58.82352941,1.28,,,1920,1080,66.72,4.31,"664.56, 248.04, 176.36, 239.53, 122.57, 28.02, 124.01",965,11.64601932,50.19434327,27.83653633,Failed,168.15105,,,,,,,,185.082,185.998,a,1,0.392,,185.998,186.497,0,1,1,1,1,practice,1,2,0,left,a,,,,,,,,,,,,,,,,,,,,,,,,,,,,,,,,,,,,,,,,,,,,,,,,,,,,,,,,,,,,,,,,,,,,,,,,,,,,,,,,,,,,,,,,,,,,,,,,,,,,,,,,,,,,,,,,,,,,,,,,,,,,,,,,,,,,,,,,,,,
,,29,10,${e://Field/PROLIFIC_PID,M,26,2023-11-08_19h01.44.363,MouseEye_CC,2023.2.2,Win32,58.82352941,1.28,,,1920,1080,66.72,4.31,"664.56, 248.04, 176.36, 239.53, 122.57, 28.02, 124.01",965,11.64601932,50.19434327,27.83653633,Failed,168.15105,,,,,,,,186.497,187.397,a,1,0.388,,187.397,187.898,0,2,2,2,1,practice,1,3,0,left,a,,,,,,,,,,,,,,,,,,,,,,,,,,,,,,,,,,,,,,,,,,,,,,,,,,,,,,,,,,,,,,,,,,,,,,,,,,,,,,,,,,,,,,,,,,,,,,,,,,,,,,,,,,,,,,,,,,,,,,,,,,,,,,,,,,,,,,,,,,,
,,29,10,${e://Field/PROLIFIC_PID,M,26,2023-11-08_19h01.44.363,MouseEye_CC,2023.2.2,Win32,58.82352941,1.28,,,1920,1080,66.72,4.31,"664.56, 248.04, 176.36, 239.53, 122.57, 28.02, 124.01",965,11.64601932,50.19434327,27.83653633,Failed,168.15105,,,,,,,,187.898,188.814,s,1,0.383,,188.814,189.314,0,3,3,3,1,practice,1,4,180,right,s,,,,,,,,,,,,,,,,,,,,,,,,,,,,,,,,,,,,,,,,,,,,,,,,,,,,,,,,,,,,,,,,,,,,,,,,,,,,,,,,,,,,,,,,,,,,,,,,,,,,,,,,,,,,,,,,,,,,,,,,,,,,,,,,,,,,,,,,,,,
,,29,10,${e://Field/PROLIFIC_PID,M,26,2023-11-08_19h01.44.363,MouseEye_CC,2023.2.2,Win32,58.82352941,1.28,,,1920,1080,66.72,4.31,"664.56, 248.04, 176.36, 239.53, 122.57, 28.02, 124.01",965,11.64601932,50.19434327,27.83653633,Failed,168.15105,,,,,,,,189.314,190.18,s,1,0.364,,190.181,190.681,0,4,4,4,1,practice,1,5,180,right,s,,,,,,,,,,,,,,,,,,,,,,,,,,,,,,,,,,,,,,,,,,,,,,,,,,,,,,,,,,,,,,,,,,,,,,,,,,,,,,,,,,,,,,,,,,,,,,,,,,,,,,,,,,,,,,,,,,,,,,,,,,,,,,,,,,,,,,,,,,,
,,29,10,${e://Field/PROLIFIC_PID,M,26,2023-11-08_19h01.44.363,MouseEye_CC,2023.2.2,Win32,58.82352941,1.28,,,1920,1080,66.72,4.31,"664.56, 248.04, 176.36, 239.53, 122.57, 28.02, 124.01",965,11.64601932,50.19434327,27.83653633,Failed,168.15105,,,,,,,,190.681,191.531,a,1,0.338,,191.531,192.031,0,5,5,5,1,practice,1,6,0,left,a,,,,,,,,,,,,,,,,,,,,,,,,,,,,,,,,,,,,,,,,,,,,,,,,,,,,,,,,,,,,,,,,,,,,,,,,,,,,,,,,,,,,,,,,,,,,,,,,,,,,,,,,,,,,,,,,,,,,,,,,,,,,,,,,,,,,,,,,,,,
,,29,10,${e://Field/PROLIFIC_PID,M,26,2023-11-08_19h01.44.363,MouseEye_CC,2023.2.2,Win32,58.82352941,1.28,,,1920,1080,66.72,4.31,"664.56, 248.04, 176.36, 239.53, 122.57, 28.02, 124.01",965,11.64601932,50.19434327,27.83653633,Failed,168.15105,,,,,,,,,,,,,,,,,,,,,,,,,,,192.031,193.748,,,,,,,,,,,,,,,,,,,,,,,,,,,,,,,,,,,,,,,,,,,,,,,,,,,,,,,,,,,,,,,,,,,,,,,,,,,,,,,,,,,,,,,,,,,,,,,,,,,,,,,,,,,,,,,,,,,,,,,,,,,,,,,,,,,,,,,,,
,,29,10,${e://Field/PROLIFIC_PID,M,26,2023-11-08_19h01.44.363,MouseEye_CC,2023.2.2,Win32,58.82352941,1.28,,,1920,1080,66.72,4.31,"664.56, 248.04, 176.36, 239.53, 122.57, 28.02, 124.01",965,11.64601932,50.19434327,27.83653633,Failed,168.15105,,,,,,,,,,,,,,,,,,,,,,,,,,,,,193.748,197.814,,,,,,,,,,,,,,,,,,,,,,,,,,,,,,,,,,,,,,,,,,,,,,,,,,,,,,,,,,,,,,,,,,,,,,,,,,,,,,,,,,,,,,,,,,,,,,,,,,,,,,,,,,,,,,,,,,,,,,,,,,,,,,,,,,,,,,,
,,29,10,${e://Field/PROLIFIC_PID,M,26,2023-11-08_19h01.44.363,MouseEye_CC,2023.2.2,Win32,58.82352941,1.28,,,1920,1080,66.72,4.31,"664.56, 248.04, 176.36, 239.53, 122.57, 28.02, 124.01",965,11.64601932,50.19434327,27.83653633,Failed,168.15105,,,,,,,,,,,,,,,,,,,,,practice,0,1,0,left,a,,,,,197.834,198.748,35.84,-9.833251953,-4.444458008,1,0,0,0.914,fixationPoint,198.748,198.847,198.848,200.481,35.84,10240,616.96,a,1,1.609,,200.481,200.681,0,0,0,0,1,4,sparse,90,217,-164,68,123,222,26,214,216,-218,159,-120,223,-110,82,-115,-130,-224,-120,-68,-219,79,-175,19,-128,90,270,360,90,270,270,180,90,90,90,270,,,,,,,,,,,,,,,,,,,,,,,,,,,,,,,,,,,,,,,,,,,,,,,,,,,,,,,,,,,,,,,,,,,,,
,,29,10,${e://Field/PROLIFIC_PID,M,26,2023-11-08_19h01.44.363,MouseEye_CC,2023.2.2,Win32,58.82352941,1.28,,,1920,1080,66.72,4.31,"664.56, 248.04, 176.36, 239.53, 122.57, 28.02, 124.01",965,11.64601932,50.19434327,27.83653633,Failed,168.15105,,,,,,,,,,,,,,,,,,,,,practice,0,2,0,left,a,,,,,200.681,201.048,35.84,2.388916016,-4.444458008,1,0,0,0.367,fixationPoint,201.048,201.148,201.148,201.882,35.84,10240,616.96,a,1,0.717,,201.882,202.081,0,1,1,1,1,1,rich,39,169,66,-126,125,-169,169,-130,19,-169,-116,-125,-167,-224,-216,218,-129,171,-218,18,-208,166,26,17,170,180,90,360,270,90,90,90,270,180,180,270,,,,,,,,,,,,,,,,,,,,,,,,,,,,,,,,,,,,,,,,,,,,,,,,,,,,,,,,,,,,,,,,,,,,,
,,29,10,${e://Field/PROLIFIC_PID,M,26,2023-11-08_19h01.44.363,MouseEye_CC,2023.2.2,Win32,58.82352941,1.28,,,1920,1080,66.72,4.31,"664.56, 248.04, 176.36, 239.53, 122.57, 28.02, 124.01",965,11.64601932,50.19434327,27.83653633,Failed,168.15105,,,,,,,,,,,,,,,,,,,,,practice,0,3,0,left,a,,,,,202.081,202.331,35.84,2.388916016,-4.444458008,1,0,0,0.25,fixationPoint,202.331,202.431,202.431,204.231,35.84,10240,616.96,a,1,1.772,,204.231,204.431,0,2,2,2,1,2,sparse,22,-162,126,222,26,17,170,126,172,-25,-117,-175,-206,-224,-216,116,-19,130,-174,217,-164,-218,159,-21,162,90,90,180,360,360,270,360,360,360,360,180,,,,,,,,,,,,,,,,,,,,,,,,,,,,,,,,,,,,,,,,,,,,,,,,,,,,,,,,,,,,,,,,,,,,,
,,29,10,${e://Field/PROLIFIC_PID,M,26,2023-11-08_19h01.44.363,MouseEye_CC,2023.2.2,Win32,58.82352941,1.28,,,1920,1080,66.72,4.31,"664.56, 248.04, 176.36, 239.53, 122.57, 28.02, 124.01",965,11.64601932,50.19434327,27.83653633,Failed,168.15105,,,,,,,,,,,,,,,,,,,,,practice,0,4,180,right,s,,,,,204.431,204.664,35.84,2.388916016,-4.444458008,1,0,0,0.233,fixationPoint,204.664,204.764,204.764,206.231,35.84,10240,616.96,s,1,1.445,,206.231,206.43,0,3,3,3,1,4,sparse,76,19,-128,159,121,214,216,219,165,-218,159,-162,126,-219,119,-169,-116,-111,-31,-175,-206,18,-208,81,-114,90,270,180,180,270,180,360,360,360,270,360,,,,,,,,,,,,,,,,,,,,,,,,,,,,,,,,,,,,,,,,,,,,,,,,,,,,,,,,,,,,,,,,,,,,,
,,29,10,${e://Field/PROLIFIC_PID,M,26,2023-11-08_19h01.44.363,MouseEye_CC,2023.2.2,Win32,58.82352941,1.28,,,1920,1080,66.72,4.31,"664.56, 248.04, 176.36, 239.53, 122.57, 28.02, 124.01",965,11.64601932,50.19434327,27.83653633,Failed,168.15105,,,,,,,,,,,,,,,,,,,,,practice,0,5,180,right,s,,,,,206.431,206.598,35.84,2.388916016,-4.444458008,1,0,0,0.167,fixationPoint,206.598,206.698,206.698,207.764,35.84,10240,616.96,s,1,1.035,,207.764,207.964,0,4,4,4,1,3,sparse,85,-19,-173,219,165,68,123,214,216,-160,68,-64,120,-226,34,162,-21,224,-216,167,-163,-167,-74,-224,-216,360,360,360,90,180,270,90,360,270,270,360,,,,,,,,,,,,,,,,,,,,,,,,,,,,,,,,,,,,,,,,,,,,,,,,,,,,,,,,,,,,,,,,,,,,,
,,29,10,${e://Field/PROLIFIC_PID,M,26,2023-11-08_19h01.44.363,MouseEye_CC,2023.2.2,Win32,58.82352941,1.28,,,1920,1080,66.72,4.31,"664.56, 248.04, 176.36, 239.53, 122.57, 28.02, 124.01",965,11.64601932,50.19434327,27.83653633,Failed,168.15105,,,,,,,,,,,,,,,,,,,,,practice,0,6,180,right,s,,,,,207.964,208.181,35.84,-0.944335938,-11.11114502,1,0,0,0.217,fixationPoint,208.181,208.281,208.281,209.098,35.84,10240,616.96,s,1,0.789,,209.098,209.297,0,5,5,5,1,3,sparse,95,-21,-224,126,172,219,165,166,26,-166,207,-223,206,-219,119,169,-75,18,-208,224,-216,-72,-121,-115,-130,180,180,360,180,360,180,270,180,90,180,360,,,,,,,,,,,,,,,,,,,,,,,,,,,,,,,,,,,,,,,,,,,,,,,,,,,,,,,,,,,,,,,,,,,,,
,,29,10,${e://Field/PROLIFIC_PID,M,26,2023-11-08_19h01.44.363,MouseEye_CC,2023.2.2,Win32,58.82352941,1.28,,,1920,1080,66.72,4.31,"664.56, 248.04, 176.36, 239.53, 122.57, 28.02, 124.01",965,11.64601932,50.19434327,27.83653633,Failed,168.15105,,,,,,,,,,,,,,,,,,,,,practice,0,7,0,left,a,,,,,209.298,209.481,35.84,-0.944335938,-11.11114502,1,0,0,0.183,fixationPoint,209.481,209.581,209.581,212.198,35.84,10240,616.96,a,1,2.584,,212.198,212.398,0,6,6,6,1,1,rich,7,62,223,-166,207,-226,34,-162,126,-169,-116,-168,-160,-161,-27,15,-162,162,-21,79,-175,219,165,219,129,180,180,360,180,270,360,180,360,270,180,360,,,,,,,,,,,,,,,,,,,,,,,,,,,,,,,,,,,,,,,,,,,,,,,,,,,,,,,,,,,,,,,,,,,,,
,,29,10,${e://Field/PROLIFIC_PID,M,26,2023-11-08_19h01.44.363,MouseEye_CC,2023.2.2,Win32,58.82352941,1.28,,,1920,1080,66.72,4.31,"664.56, 248.04, 176.36, 239.53, 122.57, 28.02, 124.01",965,11.64601932,50.19434327,27.83653633,Failed,168.15105,,,,,,,,,,,,,,,,,,,,,practice,0,8,180,right,s,,,,,212.398,212.615,35.84,-0.944335938,-11.11114502,1,0,0,0.217,fixationPoint,212.615,212.714,212.714,214.63,35.84,10240,616.96,s,1,1.892,,214.63,214.83,0,7,7,7,1,2,sparse,24,-64,120,18,215,126,172,33,121,-206,-170,-64,-162,-218,-78,130,-174,211,-74,168,-130,-164,32,-21,162,90,180,270,360,180,90,180,180,180,360,270,,,,,,,,,,,,,,,,,,,,,,,,,,,,,,,,,,,,,,,,,,,,,,,,,,,,,,,,,,,,,,,,,,,,,
,,29,10,${e://Field/PROLIFIC_PID,M,26,2023-11-08_19h01.44.363,MouseEye_CC,2023.2.2,Win32,58.82352941,1.28,,,1920,1080,66.72,4.31,"664.56, 248.04, 176.36, 239.53, 122.57, 28.02, 124.01",965,11.64601932,50.19434327,27.83653633,Failed,168.15105,,,,,,,,,,,,,,,,,,,,,practice,0,9,180,right,s,,,,,214.831,214.997,35.84,-0.944335938,-11.11114502,1,0,0,0.166,fixationPoint,214.997,215.097,215.097,216.381,35.84,10240,616.96,s,1,1.262,,216.381,216.581,0,8,8,8,1,3,sparse,85,-19,-173,127,30,62,223,217,67,-110,82,-21,162,-80,218,167,-163,126,-79,130,-174,-125,-167,-68,-219,360,360,360,180,360,360,180,270,90,360,180,,,,,,,,,,,,,,,,,,,,,,,,,,,,,,,,,,,,,,,,,,,,,,,,,,,,,,,,,,,,,,,,,,,,,
,,29,10,${e://Field/PROLIFIC_PID,M,26,2023-11-08_19h01.44.363,MouseEye_CC,2023.2.2,Win32,58.82352941,1.28,,,1920,1080,66.72,4.31,"664.56, 248.04, 176.36, 239.53, 122.57, 28.02, 124.01",965,11.64601932,50.19434327,27.83653633,Failed,168.15105,,,,,,,,,,,,,,,,,,,,,practice,0,10,180,right,s,,,,,216.581,216.764,35.84,-0.944335938,-11.11114502,1,0,0,0.183,fixationPoint,216.764,216.864,216.864,218.364,35.84,10240,616.96,s,1,1.468,,218.364,218.564,0,9,9,9,1,1,rich,9,160,209,-166,207,-226,34,-120,223,-224,-120,-118,-217,-218,-78,112,-209,126,-113,169,-75,178,160,110,129,180,90,90,270,360,270,360,180,360,180,360,,,,,,,,,,,,,,,,,,,,,,,,,,,,,,,,,,,,,,,,,,,,,,,,,,,,,,,,,,,,,,,,,,,,,
,,29,10,${e://Field/PROLIFIC_PID,M,26,2023-11-08_19h01.44.363,MouseEye_CC,2023.2.2,Win32,58.82352941,1.28,,,1920,1080,66.72,4.31,"664.56, 248.04, 176.36, 239.53, 122.57, 28.02, 124.01",965,11.64601932,50.19434327,27.83653633,Failed,168.15105,,,,,,,,,,,,,,,,,,,,,practice,0,11,180,right,s,,,,,218.564,218.73,35.84,-0.944335938,-11.11114502,1,0,0,0.166,fixationPoint,218.731,218.831,218.831,219.947,35.84,10240,616.96,s,1,1.084,,219.947,220.147,0,10,10,10,1,4,sparse,80,218,-129,62,223,159,121,110,129,-218,159,-223,206,-75,173,-169,-116,-118,-217,-125,-167,217,-164,169,-75,360,270,360,180,360,180,180,270,360,180,90,,,,,,,,,,,,,,,,,,,,,,,,,,,,,,,,,,,,,,,,,,,,,,,,,,,,,,,,,,,,,,,,,,,,,
,,29,10,${e://Field/PROLIFIC_PID,M,26,2023-11-08_19h01.44.363,MouseEye_CC,2023.2.2,Win32,58.82352941,1.28,,,1920,1080,66.72,4.31,"664.56, 248.04, 176.36, 239.53, 122.57, 28.02, 124.01",965,11.64601932,50.19434327,27.83653633,Failed,168.15105,,,,,,,,,,,,,,,,,,,,,practice,0,12,0,left,a,,,,,220.147,220.264,35.84,-0.944335938,-11.11114502,1,0,0,0.116,fixationPoint,220.264,220.364,220.364,223.099,35.84,10240,616.96,a,1,2.717,,223.099,223.297,0,11,11,11,1,3,sparse,75,-25,-117,110,129,125,63,214,216,-164,32,-27,117,-126,125,171,-218,126,-113,167,-163,-21,-224,-212,-21,270,180,180,360,180,270,360,270,360,180,270,,,,,,,,,,,,,,,,,,,,,,,,,,,,,,,,,,,,,,,,,,,,,,,,,,,,,,,,,,,,,,,,,,,,,
,,29,10,${e://Field/PROLIFIC_PID,M,26,2023-11-08_19h01.44.363,MouseEye_CC,2023.2.2,Win32,58.82352941,1.28,,,1920,1080,66.72,4.31,"664.56, 248.04, 176.36, 239.53, 122.57, 28.02, 124.01",965,11.64601932,50.19434327,27.83653633,Failed,168.15105,,,,,,,,,,,,,,,,,,,,,,,,,,,,,,,,,,,,,,,,,,,,,,,,,,,,,,,,,,,,,,,,,,,,,,,,,,,,,,,,,,,,,,,,,,,,,,,,,223.298,226.448,a,1,3.128,,,,,,,,,,,,,,,,,,,,,,,,,,,,,,,,,,,,,,,,,,,,,,,,,,,,,,,,,,,,,,,,
,,29,10,${e://Field/PROLIFIC_PID,M,26,2023-11-08_19h01.44.363,MouseEye_CC,2023.2.2,Win32,58.82352941,1.28,,,1920,1080,66.72,4.31,"664.56, 248.04, 176.36, 239.53, 122.57, 28.02, 124.01",965,11.64601932,50.19434327,27.83653633,Failed,168.15105,,,,,,,,,,,,,,,,,,,,,,,,,,,,,,,,,,,,,,,,,,,,,,,,,,,,,,,,,,,,,,,,,,,,,,,,,,,,,,,,,,,,,,,,,,,,,,,,,,,,,,,226.448,228.781,,,,,,,,,,,,,,,,,,,,,,,,,,,,,,,,,,,,,,,,,,,,,,,,,,,,,,,,,,,,,
,,29,10,${e://Field/PROLIFIC_PID,M,26,2023-11-08_19h01.44.363,MouseEye_CC,2023.2.2,Win32,58.82352941,1.28,,,1920,1080,66.72,4.31,"664.56, 248.04, 176.36, 239.53, 122.57, 28.02, 124.01",965,11.64601932,50.19434327,27.83653633,Failed,168.15105,,,,,,,,,,,,,,,,,,,,,,,,,,,,,,,,,,,,,,,,,,,,,,,,,,,,,,,,,,,,,,,,,,,,,,,,,,,,,,,,,,,,,,,,,,,,,,,,,,,,,,,,,228.781,233.014,,,,,,,,,,,,,,,,,,,,,,,,,,,,,,,,,,,,,,,,,,,,,,,,,,,,,,,,,,,
,,29,10,${e://Field/PROLIFIC_PID,M,26,2023-11-08_19h01.44.363,MouseEye_CC,2023.2.2,Win32,58.82352941,1.28,,,1920,1080,66.72,4.31,"664.56, 248.04, 176.36, 239.53, 122.57, 28.02, 124.01",965,11.64601932,50.19434327,27.83653633,Failed,168.15105,,,,,,,,,,,,,,,,,,,,,training,1,1,180,right,s,,,,,233.1,233.68,35.84,10.16674805,-2.222229004,1,0,0,0.58,fixationPoint,233.68,233.78,233.78,234.664,35.84,10240,616.96,s,1,0.868,,234.664,234.864,,,,,,,,68,114,-78,212,215,18,16,174,75,-163,208,-28,28,-75,224,-221,-28,-176,-19,-116,-116,172,-224,80,-219,90,180,270,360,270,90,360,180,360,180,270,,,,,,,,,,,234.864,234.869,,0,0,0,0,1,8,repeated,,,,,,,,,,,,,,,,,,,,,,,,,,,,,,,,,,,,,,,,,,,,,,,,,
,,29,10,${e://Field/PROLIFIC_PID,M,26,2023-11-08_19h01.44.363,MouseEye_CC,2023.2.2,Win32,58.82352941,1.28,,,1920,1080,66.72,4.31,"664.56, 248.04, 176.36, 239.53, 122.57, 28.02, 124.01",965,11.64601932,50.19434327,27.83653633,Failed,168.15105,,,,,,,,,,,,,,,,,,,,,training,1,2,180,right,s,,,,,234.869,235.264,35.84,10.16674805,-2.222229004,1,0,0,0.395,fixationPoint,235.264,235.363,235.363,237.28,35.84,10240,616.96,s,1,1.9,,237.28,237.481,,,,,,,,71,-215,-119,212,215,26,175,170,167,-74,22,-65,70,-213,175,72,-21,125,-224,223,-27,-121,-21,-218,-174,360,180,360,180,90,270,180,180,90,270,360,,,,,,,,,,,237.481,237.481,,0,1,1,1,1,6,repeated,,,,,,,,,,,,,,,,,,,,,,,,,,,,,,,,,,,,,,,,,,,,,,,,,
,,29,10,${e://Field/PROLIFIC_PID,M,26,2023-11-08_19h01.44.363,MouseEye_CC,2023.2.2,Win32,58.82352941,1.28,,,1920,1080,66.72,4.31,"664.56, 248.04, 176.36, 239.53, 122.57, 28.02, 124.01",965,11.64601932,50.19434327,27.83653633,Failed,168.15105,,,,,,,,,,,,,,,,,,,,,training,1,3,180,right,s,,,,,237.481,237.614,35.84,10.16674805,-2.222229004,1,0,0,0.133,fixationPoint,237.614,237.714,237.714,238.614,35.84,10240,616.96,s,1,0.896,,238.614,238.814,,,,,,,,25,-27,122,128,113,112,72,65,164,-78,-218,-221,-28,-160,-168,27,-75,174,-19,26,-208,-211,215,-213,175,360,90,180,270,180,360,180,270,360,180,180,,,,,,,,,,,238.814,238.814,,0,2,2,2,1,3,repeated,,,,,,,,,,,,,,,,,,,,,,,,,,,,,,,,,,,,,,,,,,,,,,,,,
,,29,10,${e://Field/PROLIFIC_PID,M,26,2023-11-08_19h01.44.363,MouseEye_CC,2023.2.2,Win32,58.82352941,1.28,,,1920,1080,66.72,4.31,"664.56, 248.04, 176.36, 239.53, 122.57, 28.02, 124.01",965,11.64601932,50.19434327,27.83653633,Failed,168.15105,,,,,,,,,,,,,,,,,,,,,training,1,4,0,left,a,,,,,238.815,238.93,35.84,10.16674805,-2.222229004,1,0,0,0.115,fixationPoint,238.93,239.031,239.031,239.73,35.84,10240,616.96,a,1,0.696,,239.731,239.931,,,,,,,,13,-115,168,112,72,128,113,68,222,-165,-118,-214,-220,-116,-116,64,-76,216,-69,216,-216,-209,74,-216,116,90,90,90,90,90,360,270,360,90,360,270,,,,,,,,,,,239.931,239.931,,0,3,3,3,1,15,novel,,,,,,,,,,,,,,,,,,,,,,,,,,,,,,,,,,,,,,,,,,,,,,,,,
,,29,10,${e://Field/PROLIFIC_PID,M,26,2023-11-08_19h01.44.363,MouseEye_CC,2023.2.2,Win32,58.82352941,1.28,,,1920,1080,66.72,4.31,"664.56, 248.04, 176.36, 239.53, 122.57, 28.02, 124.01",965,11.64601932,50.19434327,27.83653633,Failed,168.15105,,,,,,,,,,,,,,,,,,,,,training,1,5,180,right,s,,,,,239.931,240.014,35.84,10.16674805,-2.222229004,1,0,0,0.083,fixationPoint,240.014,240.114,240.114,240.731,35.84,10240,616.96,s,1,0.606,,240.731,240.93,,,,,,,,14,-73,163,125,208,69,114,112,163,-122,-165,-78,-218,-117,-218,20,-128,216,-69,114,-78,-128,217,-209,74,270,360,90,180,180,180,360,90,360,270,270,,,,,,,,,,,240.93,240.931,,0,4,4,4,1,4,repeated,,,,,,,,,,,,,,,,,,,,,,,,,,,,,,,,,,,,,,,,,,,,,,,,,
,,29,10,${e://Field/PROLIFIC_PID,M,26,2023-11-08_19h01.44.363,MouseEye_CC,2023.2.2,Win32,58.82352941,1.28,,,1920,1080,66.72,4.31,"664.56, 248.04, 176.36, 239.53, 122.57, 28.02, 124.01",965,11.64601932,50.19434327,27.83653633,Failed,168.15105,,,,,,,,,,,,,,,,,,,,,training,1,6,0,left,a,,,,,240.931,241.047,35.84,10.16674805,-2.222229004,1,0,0,0.116,fixationPoint,241.047,241.147,241.147,242.264,35.84,10240,616.96,a,1,1.101,,242.264,242.464,,,,,,,,87,76,-169,112,163,68,68,26,175,-32,67,-128,217,-213,175,-64,-171,-25,-115,-176,-19,64,-76,116,-163,180,180,360,270,90,180,180,270,90,270,90,,,,,,,,,,,242.464,242.464,,0,5,5,5,1,12,novel,,,,,,,,,,,,,,,,,,,,,,,,,,,,,,,,,,,,,,,,,,,,,,,,,
,,29,10,${e://Field/PROLIFIC_PID,M,26,2023-11-08_19h01.44.363,MouseEye_CC,2023.2.2,Win32,58.82352941,1.28,,,1920,1080,66.72,4.31,"664.56, 248.04, 176.36, 239.53, 122.57, 28.02, 124.01",965,11.64601932,50.19434327,27.83653633,Failed,168.15105,,,,,,,,,,,,,,,,,,,,,training,1,7,0,left,a,,,,,242.464,242.547,35.84,10.16674805,-2.222229004,1,0,0,0.083,fixationPoint,242.547,242.647,242.647,245.43,35.84,10240,616.96,a,1,2.773,,245.431,245.631,,,,,,,,27,69,114,-68,124,-167,28,-173,65,-121,-21,-165,-118,-24,-224,168,-163,124,-118,116,-163,21,208,128,113,270,270,90,90,360,90,360,90,90,360,180,,,,,,,,,,,245.631,245.631,,0,6,6,6,1,1,repeated,,,,,,,,,,,,,,,,,,,,,,,,,,,,,,,,,,,,,,,,,,,,,,,,,
,,29,10,${e://Field/PROLIFIC_PID,M,26,2023-11-08_19h01.44.363,MouseEye_CC,2023.2.2,Win32,58.82352941,1.28,,,1920,1080,66.72,4.31,"664.56, 248.04, 176.36, 239.53, 122.57, 28.02, 124.01",965,11.64601932,50.19434327,27.83653633,Failed,168.15105,,,,,,,,,,,,,,,,,,,,,training,1,8,0,left,a,,,,,245.632,245.764,35.84,10.16674805,-2.222229004,1,0,0,0.132,fixationPoint,245.764,245.864,245.864,247.881,35.84,10240,616.96,a,1,2.003,,247.881,248.081,,,,,,,,33,-122,68,208,18,68,222,26,175,-27,-20,-78,-72,-30,-164,27,-75,78,-128,119,-23,-75,224,-68,124,180,270,360,90,270,180,360,270,270,90,180,,,,,,,,,,,248.081,248.081,,0,7,7,7,1,16,novel,,,,,,,,,,,,,,,,,,,,,,,,,,,,,,,,,,,,,,,,,,,,,,,,,
,,29,10,${e://Field/PROLIFIC_PID,M,26,2023-11-08_19h01.44.363,MouseEye_CC,2023.2.2,Win32,58.82352941,1.28,,,1920,1080,66.72,4.31,"664.56, 248.04, 176.36, 239.53, 122.57, 28.02, 124.01",965,11.64601932,50.19434327,27.83653633,Failed,168.15105,,,,,,,,,,,,,,,,,,,,,training,1,9,0,left,a,,,,,248.081,248.18,35.84,10.16674805,-2.222229004,1,0,0,0.099,fixationPoint,248.18,248.28,248.281,249.681,35.84,10240,616.96,a,1,1.397,,249.681,249.88,,,,,,,,76,20,-128,18,16,164,120,212,67,-215,16,-164,175,-29,175,-117,-218,-215,-119,-79,-126,119,-23,215,-175,90,360,360,90,90,270,360,180,360,270,270,,,,,,,,,,,249.88,249.88,,0,8,8,8,1,11,novel,,,,,,,,,,,,,,,,,,,,,,,,,,,,,,,,,,,,,,,,,,,,,,,,,
,,29,10,${e://Field/PROLIFIC_PID,M,26,2023-11-08_19h01.44.363,MouseEye_CC,2023.2.2,Win32,58.82352941,1.28,,,1920,1080,66.72,4.31,"664.56, 248.04, 176.36, 239.53, 122.57, 28.02, 124.01",965,11.64601932,50.19434327,27.83653633,Failed,168.15105,,,,,,,,,,,,,,,,,,,,,training,1,10,180,right,s,,,,,249.881,250.014,35.84,10.16674805,-2.222229004,1,0,0,0.133,fixationPoint,250.014,250.114,250.114,250.731,35.84,10240,616.96,s,1,0.615,,250.731,250.93,,,,,,,,88,116,-163,170,167,68,68,128,24,-32,67,-119,124,-164,117,-117,-218,-216,-65,-121,-21,80,-219,214,-112,270,270,360,90,270,360,270,360,90,90,180,,,,,,,,,,,250.93,250.931,,0,9,9,9,1,7,repeated,,,,,,,,,,,,,,,,,,,,,,,,,,,,,,,,,,,,,,,,,,,,,,,,,
,,29,10,${e://Field/PROLIFIC_PID,M,26,2023-11-08_19h01.44.363,MouseEye_CC,2023.2.2,Win32,58.82352941,1.28,,,1920,1080,66.72,4.31,"664.56, 248.04, 176.36, 239.53, 122.57, 28.02, 124.01",965,11.64601932,50.19434327,27.83653633,Failed,168.15105,,,,,,,,,,,,,,,,,,,,,training,1,11,0,left,a,,,,,250.932,251.03,35.84,-0.944335938,-2.222229004,1,0,0,0.098,fixationPoint,251.03,251.131,251.131,252.43,35.84,10240,616.96,a,1,1.284,,252.43,252.63,,,,,,,,29,164,120,-122,68,-215,16,-163,208,-176,-76,-165,-118,-78,-72,174,-19,78,-128,161,-119,112,163,174,22,180,360,180,180,270,180,360,360,270,90,360,,,,,,,,,,,252.63,252.63,,0,10,10,10,1,2,repeated,,,,,,,,,,,,,,,,,,,,,,,,,,,,,,,,,,,,,,,,,,,,,,,,,
,,29,10,${e://Field/PROLIFIC_PID,M,26,2023-11-08_19h01.44.363,MouseEye_CC,2023.2.2,Win32,58.82352941,1.28,,,1920,1080,66.72,4.31,"664.56, 248.04, 176.36, 239.53, 122.57, 28.02, 124.01",965,11.64601932,50.19434327,27.83653633,Failed,168.15105,,,,,,,,,,,,,,,,,,,,,training,1,12,180,right,s,,,,,252.631,252.73,35.84,-0.944335938,-2.222229004,1,0,0,0.099,fixationPoint,252.73,252.83,252.83,253.498,35.84,10240,616.96,s,1,0.662,,253.498,253.697,,,,,,,,30,217,124,-122,68,-17,217,-68,124,-116,-116,-160,-168,-78,-72,223,-27,80,-219,161,-119,18,16,128,113,360,270,90,360,180,180,180,90,360,90,270,,,,,,,,,,,253.697,253.698,,0,11,11,11,1,14,novel,,,,,,,,,,,,,,,,,,,,,,,,,,,,,,,,,,,,,,,,,,,,,,,,,
,,29,10,${e://Field/PROLIFIC_PID,M,26,2023-11-08_19h01.44.363,MouseEye_CC,2023.2.2,Win32,58.82352941,1.28,,,1920,1080,66.72,4.31,"664.56, 248.04, 176.36, 239.53, 122.57, 28.02, 124.01",965,11.64601932,50.19434327,27.83653633,Failed,168.15105,,,,,,,,,,,,,,,,,,,,,training,1,13,0,left,a,,,,,253.698,253.814,35.84,-0.944335938,-2.222229004,1,0,0,0.116,fixationPoint,253.814,253.914,253.914,255.497,35.84,10240,616.96,a,1,1.567,,255.497,255.697,,,,,,,,72,-165,-118,174,22,208,18,170,167,-115,168,-74,22,-65,70,119,-23,116,-163,78,-128,-117,-218,-78,-72,270,360,360,360,180,90,360,90,270,270,270,,,,,,,,,,,255.697,255.697,,0,12,12,12,1,10,novel,,,,,,,,,,,,,,,,,,,,,,,,,,,,,,,,,,,,,,,,,,,,,,,,,
,,29,10,${e://Field/PROLIFIC_PID,M,26,2023-11-08_19h01.44.363,MouseEye_CC,2023.2.2,Win32,58.82352941,1.28,,,1920,1080,66.72,4.31,"664.56, 248.04, 176.36, 239.53, 122.57, 28.02, 124.01",965,11.64601932,50.19434327,27.83653633,Failed,168.15105,,,,,,,,,,,,,,,,,,,,,training,1,14,180,right,s,,,,,255.697,255.797,35.84,-0.944335938,-2.222229004,1,0,0,0.1,fixationPoint,255.797,255.897,255.897,257.181,35.84,10240,616.96,s,1,1.266,,257.181,257.381,,,,,,,,95,-24,-224,208,18,18,16,65,164,-32,67,-209,74,-75,224,125,-224,215,-175,31,-162,-160,-168,-221,-28,270,270,90,180,180,360,90,180,180,180,360,,,,,,,,,,,257.381,257.381,,0,13,13,13,1,5,repeated,,,,,,,,,,,,,,,,,,,,,,,,,,,,,,,,,,,,,,,,,,,,,,,,,
,,29,10,${e://Field/PROLIFIC_PID,M,26,2023-11-08_19h01.44.363,MouseEye_CC,2023.2.2,Win32,58.82352941,1.28,,,1920,1080,66.72,4.31,"664.56, 248.04, 176.36, 239.53, 122.57, 28.02, 124.01",965,11.64601932,50.19434327,27.83653633,Failed,168.15105,,,,,,,,,,,,,,,,,,,,,training,1,15,0,left,a,,,,,257.381,257.497,35.84,-0.944335938,-2.222229004,1,0,0,0.116,fixationPoint,257.497,257.597,257.597,258.815,35.84,10240,616.96,a,1,1.214,,258.815,259.014,,,,,,,,74,-79,-126,65,164,170,167,30,126,-164,175,-122,68,-27,122,124,-118,161,-64,216,-216,-160,-168,-77,-31,90,270,90,360,360,180,270,360,180,90,90,,,,,,,,,,,259.014,259.014,,0,14,14,14,1,9,novel,,,,,,,,,,,,,,,,,,,,,,,,,,,,,,,,,,,,,,,,,,,,,,,,,
,,29,10,${e://Field/PROLIFIC_PID,M,26,2023-11-08_19h01.44.363,MouseEye_CC,2023.2.2,Win32,58.82352941,1.28,,,1920,1080,66.72,4.31,"664.56, 248.04, 176.36, 239.53, 122.57, 28.02, 124.01",965,11.64601932,50.19434327,27.83653633,Failed,168.15105,,,,,,,,,,,,,,,,,,,,,training,1,16,180,right,s,,,,,259.015,259.148,35.84,-0.944335938,-2.222229004,1,0,0,0.132,fixationPoint,259.148,259.247,259.247,260.747,35.84,10240,616.96,s,1,1.469,,260.747,260.947,,,,,,,,6,21,208,-29,175,-73,163,-75,224,-117,-218,-32,-72,-79,-126,27,-75,119,-23,72,-21,212,167,171,212,90,90,90,180,90,270,180,360,90,90,180,,,,,,,,,,,260.948,262.58,space,0,15,15,15,1,13,novel,1.612,,,,,,,,,,,,,,,,,,,,,,,,,,,,,,,,,,,,,,,,,,,,,,,,
,,29,10,${e://Field/PROLIFIC_PID,M,26,2023-11-08_19h01.44.363,MouseEye_CC,2023.2.2,Win32,58.82352941,1.28,,,1920,1080,66.72,4.31,"664.56, 248.04, 176.36, 239.53, 122.57, 28.02, 124.01",965,11.64601932,50.19434327,27.83653633,Failed,168.15105,,,,,,,,,,,,,,,,,,,,,training,2,1,180,right,s,,,,,262.58,263.064,35.84,-0.944335938,-3.333374023,1,0,0,0.483,fixationPoint,263.064,263.163,263.163,265.465,35.84,10240,616.96,s,1,2.284,,265.465,265.665,,,,,,,,71,-215,-119,212,215,26,175,170,167,-74,22,-65,70,-213,175,72,-21,125,-224,223,-27,-121,-21,-218,-174,360,360,180,90,360,90,180,270,180,360,90,,,,,,,,,,,265.665,265.668,,0,16,16,16,1,6,repeated,,,,,,,,,,,,,,,,,,,,,,,,,,,,,,,,,,,,,,,,,,,,,,,,,
,,29,10,${e://Field/PROLIFIC_PID,M,26,2023-11-08_19h01.44.363,MouseEye_CC,2023.2.2,Win32,58.82352941,1.28,,,1920,1080,66.72,4.31,"664.56, 248.04, 176.36, 239.53, 122.57, 28.02, 124.01",965,11.64601932,50.19434327,27.83653633,Failed,168.15105,,,,,,,,,,,,,,,,,,,,,training,2,2,180,right,s,,,,,265.668,265.781,35.84,-0.944335938,-3.333374023,1,0,0,0.113,fixationPoint,265.781,265.88,265.88,267.066,35.84,10240,616.96,s,1,1.168,,267.066,267.264,,,,,,,,87,76,-169,164,120,128,113,65,164,-213,175,-29,175,-119,124,-78,-218,-32,-72,-176,-19,64,-76,31,-162,360,360,270,270,270,270,360,180,360,360,270,,,,,,,,,,,267.264,267.264,,0,17,17,17,1,12,novel,,,,,,,,,,,,,,,,,,,,,,,,,,,,,,,,,,,,,,,,,,,,,,,,,
,,29,10,${e://Field/PROLIFIC_PID,M,26,2023-11-08_19h01.44.363,MouseEye_CC,2023.2.2,Win32,58.82352941,1.28,,,1920,1080,66.72,4.31,"664.56, 248.04, 176.36, 239.53, 122.57, 28.02, 124.01",965,11.64601932,50.19434327,27.83653633,Failed,168.15105,,,,,,,,,,,,,,,,,,,,,training,2,3,180,right,s,,,,,267.264,267.381,35.84,-0.944335938,-3.333374023,1,0,0,0.117,fixationPoint,267.381,267.482,267.482,268.23,35.84,10240,616.96,s,1,0.717,,268.23,268.43,,,,,,,,68,114,-78,212,215,18,16,174,75,-163,208,-28,28,-75,224,-221,-28,-176,-19,-116,-116,172,-224,80,-219,270,270,270,180,90,360,90,180,180,180,360,,,,,,,,,,,268.43,268.43,,0,18,18,18,1,8,repeated,,,,,,,,,,,,,,,,,,,,,,,,,,,,,,,,,,,,,,,,,,,,,,,,,
,,29,10,${e://Field/PROLIFIC_PID,M,26,2023-11-08_19h01.44.363,MouseEye_CC,2023.2.2,Win32,58.82352941,1.28,,,1920,1080,66.72,4.31,"664.56, 248.04, 176.36, 239.53, 122.57, 28.02, 124.01",965,11.64601932,50.19434327,27.83653633,Failed,168.15105,,,,,,,,,,,,,,,,,,,,,training,2,4,0,left,a,,,,,268.43,268.514,35.84,-0.944335938,-3.333374023,1,0,0,0.083,fixationPoint,268.514,268.613,268.613,270.165,35.84,10240,616.96,a,1,1.533,,270.165,270.364,,,,,,,,13,-115,168,112,72,212,67,164,120,-215,-119,-77,-31,-64,-171,27,-75,20,-128,214,-112,-29,175,-122,68,180,180,90,90,90,360,90,90,360,360,270,,,,,,,,,,,270.364,270.364,,0,19,19,19,1,15,novel,,,,,,,,,,,,,,,,,,,,,,,,,,,,,,,,,,,,,,,,,,,,,,,,,
,,29,10,${e://Field/PROLIFIC_PID,M,26,2023-11-08_19h01.44.363,MouseEye_CC,2023.2.2,Win32,58.82352941,1.28,,,1920,1080,66.72,4.31,"664.56, 248.04, 176.36, 239.53, 122.57, 28.02, 124.01",965,11.64601932,50.19434327,27.83653633,Failed,168.15105,,,,,,,,,,,,,,,,,,,,,training,2,5,180,right,s,,,,,270.364,270.447,35.84,-0.944335938,-3.333374023,1,0,0,0.083,fixationPoint,270.447,270.547,270.547,271.13,35.84,10240,616.96,s,1,0.561,,271.13,271.33,,,,,,,,6,21,208,-73,163,-29,175,-211,215,-218,-174,-221,-28,-176,-19,72,-21,78,-128,64,-76,72,30,128,24,90,90,180,180,90,180,360,180,270,270,90,,,,,,,,,,,271.33,271.33,,0,20,20,20,1,13,novel,,,,,,,,,,,,,,,,,,,,,,,,,,,,,,,,,,,,,,,,,,,,,,,,,
,,29,10,${e://Field/PROLIFIC_PID,M,26,2023-11-08_19h01.44.363,MouseEye_CC,2023.2.2,Win32,58.82352941,1.28,,,1920,1080,66.72,4.31,"664.56, 248.04, 176.36, 239.53, 122.57, 28.02, 124.01",965,11.64601932,50.19434327,27.83653633,Failed,168.15105,,,,,,,,,,,,,,,,,,,,,training,2,6,0,left,a,,,,,271.331,271.447,35.84,-0.944335938,-3.333374023,1,0,0,0.116,fixationPoint,271.447,271.547,271.547,273.78,35.84,10240,616.96,a,1,2.206,,273.781,273.981,,,,,,,,30,217,124,-173,65,-164,175,-163,208,-218,-174,-215,-119,-117,-218,216,-216,64,-76,161,-64,17,74,68,222,270,270,360,90,180,270,270,270,90,270,270,,,,,,,,,,,273.981,273.981,,0,21,21,21,1,14,novel,,,,,,,,,,,,,,,,,,,,,,,,,,,,,,,,,,,,,,,,,,,,,,,,,
,,29,10,${e://Field/PROLIFIC_PID,M,26,2023-11-08_19h01.44.363,MouseEye_CC,2023.2.2,Win32,58.82352941,1.28,,,1920,1080,66.72,4.31,"664.56, 248.04, 176.36, 239.53, 122.57, 28.02, 124.01",965,11.64601932,50.19434327,27.83653633,Failed,168.15105,,,,,,,,,,,,,,,,,,,,,training,2,7,0,left,a,,,,,273.981,274.048,35.84,-0.944335938,-3.333374023,1,0,0,0.067,fixationPoint,274.048,274.147,274.147,275.248,35.84,10240,616.96,a,1,1.076,,275.248,275.447,,,,,,,,29,164,120,-122,68,-215,16,-163,208,-176,-76,-165,-118,-78,-72,174,-19,78,-128,161,-119,112,163,174,22,90,180,270,90,270,90,360,180,180,90,180,,,,,,,,,,,275.447,275.447,,0,22,22,22,1,2,repeated,,,,,,,,,,,,,,,,,,,,,,,,,,,,,,,,,,,,,,,,,,,,,,,,,
,,29,10,${e://Field/PROLIFIC_PID,M,26,2023-11-08_19h01.44.363,MouseEye_CC,2023.2.2,Win32,58.82352941,1.28,,,1920,1080,66.72,4.31,"664.56, 248.04, 176.36, 239.53, 122.57, 28.02, 124.01",965,11.64601932,50.19434327,27.83653633,Failed,168.15105,,,,,,,,,,,,,,,,,,,,,training,2,8,0,left,a,,,,,275.448,275.564,35.84,-0.944335938,-3.333374023,1,0,0,0.116,fixationPoint,275.564,275.664,275.664,278.164,35.84,10240,616.96,a,1,2.474,,278.164,278.364,,,,,,,,95,-24,-224,208,18,18,16,65,164,-32,67,-209,74,-75,224,125,-224,215,-175,31,-162,-160,-168,-221,-28,90,270,270,180,270,90,180,270,180,90,180,,,,,,,,,,,278.364,278.364,,0,23,23,23,1,5,repeated,,,,,,,,,,,,,,,,,,,,,,,,,,,,,,,,,,,,,,,,,,,,,,,,,
,,29,10,${e://Field/PROLIFIC_PID,M,26,2023-11-08_19h01.44.363,MouseEye_CC,2023.2.2,Win32,58.82352941,1.28,,,1920,1080,66.72,4.31,"664.56, 248.04, 176.36, 239.53, 122.57, 28.02, 124.01",965,11.64601932,50.19434327,27.83653633,Failed,168.15105,,,,,,,,,,,,,,,,,,,,,training,2,9,180,right,s,,,,,278.365,278.464,35.84,-0.944335938,-3.333374023,1,0,0,0.099,fixationPoint,278.464,278.563,278.563,280.513,35.84,10240,616.96,s,1,1.929,,280.513,280.715,,,,,,,,72,-165,-118,128,113,217,124,69,114,-215,16,-32,67,-74,22,214,-112,161,-119,161,-64,-77,-31,-221,-28,180,180,360,90,180,360,270,270,360,270,270,,,,,,,,,,,280.715,280.716,,0,24,24,24,1,10,novel,,,,,,,,,,,,,,,,,,,,,,,,,,,,,,,,,,,,,,,,,,,,,,,,,
,,29,10,${e://Field/PROLIFIC_PID,M,26,2023-11-08_19h01.44.363,MouseEye_CC,2023.2.2,Win32,58.82352941,1.28,,,1920,1080,66.72,4.31,"664.56, 248.04, 176.36, 239.53, 122.57, 28.02, 124.01",965,11.64601932,50.19434327,27.83653633,Failed,168.15105,,,,,,,,,,,,,,,,,,,,,training,2,10,180,right,s,,,,,280.716,280.813,35.84,-0.944335938,-3.333374023,1,0,0,0.097,fixationPoint,280.814,280.914,280.914,281.864,35.84,10240,616.96,s,1,0.926,,281.864,282.063,,,,,,,,88,116,-163,170,167,68,68,128,24,-32,67,-119,124,-164,117,-117,-218,-216,-65,-121,-21,80,-219,214,-112,360,360,270,180,270,180,90,360,90,360,360,,,,,,,,,,,282.063,282.063,,0,25,25,25,1,7,repeated,,,,,,,,,,,,,,,,,,,,,,,,,,,,,,,,,,,,,,,,,,,,,,,,,
,,29,10,${e://Field/PROLIFIC_PID,M,26,2023-11-08_19h01.44.363,MouseEye_CC,2023.2.2,Win32,58.82352941,1.28,,,1920,1080,66.72,4.31,"664.56, 248.04, 176.36, 239.53, 122.57, 28.02, 124.01",965,11.64601932,50.19434327,27.83653633,Failed,168.15105,,,,,,,,,,,,,,,,,,,,,training,2,11,0,left,a,,,,,282.064,282.13,35.84,-0.944335938,-3.333374023,1,0,0,0.066,fixationPoint,282.13,282.231,282.231,288.43,35.84,10240,616.96,a,1,6.175,,288.43,288.633,,,,,,,,33,-122,68,171,212,170,167,65,164,-121,-21,-27,-20,-116,-116,168,-163,124,-118,174,-19,-167,28,-32,67,270,180,360,360,270,90,90,270,270,270,360,,,,,,,,,,,288.633,288.633,,0,26,26,26,1,16,novel,,,,,,,,,,,,,,,,,,,,,,,,,,,,,,,,,,,,,,,,,,,,,,,,,
,,29,10,${e://Field/PROLIFIC_PID,M,26,2023-11-08_19h01.44.363,MouseEye_CC,2023.2.2,Win32,58.82352941,1.28,,,1920,1080,66.72,4.31,"664.56, 248.04, 176.36, 239.53, 122.57, 28.02, 124.01",965,11.64601932,50.19434327,27.83653633,Failed,168.15105,,,,,,,,,,,,,,,,,,,,,training,2,12,180,right,s,,,,,288.633,288.797,35.84,-0.944335938,-3.333374023,1,0,0,0.164,fixationPoint,288.797,288.898,288.898,290.213,35.84,10240,616.96,s,1,1.283,,290.214,290.414,,,,,,,,74,-79,-126,112,72,128,113,217,124,-29,175,-213,175,-74,22,64,-76,168,-163,124,-118,-32,-72,-165,-118,90,90,360,90,270,270,90,180,180,90,180,,,,,,,,,,,290.414,290.414,,0,27,27,27,1,9,novel,,,,,,,,,,,,,,,,,,,,,,,,,,,,,,,,,,,,,,,,,,,,,,,,,
,,29,10,${e://Field/PROLIFIC_PID,M,26,2023-11-08_19h01.44.363,MouseEye_CC,2023.2.2,Win32,58.82352941,1.28,,,1920,1080,66.72,4.31,"664.56, 248.04, 176.36, 239.53, 122.57, 28.02, 124.01",965,11.64601932,50.19434327,27.83653633,Failed,168.15105,,,,,,,,,,,,,,,,,,,,,training,2,13,0,left,a,,,,,290.414,290.497,35.84,-0.944335938,-3.333374023,1,0,0,0.083,fixationPoint,290.497,290.597,290.597,291.348,35.84,10240,616.96,a,1,0.733,,291.348,291.547,,,,,,,,76,20,-128,21,208,72,30,212,67,-209,74,-164,117,-28,28,-117,-218,-214,-220,-78,-72,78,-128,172,-224,360,90,270,360,180,90,270,270,360,180,360,,,,,,,,,,,291.547,291.547,,0,28,28,28,1,11,novel,,,,,,,,,,,,,,,,,,,,,,,,,,,,,,,,,,,,,,,,,,,,,,,,,
,,29,10,${e://Field/PROLIFIC_PID,M,26,2023-11-08_19h01.44.363,MouseEye_CC,2023.2.2,Win32,58.82352941,1.28,,,1920,1080,66.72,4.31,"664.56, 248.04, 176.36, 239.53, 122.57, 28.02, 124.01",965,11.64601932,50.19434327,27.83653633,Failed,168.15105,,,,,,,,,,,,,,,,,,,,,training,2,14,180,right,s,,,,,291.548,291.63,35.84,-0.944335938,-3.333374023,1,0,0,0.082,fixationPoint,291.63,291.73,291.73,292.881,35.84,10240,616.96,s,1,1.126,,292.881,293.08,,,,,,,,27,69,114,-68,124,-167,28,-173,65,-121,-21,-165,-118,-24,-224,168,-163,124,-118,116,-163,21,208,128,113,90,270,180,90,90,180,90,90,180,360,180,,,,,,,,,,,293.08,293.08,,0,29,29,29,1,1,repeated,,,,,,,,,,,,,,,,,,,,,,,,,,,,,,,,,,,,,,,,,,,,,,,,,
,,29,10,${e://Field/PROLIFIC_PID,M,26,2023-11-08_19h01.44.363,MouseEye_CC,2023.2.2,Win32,58.82352941,1.28,,,1920,1080,66.72,4.31,"664.56, 248.04, 176.36, 239.53, 122.57, 28.02, 124.01",965,11.64601932,50.19434327,27.83653633,Failed,168.15105,,,,,,,,,,,,,,,,,,,,,training,2,15,0,left,a,,,,,293.08,293.164,35.84,-0.944335938,-3.333374023,1,0,0,0.084,fixationPoint,293.164,293.263,293.263,299.664,35.84,10240,616.96,a,1,6.368,,299.664,299.864,,,,,,,,25,-27,122,128,113,112,72,65,164,-78,-218,-221,-28,-160,-168,27,-75,174,-19,26,-208,-211,215,-213,175,360,360,270,90,360,360,90,90,90,90,360,,,,,,,,,,,299.864,299.864,,0,30,30,30,1,3,repeated,,,,,,,,,,,,,,,,,,,,,,,,,,,,,,,,,,,,,,,,,,,,,,,,,
,,29,10,${e://Field/PROLIFIC_PID,M,26,2023-11-08_19h01.44.363,MouseEye_CC,2023.2.2,Win32,58.82352941,1.28,,,1920,1080,66.72,4.31,"664.56, 248.04, 176.36, 239.53, 122.57, 28.02, 124.01",965,11.64601932,50.19434327,27.83653633,Failed,168.15105,,,,,,,,,,,,,,,,,,,,,training,2,16,0,left,a,,,,,299.864,299.947,35.84,-0.944335938,-3.333374023,1,0,0,0.083,fixationPoint,299.947,300.047,300.047,300.714,35.84,10240,616.96,a,1,0.634,,300.714,300.913,,,,,,,,14,-73,163,125,208,69,114,112,163,-122,-165,-78,-218,-117,-218,20,-128,216,-69,114,-78,-128,217,-209,74,360,180,180,90,90,270,360,360,360,360,360,,,,,,,,,,,300.913,305.064,space,0,31,31,31,1,4,repeated,4.124,,,,,,,,,,,,,,,,,,,,,,,,,,,,,,,,,,,,,,,,,,,,,,,,
,,29,10,${e://Field/PROLIFIC_PID,M,26,2023-11-08_19h01.44.363,MouseEye_CC,2023.2.2,Win32,58.82352941,1.28,,,1920,1080,66.72,4.31,"664.56, 248.04, 176.36, 239.53, 122.57, 28.02, 124.01",965,11.64601932,50.19434327,27.83653633,Failed,168.15105,,,,,,,,,,,,,,,,,,,,,training,3,1,0,left,a,,,,,305.071,305.78,35.84,-0.944335938,-3.333374023,1,0,0,0.709,fixationPoint,305.78,305.881,305.881,307.581,35.84,10240,616.96,a,1,1.669,,307.581,307.78,,,,,,,,72,-165,-118,212,167,69,114,174,22,-29,175,-209,74,-164,117,172,-224,116,-163,114,-78,-64,-171,-218,-174,360,90,270,360,360,90,90,180,180,360,360,,,,,,,,,,,307.78,307.783,,0,32,32,32,1,10,novel,,,,,,,,,,,,,,,,,,,,,,,,,,,,,,,,,,,,,,,,,,,,,,,,,
,,29,10,${e://Field/PROLIFIC_PID,M,26,2023-11-08_19h01.44.363,MouseEye_CC,2023.2.2,Win32,58.82352941,1.28,,,1920,1080,66.72,4.31,"664.56, 248.04, 176.36, 239.53, 122.57, 28.02, 124.01",965,11.64601932,50.19434327,27.83653633,Failed,168.15105,,,,,,,,,,,,,,,,,,,,,training,3,2,0,left,a,,,,,307.783,307.897,35.84,-0.944335938,-3.333374023,1,0,0,0.114,fixationPoint,307.897,307.997,307.997,309.781,35.84,10240,616.96,a,1,1.764,,309.781,309.98,,,,,,,,68,114,-78,212,215,18,16,174,75,-163,208,-28,28,-75,224,-221,-28,-176,-19,-116,-116,172,-224,80,-219,180,360,360,360,90,360,360,180,270,90,180,,,,,,,,,,,309.98,309.98,,0,33,33,33,1,8,repeated,,,,,,,,,,,,,,,,,,,,,,,,,,,,,,,,,,,,,,,,,,,,,,,,,
,,29,10,${e://Field/PROLIFIC_PID,M,26,2023-11-08_19h01.44.363,MouseEye_CC,2023.2.2,Win32,58.82352941,1.28,,,1920,1080,66.72,4.31,"664.56, 248.04, 176.36, 239.53, 122.57, 28.02, 124.01",965,11.64601932,50.19434327,27.83653633,Failed,168.15105,,,,,,,,,,,,,,,,,,,,,training,3,3,0,left,a,,,,,309.981,310.23,35.84,-0.944335938,-3.333374023,1,0,0,0.249,fixationPoint,310.23,310.331,310.331,311.331,35.84,10240,616.96,a,1,0.97,,311.331,311.532,,,,,,,,14,-73,163,125,208,69,114,112,163,-122,-165,-78,-218,-117,-218,20,-128,216,-69,114,-78,-128,217,-209,74,360,90,360,270,180,180,360,90,360,360,270,,,,,,,,,,,311.532,311.532,,0,34,34,34,1,4,repeated,,,,,,,,,,,,,,,,,,,,,,,,,,,,,,,,,,,,,,,,,,,,,,,,,
,,29,10,${e://Field/PROLIFIC_PID,M,26,2023-11-08_19h01.44.363,MouseEye_CC,2023.2.2,Win32,58.82352941,1.28,,,1920,1080,66.72,4.31,"664.56, 248.04, 176.36, 239.53, 122.57, 28.02, 124.01",965,11.64601932,50.19434327,27.83653633,Failed,168.15105,,,,,,,,,,,,,,,,,,,,,training,3,4,0,left,a,,,,,311.532,311.631,35.84,-0.944335938,-3.333374023,1,0,0,0.098,fixationPoint,311.631,311.731,311.731,313.55,35.84,10240,616.96,a,1,1.8,,313.55,313.746,,,,,,,,30,217,124,-167,28,-27,122,-215,16,-24,-224,-176,-19,-218,-174,168,-163,78,-128,161,-64,208,18,68,222,90,180,360,360,180,360,360,90,360,360,90,,,,,,,,,,,313.746,313.747,,0,35,35,35,1,14,novel,,,,,,,,,,,,,,,,,,,,,,,,,,,,,,,,,,,,,,,,,,,,,,,,,
,,29,10,${e://Field/PROLIFIC_PID,M,26,2023-11-08_19h01.44.363,MouseEye_CC,2023.2.2,Win32,58.82352941,1.28,,,1920,1080,66.72,4.31,"664.56, 248.04, 176.36, 239.53, 122.57, 28.02, 124.01",965,11.64601932,50.19434327,27.83653633,Failed,168.15105,,,,,,,,,,,,,,,,,,,,,training,3,5,180,right,s,,,,,313.748,313.847,35.84,-0.944335938,-3.333374023,1,0,0,0.099,fixationPoint,313.847,313.947,313.947,315.164,35.84,10240,616.96,s,1,1.194,,315.164,315.363,,,,,,,,76,20,-128,26,175,65,164,212,67,-17,217,-215,16,-209,74,-117,-218,-27,-20,-215,-119,168,-163,76,-169,90,360,270,360,360,360,360,90,180,180,90,,,,,,,,,,,315.363,315.363,,0,36,36,36,1,11,novel,,,,,,,,,,,,,,,,,,,,,,,,,,,,,,,,,,,,,,,,,,,,,,,,,
,,29,10,${e://Field/PROLIFIC_PID,M,26,2023-11-08_19h01.44.363,MouseEye_CC,2023.2.2,Win32,58.82352941,1.28,,,1920,1080,66.72,4.31,"664.56, 248.04, 176.36, 239.53, 122.57, 28.02, 124.01",965,11.64601932,50.19434327,27.83653633,Failed,168.15105,,,,,,,,,,,,,,,,,,,,,training,3,6,0,left,a,,,,,315.364,315.447,35.84,-0.944335938,-3.333374023,1,0,0,0.083,fixationPoint,315.447,315.55,315.55,317.131,35.84,10240,616.96,a,1,1.566,,317.131,317.33,,,,,,,,71,-215,-119,212,215,26,175,170,167,-74,22,-65,70,-213,175,72,-21,125,-224,223,-27,-121,-21,-218,-174,180,90,90,270,360,180,180,90,90,90,180,,,,,,,,,,,317.33,317.33,,0,37,37,37,1,6,repeated,,,,,,,,,,,,,,,,,,,,,,,,,,,,,,,,,,,,,,,,,,,,,,,,,
,,29,10,${e://Field/PROLIFIC_PID,M,26,2023-11-08_19h01.44.363,MouseEye_CC,2023.2.2,Win32,58.82352941,1.28,,,1920,1080,66.72,4.31,"664.56, 248.04, 176.36, 239.53, 122.57, 28.02, 124.01",965,11.64601932,50.19434327,27.83653633,Failed,168.15105,,,,,,,,,,,,,,,,,,,,,training,3,7,180,right,s,,,,,317.33,317.447,35.84,-0.944335938,-3.333374023,1,0,0,0.117,fixationPoint,317.448,317.547,317.547,318.23,35.84,10240,616.96,s,1,0.665,,318.23,318.43,,,,,,,,27,69,114,-68,124,-167,28,-173,65,-121,-21,-165,-118,-24,-224,168,-163,124,-118,116,-163,21,208,128,113,180,180,180,180,360,180,360,360,180,360,180,,,,,,,,,,,318.43,318.43,,0,38,38,38,1,1,repeated,,,,,,,,,,,,,,,,,,,,,,,,,,,,,,,,,,,,,,,,,,,,,,,,,
,,29,10,${e://Field/PROLIFIC_PID,M,26,2023-11-08_19h01.44.363,MouseEye_CC,2023.2.2,Win32,58.82352941,1.28,,,1920,1080,66.72,4.31,"664.56, 248.04, 176.36, 239.53, 122.57, 28.02, 124.01",965,11.64601932,50.19434327,27.83653633,Failed,168.15105,,,,,,,,,,,,,,,,,,,,,training,3,8,180,right,s,,,,,318.43,318.547,35.84,-0.944335938,-3.333374023,1,0,0,0.117,fixationPoint,318.547,318.647,318.647,319.33,35.84,10240,616.96,s,1,0.663,,319.331,319.531,,,,,,,,6,21,208,-173,65,-73,163,-215,16,-121,-21,-78,-72,-221,-28,31,-162,124,-118,216,-216,212,167,128,113,360,180,90,90,180,90,180,270,360,360,90,,,,,,,,,,,319.531,319.531,,0,39,39,39,1,13,novel,,,,,,,,,,,,,,,,,,,,,,,,,,,,,,,,,,,,,,,,,,,,,,,,,
,,29,10,${e://Field/PROLIFIC_PID,M,26,2023-11-08_19h01.44.363,MouseEye_CC,2023.2.2,Win32,58.82352941,1.28,,,1920,1080,66.72,4.31,"664.56, 248.04, 176.36, 239.53, 122.57, 28.02, 124.01",965,11.64601932,50.19434327,27.83653633,Failed,168.15105,,,,,,,,,,,,,,,,,,,,,training,3,9,180,right,s,,,,,319.531,319.614,35.84,-0.944335938,-3.333374023,1,0,0,0.083,fixationPoint,319.614,319.713,319.713,320.763,35.84,10240,616.96,s,1,1.03,,320.763,320.963,,,,,,,,88,116,-163,170,167,68,68,128,24,-32,67,-119,124,-164,117,-117,-218,-216,-65,-121,-21,80,-219,214,-112,90,180,90,90,360,270,360,270,90,90,180,,,,,,,,,,,320.963,320.963,,0,40,40,40,1,7,repeated,,,,,,,,,,,,,,,,,,,,,,,,,,,,,,,,,,,,,,,,,,,,,,,,,
,,29,10,${e://Field/PROLIFIC_PID,M,26,2023-11-08_19h01.44.363,MouseEye_CC,2023.2.2,Win32,58.82352941,1.28,,,1920,1080,66.72,4.31,"664.56, 248.04, 176.36, 239.53, 122.57, 28.02, 124.01",965,11.64601932,50.19434327,27.83653633,Failed,168.15105,,,,,,,,,,,,,,,,,,,,,training,3,10,180,right,s,,,,,320.964,321.047,35.84,-0.944335938,-3.333374023,1,0,0,0.083,fixationPoint,321.047,321.148,321.148,322.464,35.84,10240,616.96,s,1,1.301,,322.464,322.663,,,,,,,,95,-24,-224,208,18,18,16,65,164,-32,67,-209,74,-75,224,125,-224,215,-175,31,-162,-160,-168,-221,-28,360,270,90,360,360,180,360,360,360,360,90,,,,,,,,,,,322.663,322.663,,0,41,41,41,1,5,repeated,,,,,,,,,,,,,,,,,,,,,,,,,,,,,,,,,,,,,,,,,,,,,,,,,
,,29,10,${e://Field/PROLIFIC_PID,M,26,2023-11-08_19h01.44.363,MouseEye_CC,2023.2.2,Win32,58.82352941,1.28,,,1920,1080,66.72,4.31,"664.56, 248.04, 176.36, 239.53, 122.57, 28.02, 124.01",965,11.64601932,50.19434327,27.83653633,Failed,168.15105,,,,,,,,,,,,,,,,,,,,,training,3,11,0,left,a,,,,,322.664,322.797,35.84,-0.944335938,-3.333374023,1,0,0,0.133,fixationPoint,322.797,322.897,322.897,323.58,35.84,10240,616.96,a,1,0.653,,323.58,323.782,,,,,,,,29,164,120,-122,68,-215,16,-163,208,-176,-76,-165,-118,-78,-72,174,-19,78,-128,161,-119,112,163,174,22,270,360,270,180,180,180,270,270,270,270,360,,,,,,,,,,,323.782,323.782,,0,42,42,42,1,2,repeated,,,,,,,,,,,,,,,,,,,,,,,,,,,,,,,,,,,,,,,,,,,,,,,,,
,,29,10,${e://Field/PROLIFIC_PID,M,26,2023-11-08_19h01.44.363,MouseEye_CC,2023.2.2,Win32,58.82352941,1.28,,,1920,1080,66.72,4.31,"664.56, 248.04, 176.36, 239.53, 122.57, 28.02, 124.01",965,11.64601932,50.19434327,27.83653633,Failed,168.15105,,,,,,,,,,,,,,,,,,,,,training,3,12,0,left,a,,,,,323.782,323.897,35.84,-0.944335938,-3.333374023,1,0,0,0.114,fixationPoint,323.897,323.997,323.997,325.614,35.84,10240,616.96,a,1,1.587,,325.614,325.814,,,,,,,,33,-122,68,217,124,128,113,212,215,-64,-171,-215,-119,-221,-28,72,-21,116,-163,172,-224,-128,217,-119,124,90,270,360,270,90,360,360,270,360,90,180,,,,,,,,,,,325.814,325.814,,0,43,43,43,1,16,novel,,,,,,,,,,,,,,,,,,,,,,,,,,,,,,,,,,,,,,,,,,,,,,,,,
,,29,10,${e://Field/PROLIFIC_PID,M,26,2023-11-08_19h01.44.363,MouseEye_CC,2023.2.2,Win32,58.82352941,1.28,,,1920,1080,66.72,4.31,"664.56, 248.04, 176.36, 239.53, 122.57, 28.02, 124.01",965,11.64601932,50.19434327,27.83653633,Failed,168.15105,,,,,,,,,,,,,,,,,,,,,training,3,13,0,left,a,,,,,325.814,325.964,35.84,-0.944335938,-3.333374023,1,0,0,0.15,fixationPoint,325.964,326.063,326.063,326.83,35.84,10240,616.96,a,1,0.743,,326.83,327.03,,,,,,,,25,-27,122,128,113,112,72,65,164,-78,-218,-221,-28,-160,-168,27,-75,174,-19,26,-208,-211,215,-213,175,180,180,90,360,270,90,360,360,270,270,360,,,,,,,,,,,327.03,327.03,,0,44,44,44,1,3,repeated,,,,,,,,,,,,,,,,,,,,,,,,,,,,,,,,,,,,,,,,,,,,,,,,,
,,29,10,${e://Field/PROLIFIC_PID,M,26,2023-11-08_19h01.44.363,MouseEye_CC,2023.2.2,Win32,58.82352941,1.28,,,1920,1080,66.72,4.31,"664.56, 248.04, 176.36, 239.53, 122.57, 28.02, 124.01",965,11.64601932,50.19434327,27.83653633,Failed,168.15105,,,,,,,,,,,,,,,,,,,,,training,3,14,180,right,s,,,,,327.03,327.18,35.84,-0.944335938,-3.333374023,1,0,0,0.15,fixationPoint,327.18,327.28,327.28,328.763,35.84,10240,616.96,s,1,1.459,,328.763,328.963,,,,,,,,74,-79,-126,68,222,21,208,174,75,-120,28,-164,175,-17,217,116,-163,216,-216,214,-112,-173,-216,-214,-220,180,360,270,180,360,180,180,90,90,360,270,,,,,,,,,,,328.963,328.963,,0,45,45,45,1,9,novel,,,,,,,,,,,,,,,,,,,,,,,,,,,,,,,,,,,,,,,,,,,,,,,,,
,,29,10,${e://Field/PROLIFIC_PID,M,26,2023-11-08_19h01.44.363,MouseEye_CC,2023.2.2,Win32,58.82352941,1.28,,,1920,1080,66.72,4.31,"664.56, 248.04, 176.36, 239.53, 122.57, 28.02, 124.01",965,11.64601932,50.19434327,27.83653633,Failed,168.15105,,,,,,,,,,,,,,,,,,,,,training,3,15,180,right,s,,,,,328.964,329.097,35.84,-0.944335938,-3.333374023,1,0,0,0.132,fixationPoint,329.097,329.197,329.197,330.58,35.84,10240,616.96,s,1,1.36,,330.58,330.78,,,,,,,,87,76,-169,69,114,112,163,21,208,-164,175,-73,163,-119,124,-79,-126,-221,-28,-64,-171,216,-69,119,-23,180,270,360,180,90,270,90,90,90,180,180,,,,,,,,,,,330.78,330.78,,0,46,46,46,1,12,novel,,,,,,,,,,,,,,,,,,,,,,,,,,,,,,,,,,,,,,,,,,,,,,,,,
,,29,10,${e://Field/PROLIFIC_PID,M,26,2023-11-08_19h01.44.363,MouseEye_CC,2023.2.2,Win32,58.82352941,1.28,,,1920,1080,66.72,4.31,"664.56, 248.04, 176.36, 239.53, 122.57, 28.02, 124.01",965,11.64601932,50.19434327,27.83653633,Failed,168.15105,,,,,,,,,,,,,,,,,,,,,training,3,16,180,right,s,,,,,330.78,330.931,35.84,-0.944335938,-3.333374023,1,0,0,0.15,fixationPoint,330.931,331.031,331.031,333.263,35.84,10240,616.96,s,1,2.204,,333.263,333.464,,,,,,,,13,-115,168,217,124,128,24,68,68,-27,-20,-24,-224,-77,-31,72,-21,114,-78,26,-208,-167,28,-173,65,270,270,90,90,180,270,270,360,270,90,360,,,,,,,,,,,333.464,334.397,space,0,47,47,47,1,15,novel,0.904,,,,,,,,,,,,,,,,,,,,,,,,,,,,,,,,,,,,,,,,,,,,,,,,
,,29,10,${e://Field/PROLIFIC_PID,M,26,2023-11-08_19h01.44.363,MouseEye_CC,2023.2.2,Win32,58.82352941,1.28,,,1920,1080,66.72,4.31,"664.56, 248.04, 176.36, 239.53, 122.57, 28.02, 124.01",965,11.64601932,50.19434327,27.83653633,Failed,168.15105,,,,,,,,,,,,,,,,,,,,,training,4,1,0,left,a,,,,,334.397,334.681,35.84,-0.944335938,-3.333374023,1,0,0,0.284,fixationPoint,334.681,334.78,334.78,340.164,35.84,10240,616.96,a,1,5.364,,340.164,340.364,,,,,,,,13,-115,168,30,126,212,167,68,68,-160,-168,-30,-164,-79,-126,72,-21,27,-75,216,-69,-173,65,-209,74,90,270,180,90,360,360,90,90,90,180,360,,,,,,,,,,,340.364,340.365,,0,48,48,48,1,15,novel,,,,,,,,,,,,,,,,,,,,,,,,,,,,,,,,,,,,,,,,,,,,,,,,,
,,29,10,${e://Field/PROLIFIC_PID,M,26,2023-11-08_19h01.44.363,MouseEye_CC,2023.2.2,Win32,58.82352941,1.28,,,1920,1080,66.72,4.31,"664.56, 248.04, 176.36, 239.53, 122.57, 28.02, 124.01",965,11.64601932,50.19434327,27.83653633,Failed,168.15105,,,,,,,,,,,,,,,,,,,,,training,4,2,0,left,a,,,,,340.366,340.464,35.84,-0.944335938,-3.333374023,1,0,0,0.097,fixationPoint,340.464,340.564,340.564,341.664,35.84,10240,616.96,a,1,1.07,,341.664,341.864,,,,,,,,6,21,208,-215,16,-68,124,-73,163,-173,-216,-218,-174,-116,-116,64,-76,116,-163,216,-216,26,175,17,74,270,180,90,90,360,360,270,90,360,90,90,,,,,,,,,,,341.864,341.864,,0,49,49,49,1,13,novel,,,,,,,,,,,,,,,,,,,,,,,,,,,,,,,,,,,,,,,,,,,,,,,,,
,,29,10,${e://Field/PROLIFIC_PID,M,26,2023-11-08_19h01.44.363,MouseEye_CC,2023.2.2,Win32,58.82352941,1.28,,,1920,1080,66.72,4.31,"664.56, 248.04, 176.36, 239.53, 122.57, 28.02, 124.01",965,11.64601932,50.19434327,27.83653633,Failed,168.15105,,,,,,,,,,,,,,,,,,,,,training,4,3,0,left,a,,,,,341.864,341.964,35.84,-0.944335938,-3.333374023,1,0,0,0.1,fixationPoint,341.964,342.063,342.063,342.897,35.84,10240,616.96,a,1,0.806,,342.897,343.097,,,,,,,,27,69,114,-68,124,-167,28,-173,65,-121,-21,-165,-118,-24,-224,168,-163,124,-118,116,-163,21,208,128,113,180,360,360,90,90,270,180,90,90,270,180,,,,,,,,,,,343.097,343.097,,0,50,50,50,1,1,repeated,,,,,,,,,,,,,,,,,,,,,,,,,,,,,,,,,,,,,,,,,,,,,,,,,
,,29,10,${e://Field/PROLIFIC_PID,M,26,2023-11-08_19h01.44.363,MouseEye_CC,2023.2.2,Win32,58.82352941,1.28,,,1920,1080,66.72,4.31,"664.56, 248.04, 176.36, 239.53, 122.57, 28.02, 124.01",965,11.64601932,50.19434327,27.83653633,Failed,168.15105,,,,,,,,,,,,,,,,,,,,,training,4,4,180,right,s,,,,,343.097,343.214,35.84,-0.944335938,-3.333374023,1,0,0,0.117,fixationPoint,343.214,343.314,343.314,344.88,35.84,10240,616.96,s,1,1.546,,344.88,345.08,,,,,,,,71,-215,-119,212,215,26,175,170,167,-74,22,-65,70,-213,175,72,-21,125,-224,223,-27,-121,-21,-218,-174,90,90,180,270,90,270,90,90,90,180,270,,,,,,,,,,,345.08,345.08,,0,51,51,51,1,6,repeated,,,,,,,,,,,,,,,,,,,,,,,,,,,,,,,,,,,,,,,,,,,,,,,,,
,,29,10,${e://Field/PROLIFIC_PID,M,26,2023-11-08_19h01.44.363,MouseEye_CC,2023.2.2,Win32,58.82352941,1.28,,,1920,1080,66.72,4.31,"664.56, 248.04, 176.36, 239.53, 122.57, 28.02, 124.01",965,11.64601932,50.19434327,27.83653633,Failed,168.15105,,,,,,,,,,,,,,,,,,,,,training,4,5,0,left,a,,,,,345.08,345.23,35.84,-0.944335938,-3.333374023,1,0,0,0.15,fixationPoint,345.231,345.33,345.331,346.197,35.84,10240,616.96,a,1,0.838,,346.197,346.397,,,,,,,,33,-122,68,68,68,72,30,112,72,-78,-218,-218,-174,-216,-65,215,-175,78,-128,26,-208,-213,175,-209,74,360,270,270,180,180,270,270,90,90,270,360,,,,,,,,,,,346.397,346.397,,0,52,52,52,1,16,novel,,,,,,,,,,,,,,,,,,,,,,,,,,,,,,,,,,,,,,,,,,,,,,,,,
,,29,10,${e://Field/PROLIFIC_PID,M,26,2023-11-08_19h01.44.363,MouseEye_CC,2023.2.2,Win32,58.82352941,1.28,,,1920,1080,66.72,4.31,"664.56, 248.04, 176.36, 239.53, 122.57, 28.02, 124.01",965,11.64601932,50.19434327,27.83653633,Failed,168.15105,,,,,,,,,,,,,,,,,,,,,training,4,6,0,left,a,,,,,346.397,346.497,35.84,-0.944335938,-3.333374023,1,0,0,0.1,fixationPoint,346.497,346.597,346.597,348.131,35.84,10240,616.96,a,1,1.504,,348.131,348.33,,,,,,,,95,-24,-224,208,18,18,16,65,164,-32,67,-209,74,-75,224,125,-224,215,-175,31,-162,-160,-168,-221,-28,270,360,360,270,360,180,270,180,270,270,180,,,,,,,,,,,348.33,348.33,,0,53,53,53,1,5,repeated,,,,,,,,,,,,,,,,,,,,,,,,,,,,,,,,,,,,,,,,,,,,,,,,,
,,29,10,${e://Field/PROLIFIC_PID,M,26,2023-11-08_19h01.44.363,MouseEye_CC,2023.2.2,Win32,58.82352941,1.28,,,1920,1080,66.72,4.31,"664.56, 248.04, 176.36, 239.53, 122.57, 28.02, 124.01",965,11.64601932,50.19434327,27.83653633,Failed,168.15105,,,,,,,,,,,,,,,,,,,,,training,4,7,180,right,s,,,,,348.33,348.463,35.84,-0.944335938,-3.333374023,1,0,0,0.133,fixationPoint,348.463,348.563,348.563,349.181,35.84,10240,616.96,s,1,0.583,,349.181,349.38,,,,,,,,25,-27,122,128,113,112,72,65,164,-78,-218,-221,-28,-160,-168,27,-75,174,-19,26,-208,-211,215,-213,175,270,180,270,90,360,90,360,270,90,90,270,,,,,,,,,,,349.38,349.38,,0,54,54,54,1,3,repeated,,,,,,,,,,,,,,,,,,,,,,,,,,,,,,,,,,,,,,,,,,,,,,,,,
,,29,10,${e://Field/PROLIFIC_PID,M,26,2023-11-08_19h01.44.363,MouseEye_CC,2023.2.2,Win32,58.82352941,1.28,,,1920,1080,66.72,4.31,"664.56, 248.04, 176.36, 239.53, 122.57, 28.02, 124.01",965,11.64601932,50.19434327,27.83653633,Failed,168.15105,,,,,,,,,,,,,,,,,,,,,training,4,8,180,right,s,,,,,349.381,349.48,35.84,-0.944335938,-3.333374023,1,0,0,0.099,fixationPoint,349.48,349.58,349.58,352.663,35.84,10240,616.96,s,1,3.05,,352.663,352.864,,,,,,,,30,217,124,-119,124,-216,116,-215,16,-173,-216,-27,-20,-176,-76,216,-69,168,-163,119,-23,72,30,212,67,180,360,180,270,180,180,180,360,90,180,270,,,,,,,,,,,352.864,352.864,,0,55,55,55,1,14,novel,,,,,,,,,,,,,,,,,,,,,,,,,,,,,,,,,,,,,,,,,,,,,,,,,
,,29,10,${e://Field/PROLIFIC_PID,M,26,2023-11-08_19h01.44.363,MouseEye_CC,2023.2.2,Win32,58.82352941,1.28,,,1920,1080,66.72,4.31,"664.56, 248.04, 176.36, 239.53, 122.57, 28.02, 124.01",965,11.64601932,50.19434327,27.83653633,Failed,168.15105,,,,,,,,,,,,,,,,,,,,,training,4,9,0,left,a,,,,,352.864,352.947,35.84,-0.944335938,-3.333374023,1,0,0,0.083,fixationPoint,352.947,353.047,353.047,354.364,35.84,10240,616.96,a,1,1.29,,354.364,354.563,,,,,,,,74,-79,-126,128,113,174,22,164,120,-173,65,-68,124,-211,215,124,-118,31,-162,172,-224,-116,-72,-221,-28,180,90,90,180,90,360,360,360,360,180,180,,,,,,,,,,,354.564,354.564,,0,56,56,56,1,9,novel,,,,,,,,,,,,,,,,,,,,,,,,,,,,,,,,,,,,,,,,,,,,,,,,,
,,29,10,${e://Field/PROLIFIC_PID,M,26,2023-11-08_19h01.44.363,MouseEye_CC,2023.2.2,Win32,58.82352941,1.28,,,1920,1080,66.72,4.31,"664.56, 248.04, 176.36, 239.53, 122.57, 28.02, 124.01",965,11.64601932,50.19434327,27.83653633,Failed,168.15105,,,,,,,,,,,,,,,,,,,,,training,4,10,180,right,s,,,,,354.564,354.664,35.84,-0.944335938,-3.333374023,1,0,0,0.1,fixationPoint,354.664,354.763,354.764,356.013,35.84,10240,616.96,s,1,1.23,,356.013,356.213,,,,,,,,88,116,-163,170,167,68,68,128,24,-32,67,-119,124,-164,117,-117,-218,-216,-65,-121,-21,80,-219,214,-112,180,180,360,360,180,360,270,270,90,180,90,,,,,,,,,,,356.213,356.214,,0,57,57,57,1,7,repeated,,,,,,,,,,,,,,,,,,,,,,,,,,,,,,,,,,,,,,,,,,,,,,,,,
,,29,10,${e://Field/PROLIFIC_PID,M,26,2023-11-08_19h01.44.363,MouseEye_CC,2023.2.2,Win32,58.82352941,1.28,,,1920,1080,66.72,4.31,"664.56, 248.04, 176.36, 239.53, 122.57, 28.02, 124.01",965,11.64601932,50.19434327,27.83653633,Failed,168.15105,,,,,,,,,,,,,,,,,,,,,training,4,11,180,right,s,,,,,356.214,356.363,35.84,-0.944335938,-3.333374023,1,0,0,0.149,fixationPoint,356.363,356.463,356.463,357.899,35.84,10240,616.96,s,1,1.417,,357.899,358.097,,,,,,,,76,20,-128,125,208,164,120,112,72,-216,116,-163,208,-17,217,-116,-72,-214,-220,-78,-218,161,-119,124,-118,360,180,90,270,90,90,360,360,90,360,270,,,,,,,,,,,358.097,358.097,,0,58,58,58,1,11,novel,,,,,,,,,,,,,,,,,,,,,,,,,,,,,,,,,,,,,,,,,,,,,,,,,
,,29,10,${e://Field/PROLIFIC_PID,M,26,2023-11-08_19h01.44.363,MouseEye_CC,2023.2.2,Win32,58.82352941,1.28,,,1920,1080,66.72,4.31,"664.56, 248.04, 176.36, 239.53, 122.57, 28.02, 124.01",965,11.64601932,50.19434327,27.83653633,Failed,168.15105,,,,,,,,,,,,,,,,,,,,,training,4,12,0,left,a,,,,,358.097,358.164,35.84,-0.944335938,-3.333374023,1,0,0,0.067,fixationPoint,358.164,358.263,358.263,359.363,35.84,10240,616.96,a,1,1.08,,359.363,359.563,,,,,,,,29,164,120,-122,68,-215,16,-163,208,-176,-76,-165,-118,-78,-72,174,-19,78,-128,161,-119,112,163,174,22,90,90,360,270,180,270,360,360,270,270,180,,,,,,,,,,,359.563,359.563,,0,59,59,59,1,2,repeated,,,,,,,,,,,,,,,,,,,,,,,,,,,,,,,,,,,,,,,,,,,,,,,,,
,,29,10,${e://Field/PROLIFIC_PID,M,26,2023-11-08_19h01.44.363,MouseEye_CC,2023.2.2,Win32,58.82352941,1.28,,,1920,1080,66.72,4.31,"664.56, 248.04, 176.36, 239.53, 122.57, 28.02, 124.01",965,11.64601932,50.19434327,27.83653633,Failed,168.15105,,,,,,,,,,,,,,,,,,,,,training,4,13,0,left,a,,,,,359.564,359.698,35.84,-0.944335938,-3.333374023,1,0,0,0.133,fixationPoint,359.698,359.796,359.796,362.18,35.84,10240,616.96,a,1,2.363,,362.18,362.38,,,,,,,,87,76,-169,164,120,21,208,72,30,-167,28,-215,16,-163,208,-117,-218,-218,-174,-215,-119,27,-75,64,-76,90,270,90,180,270,180,180,360,180,360,180,,,,,,,,,,,362.38,362.38,,0,60,60,60,1,12,novel,,,,,,,,,,,,,,,,,,,,,,,,,,,,,,,,,,,,,,,,,,,,,,,,,
,,29,10,${e://Field/PROLIFIC_PID,M,26,2023-11-08_19h01.44.363,MouseEye_CC,2023.2.2,Win32,58.82352941,1.28,,,1920,1080,66.72,4.31,"664.56, 248.04, 176.36, 239.53, 122.57, 28.02, 124.01",965,11.64601932,50.19434327,27.83653633,Failed,168.15105,,,,,,,,,,,,,,,,,,,,,training,4,14,180,right,s,,,,,362.381,362.53,35.84,-0.944335938,-3.333374023,1,0,0,0.149,fixationPoint,362.53,362.63,362.63,363.38,35.84,10240,616.96,s,1,0.717,,363.38,363.58,,,,,,,,68,114,-78,212,215,18,16,174,75,-163,208,-28,28,-75,224,-221,-28,-176,-19,-116,-116,172,-224,80,-219,270,180,360,90,270,180,90,360,270,90,360,,,,,,,,,,,363.58,363.58,,0,61,61,61,1,8,repeated,,,,,,,,,,,,,,,,,,,,,,,,,,,,,,,,,,,,,,,,,,,,,,,,,
,,29,10,${e://Field/PROLIFIC_PID,M,26,2023-11-08_19h01.44.363,MouseEye_CC,2023.2.2,Win32,58.82352941,1.28,,,1920,1080,66.72,4.31,"664.56, 248.04, 176.36, 239.53, 122.57, 28.02, 124.01",965,11.64601932,50.19434327,27.83653633,Failed,168.15105,,,,,,,,,,,,,,,,,,,,,training,4,15,180,right,s,,,,,363.581,363.696,35.84,-0.944335938,-3.333374023,1,0,0,0.115,fixationPoint,363.696,363.797,363.797,364.781,35.84,10240,616.96,s,1,0.95,,364.781,364.98,,,,,,,,14,-73,163,125,208,69,114,112,163,-122,-165,-78,-218,-117,-218,20,-128,216,-69,114,-78,-128,217,-209,74,360,270,360,360,270,270,360,90,180,180,270,,,,,,,,,,,364.98,364.98,,0,62,62,62,1,4,repeated,,,,,,,,,,,,,,,,,,,,,,,,,,,,,,,,,,,,,,,,,,,,,,,,,
,,29,10,${e://Field/PROLIFIC_PID,M,26,2023-11-08_19h01.44.363,MouseEye_CC,2023.2.2,Win32,58.82352941,1.28,,,1920,1080,66.72,4.31,"664.56, 248.04, 176.36, 239.53, 122.57, 28.02, 124.01",965,11.64601932,50.19434327,27.83653633,Failed,168.15105,,,,,,,,,,,,,,,,,,,,,training,4,16,180,right,s,,,,,364.98,365.147,35.84,-0.944335938,-3.333374023,1,0,0,0.166,fixationPoint,365.147,365.248,365.248,366.781,35.84,10240,616.96,s,1,1.513,,366.781,366.98,,,,,,,,72,-165,-118,72,30,65,164,217,124,-17,217,-75,224,-173,65,28,-16,31,-162,172,-224,-176,-19,-176,-76,180,90,360,90,180,90,90,90,90,360,360,,,,,,,,,,,366.98,367.78,space,0,63,63,63,1,10,novel,0.768,,,,,,,,,,,,,,,,,,,,,,,,,,,,,,,,,,,,,,,,,,,,,,,,
,,29,10,${e://Field/PROLIFIC_PID,M,26,2023-11-08_19h01.44.363,MouseEye_CC,2023.2.2,Win32,58.82352941,1.28,,,1920,1080,66.72,4.31,"664.56, 248.04, 176.36, 239.53, 122.57, 28.02, 124.01",965,11.64601932,50.19434327,27.83653633,Failed,168.15105,,,,,,,,,,,,,,,,,,,,,training,5,1,180,right,s,,,,,367.78,368.163,35.84,-0.944335938,-3.333374023,1,0,0,0.383,fixationPoint,368.163,368.263,368.263,369.297,35.84,10240,616.96,s,1,1.01,,369.297,369.496,,,,,,,,76,20,-128,112,163,208,18,65,164,-215,16,-27,122,-122,68,-218,-174,-78,-218,-173,-216,64,-76,27,-75,360,270,360,270,180,270,180,180,360,180,180,,,,,,,,,,,369.496,369.499,,0,64,64,64,1,11,novel,,,,,,,,,,,,,,,,,,,,,,,,,,,,,,,,,,,,,,,,,,,,,,,,,
,,29,10,${e://Field/PROLIFIC_PID,M,26,2023-11-08_19h01.44.363,MouseEye_CC,2023.2.2,Win32,58.82352941,1.28,,,1920,1080,66.72,4.31,"664.56, 248.04, 176.36, 239.53, 122.57, 28.02, 124.01",965,11.64601932,50.19434327,27.83653633,Failed,168.15105,,,,,,,,,,,,,,,,,,,,,training,5,2,0,left,a,,,,,369.499,369.731,35.84,-0.944335938,-3.333374023,1,0,0,0.231,fixationPoint,369.731,369.83,369.83,370.547,35.84,10240,616.96,a,1,0.686,,370.547,370.747,,,,,,,,87,76,-169,212,67,112,163,69,114,-209,74,-216,116,-17,217,-173,-216,-77,-31,-79,-126,119,-23,116,-163,360,90,360,270,180,270,360,180,180,270,90,,,,,,,,,,,370.747,370.747,,0,65,65,65,1,12,novel,,,,,,,,,,,,,,,,,,,,,,,,,,,,,,,,,,,,,,,,,,,,,,,,,
,,29,10,${e://Field/PROLIFIC_PID,M,26,2023-11-08_19h01.44.363,MouseEye_CC,2023.2.2,Win32,58.82352941,1.28,,,1920,1080,66.72,4.31,"664.56, 248.04, 176.36, 239.53, 122.57, 28.02, 124.01",965,11.64601932,50.19434327,27.83653633,Failed,168.15105,,,,,,,,,,,,,,,,,,,,,training,5,3,180,right,s,,,,,370.747,370.863,35.84,-0.944335938,-3.333374023,1,0,0,0.116,fixationPoint,370.863,370.964,370.964,373.113,35.84,10240,616.96,s,1,2.131,,373.113,373.313,,,,,,,,25,-27,122,128,113,112,72,65,164,-78,-218,-221,-28,-160,-168,27,-75,174,-19,26,-208,-211,215,-213,175,180,360,270,360,90,270,360,90,180,360,90,,,,,,,,,,,373.313,373.313,,0,66,66,66,1,3,repeated,,,,,,,,,,,,,,,,,,,,,,,,,,,,,,,,,,,,,,,,,,,,,,,,,
,,29,10,${e://Field/PROLIFIC_PID,M,26,2023-11-08_19h01.44.363,MouseEye_CC,2023.2.2,Win32,58.82352941,1.28,,,1920,1080,66.72,4.31,"664.56, 248.04, 176.36, 239.53, 122.57, 28.02, 124.01",965,11.64601932,50.19434327,27.83653633,Failed,168.15105,,,,,,,,,,,,,,,,,,,,,training,5,4,180,right,s,,,,,373.314,373.397,35.84,-0.944335938,-3.333374023,1,0,0,0.083,fixationPoint,373.397,373.497,373.497,374.464,35.84,10240,616.96,s,1,0.947,,374.464,374.663,,,,,,,,88,116,-163,170,167,68,68,128,24,-32,67,-119,124,-164,117,-117,-218,-216,-65,-121,-21,80,-219,214,-112,360,90,180,360,180,360,270,270,360,360,180,,,,,,,,,,,374.663,374.663,,0,67,67,67,1,7,repeated,,,,,,,,,,,,,,,,,,,,,,,,,,,,,,,,,,,,,,,,,,,,,,,,,
,,29,10,${e://Field/PROLIFIC_PID,M,26,2023-11-08_19h01.44.363,MouseEye_CC,2023.2.2,Win32,58.82352941,1.28,,,1920,1080,66.72,4.31,"664.56, 248.04, 176.36, 239.53, 122.57, 28.02, 124.01",965,11.64601932,50.19434327,27.83653633,Failed,168.15105,,,,,,,,,,,,,,,,,,,,,training,5,5,180,right,s,,,,,374.664,374.764,35.84,-0.944335938,-3.333374023,1,0,0,0.099,fixationPoint,374.764,374.863,374.863,376.78,35.84,10240,616.96,s,1,1.883,,376.78,376.98,,,,,,,,72,-165,-118,68,222,18,16,26,175,-115,168,-163,208,-27,122,161,-119,119,-23,174,-19,-218,-174,-25,-115,180,90,360,180,180,90,270,270,270,180,90,,,,,,,,,,,376.98,376.98,,0,68,68,68,1,10,novel,,,,,,,,,,,,,,,,,,,,,,,,,,,,,,,,,,,,,,,,,,,,,,,,,
,,29,10,${e://Field/PROLIFIC_PID,M,26,2023-11-08_19h01.44.363,MouseEye_CC,2023.2.2,Win32,58.82352941,1.28,,,1920,1080,66.72,4.31,"664.56, 248.04, 176.36, 239.53, 122.57, 28.02, 124.01",965,11.64601932,50.19434327,27.83653633,Failed,168.15105,,,,,,,,,,,,,,,,,,,,,training,5,6,0,left,a,,,,,376.981,377.064,35.84,-0.944335938,-3.333374023,1,0,0,0.083,fixationPoint,377.064,377.165,377.165,379.747,35.84,10240,616.96,a,1,2.565,,379.747,379.947,,,,,,,,74,-79,-126,30,126,217,124,17,74,-29,175,-209,74,-128,217,174,-19,216,-216,168,-163,-216,-65,-116,-116,360,90,360,360,180,360,90,360,180,180,270,,,,,,,,,,,379.947,379.947,,0,69,69,69,1,9,novel,,,,,,,,,,,,,,,,,,,,,,,,,,,,,,,,,,,,,,,,,,,,,,,,,
,,29,10,${e://Field/PROLIFIC_PID,M,26,2023-11-08_19h01.44.363,MouseEye_CC,2023.2.2,Win32,58.82352941,1.28,,,1920,1080,66.72,4.31,"664.56, 248.04, 176.36, 239.53, 122.57, 28.02, 124.01",965,11.64601932,50.19434327,27.83653633,Failed,168.15105,,,,,,,,,,,,,,,,,,,,,training,5,7,0,left,a,,,,,379.947,380.013,35.84,-0.944335938,-3.333374023,1,0,0,0.066,fixationPoint,380.013,380.114,380.114,381.68,35.84,10240,616.96,a,1,1.543,,381.68,381.88,,,,,,,,30,217,124,-73,163,-164,175,-27,122,-165,-118,-27,-20,-64,-171,216,-69,125,-224,172,-224,212,215,17,74,180,90,270,90,180,360,270,180,90,360,180,,,,,,,,,,,381.88,381.88,,0,70,70,70,1,14,novel,,,,,,,,,,,,,,,,,,,,,,,,,,,,,,,,,,,,,,,,,,,,,,,,,
,,29,10,${e://Field/PROLIFIC_PID,M,26,2023-11-08_19h01.44.363,MouseEye_CC,2023.2.2,Win32,58.82352941,1.28,,,1920,1080,66.72,4.31,"664.56, 248.04, 176.36, 239.53, 122.57, 28.02, 124.01",965,11.64601932,50.19434327,27.83653633,Failed,168.15105,,,,,,,,,,,,,,,,,,,,,training,5,8,180,right,s,,,,,381.881,381.964,35.84,-0.944335938,-3.333374023,1,0,0,0.083,fixationPoint,381.964,382.063,382.063,383.263,35.84,10240,616.96,s,1,1.181,,383.264,383.464,,,,,,,,95,-24,-224,208,18,18,16,65,164,-32,67,-209,74,-75,224,125,-224,215,-175,31,-162,-160,-168,-221,-28,270,180,90,180,360,270,270,360,270,360,270,,,,,,,,,,,383.464,383.464,,0,71,71,71,1,5,repeated,,,,,,,,,,,,,,,,,,,,,,,,,,,,,,,,,,,,,,,,,,,,,,,,,
,,29,10,${e://Field/PROLIFIC_PID,M,26,2023-11-08_19h01.44.363,MouseEye_CC,2023.2.2,Win32,58.82352941,1.28,,,1920,1080,66.72,4.31,"664.56, 248.04, 176.36, 239.53, 122.57, 28.02, 124.01",965,11.64601932,50.19434327,27.83653633,Failed,168.15105,,,,,,,,,,,,,,,,,,,,,training,5,9,0,left,a,,,,,383.464,383.696,35.84,-0.944335938,-3.333374023,1,0,0,0.232,fixationPoint,383.696,383.796,383.796,385.33,35.84,10240,616.96,a,1,1.502,,385.33,385.53,,,,,,,,6,21,208,-119,124,-73,163,-32,67,-215,-119,-173,-216,-32,-72,223,-27,26,-208,76,-169,212,215,128,113,90,180,90,270,360,360,360,360,270,90,270,,,,,,,,,,,385.53,385.53,,0,72,72,72,1,13,novel,,,,,,,,,,,,,,,,,,,,,,,,,,,,,,,,,,,,,,,,,,,,,,,,,
,,29,10,${e://Field/PROLIFIC_PID,M,26,2023-11-08_19h01.44.363,MouseEye_CC,2023.2.2,Win32,58.82352941,1.28,,,1920,1080,66.72,4.31,"664.56, 248.04, 176.36, 239.53, 122.57, 28.02, 124.01",965,11.64601932,50.19434327,27.83653633,Failed,168.15105,,,,,,,,,,,,,,,,,,,,,training,5,10,180,right,s,,,,,385.531,385.63,35.84,-0.944335938,-3.333374023,1,0,0,0.099,fixationPoint,385.63,385.731,385.732,386.48,35.84,10240,616.96,s,1,0.726,,386.48,386.68,,,,,,,,68,114,-78,212,215,18,16,174,75,-163,208,-28,28,-75,224,-221,-28,-176,-19,-116,-116,172,-224,80,-219,90,360,180,180,180,360,90,180,270,270,360,,,,,,,,,,,386.68,386.68,,0,73,73,73,1,8,repeated,,,,,,,,,,,,,,,,,,,,,,,,,,,,,,,,,,,,,,,,,,,,,,,,,
,,29,10,${e://Field/PROLIFIC_PID,M,26,2023-11-08_19h01.44.363,MouseEye_CC,2023.2.2,Win32,58.82352941,1.28,,,1920,1080,66.72,4.31,"664.56, 248.04, 176.36, 239.53, 122.57, 28.02, 124.01",965,11.64601932,50.19434327,27.83653633,Failed,168.15105,,,,,,,,,,,,,,,,,,,,,training,5,11,0,left,a,,,,,386.681,386.78,35.84,-0.944335938,-3.333374023,1,0,0,0.099,fixationPoint,386.78,386.88,386.88,388.48,35.84,10240,616.96,a,1,1.575,,388.48,388.68,,,,,,,,14,-73,163,125,208,69,114,112,163,-122,-165,-78,-218,-117,-218,20,-128,216,-69,114,-78,-128,217,-209,74,90,180,90,360,270,90,180,90,270,360,90,,,,,,,,,,,388.68,388.68,,0,74,74,74,1,4,repeated,,,,,,,,,,,,,,,,,,,,,,,,,,,,,,,,,,,,,,,,,,,,,,,,,
,,29,10,${e://Field/PROLIFIC_PID,M,26,2023-11-08_19h01.44.363,MouseEye_CC,2023.2.2,Win32,58.82352941,1.28,,,1920,1080,66.72,4.31,"664.56, 248.04, 176.36, 239.53, 122.57, 28.02, 124.01",965,11.64601932,50.19434327,27.83653633,Failed,168.15105,,,,,,,,,,,,,,,,,,,,,training,5,12,180,right,s,,,,,388.68,388.747,35.84,-0.944335938,-3.333374023,1,0,0,0.067,fixationPoint,388.747,388.847,388.847,390.55,35.84,10240,616.96,s,1,1.684,,390.55,390.746,,,,,,,,71,-215,-119,212,215,26,175,170,167,-74,22,-65,70,-213,175,72,-21,125,-224,223,-27,-121,-21,-218,-174,360,90,360,90,360,180,180,90,360,90,90,,,,,,,,,,,390.747,390.747,,0,75,75,75,1,6,repeated,,,,,,,,,,,,,,,,,,,,,,,,,,,,,,,,,,,,,,,,,,,,,,,,,
,,29,10,${e://Field/PROLIFIC_PID,M,26,2023-11-08_19h01.44.363,MouseEye_CC,2023.2.2,Win32,58.82352941,1.28,,,1920,1080,66.72,4.31,"664.56, 248.04, 176.36, 239.53, 122.57, 28.02, 124.01",965,11.64601932,50.19434327,27.83653633,Failed,168.15105,,,,,,,,,,,,,,,,,,,,,training,5,13,180,right,s,,,,,390.747,390.83,35.84,-0.944335938,-3.333374023,1,0,0,0.082,fixationPoint,390.83,390.93,390.93,391.613,35.84,10240,616.96,s,1,0.662,,391.613,391.813,,,,,,,,29,164,120,-122,68,-215,16,-163,208,-176,-76,-165,-118,-78,-72,174,-19,78,-128,161,-119,112,163,174,22,360,270,180,360,270,270,90,90,180,90,360,,,,,,,,,,,391.813,391.814,,0,76,76,76,1,2,repeated,,,,,,,,,,,,,,,,,,,,,,,,,,,,,,,,,,,,,,,,,,,,,,,,,
,,29,10,${e://Field/PROLIFIC_PID,M,26,2023-11-08_19h01.44.363,MouseEye_CC,2023.2.2,Win32,58.82352941,1.28,,,1920,1080,66.72,4.31,"664.56, 248.04, 176.36, 239.53, 122.57, 28.02, 124.01",965,11.64601932,50.19434327,27.83653633,Failed,168.15105,,,,,,,,,,,,,,,,,,,,,training,5,14,0,left,a,,,,,391.814,391.897,35.84,-0.944335938,-3.333374023,1,0,0,0.083,fixationPoint,391.897,391.997,391.997,393.146,35.84,10240,616.96,a,1,1.129,,393.147,393.347,,,,,,,,27,69,114,-68,124,-167,28,-173,65,-121,-21,-165,-118,-24,-224,168,-163,124,-118,116,-163,21,208,128,113,360,360,270,360,270,360,270,180,90,180,360,,,,,,,,,,,393.347,393.347,,0,77,77,77,1,1,repeated,,,,,,,,,,,,,,,,,,,,,,,,,,,,,,,,,,,,,,,,,,,,,,,,,
,,29,10,${e://Field/PROLIFIC_PID,M,26,2023-11-08_19h01.44.363,MouseEye_CC,2023.2.2,Win32,58.82352941,1.28,,,1920,1080,66.72,4.31,"664.56, 248.04, 176.36, 239.53, 122.57, 28.02, 124.01",965,11.64601932,50.19434327,27.83653633,Failed,168.15105,,,,,,,,,,,,,,,,,,,,,training,5,15,0,left,a,,,,,393.347,393.396,35.84,-0.944335938,-3.333374023,1,0,0,0.049,fixationPoint,393.396,393.496,393.496,395.046,35.84,10240,616.96,a,1,1.522,,395.046,395.246,,,,,,,,13,-115,168,21,208,26,175,171,212,-214,-220,-218,-174,-78,-218,27,-75,78,-128,223,-27,-209,74,-164,175,270,270,90,360,180,360,90,180,180,270,270,,,,,,,,,,,395.246,395.247,,0,78,78,78,1,15,novel,,,,,,,,,,,,,,,,,,,,,,,,,,,,,,,,,,,,,,,,,,,,,,,,,
,,29,10,${e://Field/PROLIFIC_PID,M,26,2023-11-08_19h01.44.363,MouseEye_CC,2023.2.2,Win32,58.82352941,1.28,,,1920,1080,66.72,4.31,"664.56, 248.04, 176.36, 239.53, 122.57, 28.02, 124.01",965,11.64601932,50.19434327,27.83653633,Failed,168.15105,,,,,,,,,,,,,,,,,,,,,training,5,16,0,left,a,,,,,395.247,395.296,35.84,-0.944335938,-3.333374023,1,0,0,0.049,fixationPoint,395.297,395.397,395.397,397.746,35.84,10240,616.96,a,1,2.328,,397.746,397.946,,,,,,,,33,-122,68,17,74,72,30,125,208,-32,-72,-122,-165,-215,-119,214,-112,76,-169,125,-224,-213,175,-68,124,360,180,180,360,360,360,90,90,360,270,90,,,,,,,,,,,397.946,398.749,space,0,79,79,79,1,16,novel,0.783,,,,,,,,,,,,,,,,,,,,,,,,,,,,,,,,,,,,,,,,,,,,,,,,
,,29,10,${e://Field/PROLIFIC_PID,M,26,2023-11-08_19h01.44.363,MouseEye_CC,2023.2.2,Win32,58.82352941,1.28,,,1920,1080,66.72,4.31,"664.56, 248.04, 176.36, 239.53, 122.57, 28.02, 124.01",965,11.64601932,50.19434327,27.83653633,Failed,168.15105,,,,,,,,,,,,,,,,,,,,,training,6,1,180,right,s,,,,,398.75,399.163,35.84,-0.944335938,-3.333374023,1,0,0,0.413,fixationPoint,399.163,399.265,399.265,399.847,35.84,10240,616.96,s,1,0.551,,399.847,400.046,,,,,,,,25,-27,122,128,113,112,72,65,164,-78,-218,-221,-28,-160,-168,27,-75,174,-19,26,-208,-211,215,-213,175,90,360,270,270,90,270,360,90,270,180,90,,,,,,,,,,,400.046,400.049,,0,80,80,80,1,3,repeated,,,,,,,,,,,,,,,,,,,,,,,,,,,,,,,,,,,,,,,,,,,,,,,,,
,,29,10,${e://Field/PROLIFIC_PID,M,26,2023-11-08_19h01.44.363,MouseEye_CC,2023.2.2,Win32,58.82352941,1.28,,,1920,1080,66.72,4.31,"664.56, 248.04, 176.36, 239.53, 122.57, 28.02, 124.01",965,11.64601932,50.19434327,27.83653633,Failed,168.15105,,,,,,,,,,,,,,,,,,,,,training,6,2,180,right,s,,,,,400.049,400.18,35.84,-0.944335938,-3.333374023,1,0,0,0.131,fixationPoint,400.18,400.28,400.28,401.182,35.84,10240,616.96,s,1,0.884,,401.182,401.38,,,,,,,,88,116,-163,170,167,68,68,128,24,-32,67,-119,124,-164,117,-117,-218,-216,-65,-121,-21,80,-219,214,-112,180,360,270,180,180,270,90,90,270,90,270,,,,,,,,,,,401.38,401.38,,0,81,81,81,1,7,repeated,,,,,,,,,,,,,,,,,,,,,,,,,,,,,,,,,,,,,,,,,,,,,,,,,
,,29,10,${e://Field/PROLIFIC_PID,M,26,2023-11-08_19h01.44.363,MouseEye_CC,2023.2.2,Win32,58.82352941,1.28,,,1920,1080,66.72,4.31,"664.56, 248.04, 176.36, 239.53, 122.57, 28.02, 124.01",965,11.64601932,50.19434327,27.83653633,Failed,168.15105,,,,,,,,,,,,,,,,,,,,,training,6,3,180,right,s,,,,,401.38,401.447,35.84,-0.944335938,-3.333374023,1,0,0,0.067,fixationPoint,401.447,401.546,401.546,402.132,35.84,10240,616.96,s,1,0.567,,402.132,402.33,,,,,,,,68,114,-78,212,215,18,16,174,75,-163,208,-28,28,-75,224,-221,-28,-176,-19,-116,-116,172,-224,80,-219,270,90,360,180,180,90,90,360,90,270,90,,,,,,,,,,,402.33,402.33,,0,82,82,82,1,8,repeated,,,,,,,,,,,,,,,,,,,,,,,,,,,,,,,,,,,,,,,,,,,,,,,,,
,,29,10,${e://Field/PROLIFIC_PID,M,26,2023-11-08_19h01.44.363,MouseEye_CC,2023.2.2,Win32,58.82352941,1.28,,,1920,1080,66.72,4.31,"664.56, 248.04, 176.36, 239.53, 122.57, 28.02, 124.01",965,11.64601932,50.19434327,27.83653633,Failed,168.15105,,,,,,,,,,,,,,,,,,,,,training,6,4,0,left,a,,,,,402.33,402.414,35.84,-0.944335938,-3.333374023,1,0,0,0.083,fixationPoint,402.414,402.513,402.513,403.346,35.84,10240,616.96,a,1,0.809,,403.346,403.547,,,,,,,,87,76,-169,174,75,18,16,217,124,-74,22,-32,67,-164,175,-165,-118,-218,-174,-176,-19,161,-119,161,-64,360,360,270,180,90,90,270,180,180,270,270,,,,,,,,,,,403.547,403.547,,0,83,83,83,1,12,novel,,,,,,,,,,,,,,,,,,,,,,,,,,,,,,,,,,,,,,,,,,,,,,,,,
,,29,10,${e://Field/PROLIFIC_PID,M,26,2023-11-08_19h01.44.363,MouseEye_CC,2023.2.2,Win32,58.82352941,1.28,,,1920,1080,66.72,4.31,"664.56, 248.04, 176.36, 239.53, 122.57, 28.02, 124.01",965,11.64601932,50.19434327,27.83653633,Failed,168.15105,,,,,,,,,,,,,,,,,,,,,training,6,5,0,left,a,,,,,403.547,403.613,35.84,-0.944335938,-3.333374023,1,0,0,0.066,fixationPoint,403.613,403.713,403.713,407.23,35.84,10240,616.96,a,1,3.496,,407.23,407.431,,,,,,,,71,-215,-119,212,215,26,175,170,167,-74,22,-65,70,-213,175,72,-21,125,-224,223,-27,-121,-21,-218,-174,360,180,90,180,270,180,360,360,270,270,360,,,,,,,,,,,407.431,407.431,,0,84,84,84,1,6,repeated,,,,,,,,,,,,,,,,,,,,,,,,,,,,,,,,,,,,,,,,,,,,,,,,,
,,29,10,${e://Field/PROLIFIC_PID,M,26,2023-11-08_19h01.44.363,MouseEye_CC,2023.2.2,Win32,58.82352941,1.28,,,1920,1080,66.72,4.31,"664.56, 248.04, 176.36, 239.53, 122.57, 28.02, 124.01",965,11.64601932,50.19434327,27.83653633,Failed,168.15105,,,,,,,,,,,,,,,,,,,,,training,6,6,180,right,s,,,,,407.431,407.513,35.84,-0.944335938,-3.333374023,1,0,0,0.082,fixationPoint,407.513,407.613,407.613,408.513,35.84,10240,616.96,s,1,0.868,,408.513,408.713,,,,,,,,95,-24,-224,208,18,18,16,65,164,-32,67,-209,74,-75,224,125,-224,215,-175,31,-162,-160,-168,-221,-28,270,180,180,270,90,180,180,180,180,360,360,,,,,,,,,,,408.713,408.713,,0,85,85,85,1,5,repeated,,,,,,,,,,,,,,,,,,,,,,,,,,,,,,,,,,,,,,,,,,,,,,,,,
,,29,10,${e://Field/PROLIFIC_PID,M,26,2023-11-08_19h01.44.363,MouseEye_CC,2023.2.2,Win32,58.82352941,1.28,,,1920,1080,66.72,4.31,"664.56, 248.04, 176.36, 239.53, 122.57, 28.02, 124.01",965,11.64601932,50.19434327,27.83653633,Failed,168.15105,,,,,,,,,,,,,,,,,,,,,training,6,7,180,right,s,,,,,408.714,408.813,35.84,-0.944335938,-3.333374023,1,0,0,0.099,fixationPoint,408.813,408.913,408.913,410.896,35.84,10240,616.96,s,1,1.964,,410.896,411.097,,,,,,,,33,-122,68,26,175,69,114,125,208,-64,-171,-78,-218,-215,-119,116,-163,216,-69,114,-78,-74,22,-167,28,180,180,90,180,90,90,270,90,270,270,180,,,,,,,,,,,411.097,411.097,,0,86,86,86,1,16,novel,,,,,,,,,,,,,,,,,,,,,,,,,,,,,,,,,,,,,,,,,,,,,,,,,
,,29,10,${e://Field/PROLIFIC_PID,M,26,2023-11-08_19h01.44.363,MouseEye_CC,2023.2.2,Win32,58.82352941,1.28,,,1920,1080,66.72,4.31,"664.56, 248.04, 176.36, 239.53, 122.57, 28.02, 124.01",965,11.64601932,50.19434327,27.83653633,Failed,168.15105,,,,,,,,,,,,,,,,,,,,,training,6,8,0,left,a,,,,,411.097,411.163,35.84,-0.944335938,-3.333374023,1,0,0,0.066,fixationPoint,411.163,411.263,411.263,412.215,35.84,10240,616.96,a,1,0.934,,412.215,412.413,,,,,,,,74,-79,-126,128,113,208,18,171,212,-215,16,-115,168,-28,28,161,-64,125,-224,172,-224,-121,-21,-216,-65,90,180,180,90,270,360,270,360,270,270,90,,,,,,,,,,,412.413,412.414,,0,87,87,87,1,9,novel,,,,,,,,,,,,,,,,,,,,,,,,,,,,,,,,,,,,,,,,,,,,,,,,,
,,29,10,${e://Field/PROLIFIC_PID,M,26,2023-11-08_19h01.44.363,MouseEye_CC,2023.2.2,Win32,58.82352941,1.28,,,1920,1080,66.72,4.31,"664.56, 248.04, 176.36, 239.53, 122.57, 28.02, 124.01",965,11.64601932,50.19434327,27.83653633,Failed,168.15105,,,,,,,,,,,,,,,,,,,,,training,6,9,0,left,a,,,,,412.414,412.513,35.84,-0.944335938,-3.333374023,1,0,0,0.099,fixationPoint,412.513,412.613,412.613,414.198,35.84,10240,616.96,a,1,1.565,,414.198,414.397,,,,,,,,29,164,120,-122,68,-215,16,-163,208,-176,-76,-165,-118,-78,-72,174,-19,78,-128,161,-119,112,163,174,22,90,360,90,270,90,180,180,270,90,180,180,,,,,,,,,,,414.397,414.397,,0,88,88,88,1,2,repeated,,,,,,,,,,,,,,,,,,,,,,,,,,,,,,,,,,,,,,,,,,,,,,,,,
,,29,10,${e://Field/PROLIFIC_PID,M,26,2023-11-08_19h01.44.363,MouseEye_CC,2023.2.2,Win32,58.82352941,1.28,,,1920,1080,66.72,4.31,"664.56, 248.04, 176.36, 239.53, 122.57, 28.02, 124.01",965,11.64601932,50.19434327,27.83653633,Failed,168.15105,,,,,,,,,,,,,,,,,,,,,training,6,10,0,left,a,,,,,414.397,414.479,35.84,-0.944335938,-3.333374023,1,0,0,0.082,fixationPoint,414.48,414.58,414.58,416.646,35.84,10240,616.96,a,1,2.036,,416.646,416.846,,,,,,,,72,-165,-118,208,18,26,175,69,114,-74,22,-28,28,-122,68,31,-162,64,-76,168,-163,-78,-72,-117,-218,180,360,270,270,90,90,360,270,360,360,360,,,,,,,,,,,416.846,416.846,,0,89,89,89,1,10,novel,,,,,,,,,,,,,,,,,,,,,,,,,,,,,,,,,,,,,,,,,,,,,,,,,
,,29,10,${e://Field/PROLIFIC_PID,M,26,2023-11-08_19h01.44.363,MouseEye_CC,2023.2.2,Win32,58.82352941,1.28,,,1920,1080,66.72,4.31,"664.56, 248.04, 176.36, 239.53, 122.57, 28.02, 124.01",965,11.64601932,50.19434327,27.83653633,Failed,168.15105,,,,,,,,,,,,,,,,,,,,,training,6,11,180,right,s,,,,,416.847,416.897,35.84,-0.944335938,-3.333374023,1,0,0,0.05,fixationPoint,416.897,416.997,416.997,421.663,35.84,10240,616.96,s,1,4.646,,421.663,421.864,,,,,,,,13,-115,168,21,208,112,72,212,167,-64,-171,-221,-28,-79,-126,161,-64,26,-208,214,-112,-27,122,-29,175,360,360,180,90,180,90,90,270,90,360,90,,,,,,,,,,,421.864,421.864,,0,90,90,90,1,15,novel,,,,,,,,,,,,,,,,,,,,,,,,,,,,,,,,,,,,,,,,,,,,,,,,,
,,29,10,${e://Field/PROLIFIC_PID,M,26,2023-11-08_19h01.44.363,MouseEye_CC,2023.2.2,Win32,58.82352941,1.28,,,1920,1080,66.72,4.31,"664.56, 248.04, 176.36, 239.53, 122.57, 28.02, 124.01",965,11.64601932,50.19434327,27.83653633,Failed,168.15105,,,,,,,,,,,,,,,,,,,,,training,6,12,180,right,s,,,,,421.864,421.949,35.84,-0.944335938,-3.333374023,1,0,0,0.085,fixationPoint,421.949,422.047,422.047,422.979,35.84,10240,616.96,s,1,0.914,,422.98,423.181,,,,,,,,76,20,-128,174,22,208,18,68,68,-115,168,-17,217,-216,116,-214,-220,-77,-31,-173,-216,223,-27,80,-219,360,270,360,360,360,360,180,180,90,360,270,,,,,,,,,,,423.181,423.181,,0,91,91,91,1,11,novel,,,,,,,,,,,,,,,,,,,,,,,,,,,,,,,,,,,,,,,,,,,,,,,,,
,,29,10,${e://Field/PROLIFIC_PID,M,26,2023-11-08_19h01.44.363,MouseEye_CC,2023.2.2,Win32,58.82352941,1.28,,,1920,1080,66.72,4.31,"664.56, 248.04, 176.36, 239.53, 122.57, 28.02, 124.01",965,11.64601932,50.19434327,27.83653633,Failed,168.15105,,,,,,,,,,,,,,,,,,,,,training,6,13,180,right,s,,,,,423.181,423.247,35.84,-0.944335938,-3.333374023,1,0,0,0.066,fixationPoint,423.247,423.347,423.347,425.347,35.84,10240,616.96,s,1,1.968,,425.347,425.546,,,,,,,,6,21,208,-65,70,-209,74,-75,224,-176,-76,-117,-218,-24,-224,28,-16,20,-128,31,-162,30,126,72,30,180,270,270,90,270,90,90,90,180,360,360,,,,,,,,,,,425.546,425.546,,0,92,92,92,1,13,novel,,,,,,,,,,,,,,,,,,,,,,,,,,,,,,,,,,,,,,,,,,,,,,,,,
,,29,10,${e://Field/PROLIFIC_PID,M,26,2023-11-08_19h01.44.363,MouseEye_CC,2023.2.2,Win32,58.82352941,1.28,,,1920,1080,66.72,4.31,"664.56, 248.04, 176.36, 239.53, 122.57, 28.02, 124.01",965,11.64601932,50.19434327,27.83653633,Failed,168.15105,,,,,,,,,,,,,,,,,,,,,training,6,14,0,left,a,,,,,425.547,425.596,35.84,-0.944335938,-3.333374023,1,0,0,0.049,fixationPoint,425.596,425.696,425.696,427.58,35.84,10240,616.96,a,1,1.853,,427.58,427.78,,,,,,,,27,69,114,-68,124,-167,28,-173,65,-121,-21,-165,-118,-24,-224,168,-163,124,-118,116,-163,21,208,128,113,180,270,270,180,90,90,180,180,180,270,90,,,,,,,,,,,427.78,427.78,,0,93,93,93,1,1,repeated,,,,,,,,,,,,,,,,,,,,,,,,,,,,,,,,,,,,,,,,,,,,,,,,,
,,29,10,${e://Field/PROLIFIC_PID,M,26,2023-11-08_19h01.44.363,MouseEye_CC,2023.2.2,Win32,58.82352941,1.28,,,1920,1080,66.72,4.31,"664.56, 248.04, 176.36, 239.53, 122.57, 28.02, 124.01",965,11.64601932,50.19434327,27.83653633,Failed,168.15105,,,,,,,,,,,,,,,,,,,,,training,6,15,0,left,a,,,,,427.781,427.863,35.84,-0.944335938,-3.333374023,1,0,0,0.082,fixationPoint,427.864,427.964,427.964,430.063,35.84,10240,616.96,a,1,2.077,,430.063,430.263,,,,,,,,14,-73,163,125,208,69,114,112,163,-122,-165,-78,-218,-117,-218,20,-128,216,-69,114,-78,-128,217,-209,74,180,90,180,270,360,360,180,180,90,180,270,,,,,,,,,,,430.264,430.264,,0,94,94,94,1,4,repeated,,,,,,,,,,,,,,,,,,,,,,,,,,,,,,,,,,,,,,,,,,,,,,,,,
,,29,10,${e://Field/PROLIFIC_PID,M,26,2023-11-08_19h01.44.363,MouseEye_CC,2023.2.2,Win32,58.82352941,1.28,,,1920,1080,66.72,4.31,"664.56, 248.04, 176.36, 239.53, 122.57, 28.02, 124.01",965,11.64601932,50.19434327,27.83653633,Failed,168.15105,,,,,,,,,,,,,,,,,,,,,training,6,16,0,left,a,,,,,430.264,430.33,35.84,-0.944335938,-3.333374023,1,0,0,0.066,fixationPoint,430.33,430.43,430.43,432.599,35.84,10240,616.96,a,1,2.151,,432.599,432.796,,,,,,,,30,217,124,-68,124,-216,116,-215,16,-160,-168,-215,-119,-216,-65,216,-216,26,-208,64,-76,17,74,68,222,360,180,270,180,270,90,90,270,90,90,180,,,,,,,,,,,432.796,433.598,space,0,95,95,95,1,14,novel,0.783,,,,,,,,,,,,,,,,,,,,,,,,,,,,,,,,,,,,,,,,,,,,,,,,
,,29,10,${e://Field/PROLIFIC_PID,M,26,2023-11-08_19h01.44.363,MouseEye_CC,2023.2.2,Win32,58.82352941,1.28,,,1920,1080,66.72,4.31,"664.56, 248.04, 176.36, 239.53, 122.57, 28.02, 124.01",965,11.64601932,50.19434327,27.83653633,Failed,168.15105,,,,,,,,,,,,,,,,,,,,,training,7,1,0,left,a,,,,,433.599,434.013,35.84,-0.944335938,-3.333374023,1,0,0,0.414,fixationPoint,434.013,434.115,434.115,435.282,35.84,10240,616.96,a,1,1.15,,435.282,435.479,,,,,,,,74,-79,-126,17,74,208,18,68,222,-115,168,-29,175,-73,163,216,-69,161,-64,114,-78,-116,-72,-117,-218,180,180,360,180,270,360,360,270,90,180,270,,,,,,,,,,,435.479,435.482,,0,96,96,96,1,9,novel,,,,,,,,,,,,,,,,,,,,,,,,,,,,,,,,,,,,,,,,,,,,,,,,,
,,29,10,${e://Field/PROLIFIC_PID,M,26,2023-11-08_19h01.44.363,MouseEye_CC,2023.2.2,Win32,58.82352941,1.28,,,1920,1080,66.72,4.31,"664.56, 248.04, 176.36, 239.53, 122.57, 28.02, 124.01",965,11.64601932,50.19434327,27.83653633,Failed,168.15105,,,,,,,,,,,,,,,,,,,,,training,7,2,180,right,s,,,,,435.482,435.596,35.84,-8.722167969,-5.555603027,1,0,0,0.113,fixationPoint,435.596,435.696,435.696,436.316,35.84,10240,616.96,s,1,0.601,,436.316,436.513,,,,,,,,25,-27,122,128,113,112,72,65,164,-78,-218,-221,-28,-160,-168,27,-75,174,-19,26,-208,-211,215,-213,175,270,90,180,360,90,270,90,270,180,270,180,,,,,,,,,,,436.513,436.513,,0,97,97,97,1,3,repeated,,,,,,,,,,,,,,,,,,,,,,,,,,,,,,,,,,,,,,,,,,,,,,,,,
,,29,10,${e://Field/PROLIFIC_PID,M,26,2023-11-08_19h01.44.363,MouseEye_CC,2023.2.2,Win32,58.82352941,1.28,,,1920,1080,66.72,4.31,"664.56, 248.04, 176.36, 239.53, 122.57, 28.02, 124.01",965,11.64601932,50.19434327,27.83653633,Failed,168.15105,,,,,,,,,,,,,,,,,,,,,training,7,3,0,left,a,,,,,436.513,436.63,35.84,-8.722167969,-5.555603027,1,0,0,0.117,fixationPoint,436.63,436.73,436.73,437.449,35.84,10240,616.96,a,1,0.7,,437.449,437.646,,,,,,,,14,-73,163,125,208,69,114,112,163,-122,-165,-78,-218,-117,-218,20,-128,216,-69,114,-78,-128,217,-209,74,270,360,90,90,90,270,90,180,180,180,360,,,,,,,,,,,437.646,437.646,,0,98,98,98,1,4,repeated,,,,,,,,,,,,,,,,,,,,,,,,,,,,,,,,,,,,,,,,,,,,,,,,,
,,29,10,${e://Field/PROLIFIC_PID,M,26,2023-11-08_19h01.44.363,MouseEye_CC,2023.2.2,Win32,58.82352941,1.28,,,1920,1080,66.72,4.31,"664.56, 248.04, 176.36, 239.53, 122.57, 28.02, 124.01",965,11.64601932,50.19434327,27.83653633,Failed,168.15105,,,,,,,,,,,,,,,,,,,,,training,7,4,0,left,a,,,,,437.647,437.682,35.84,6.833374023,1.111083984,1,0,0,0.035,fixationPoint,437.682,437.78,437.78,439.146,35.84,10240,616.96,a,1,1.343,,439.147,439.347,,,,,,,,88,116,-163,170,167,68,68,128,24,-32,67,-119,124,-164,117,-117,-218,-216,-65,-121,-21,80,-219,214,-112,270,90,180,270,90,270,270,270,360,90,270,,,,,,,,,,,439.347,439.347,,0,99,99,99,1,7,repeated,,,,,,,,,,,,,,,,,,,,,,,,,,,,,,,,,,,,,,,,,,,,,,,,,
,,29,10,${e://Field/PROLIFIC_PID,M,26,2023-11-08_19h01.44.363,MouseEye_CC,2023.2.2,Win32,58.82352941,1.28,,,1920,1080,66.72,4.31,"664.56, 248.04, 176.36, 239.53, 122.57, 28.02, 124.01",965,11.64601932,50.19434327,27.83653633,Failed,168.15105,,,,,,,,,,,,,,,,,,,,,training,7,5,180,right,s,,,,,439.347,439.43,35.84,6.833374023,1.111083984,1,0,0,0.083,fixationPoint,439.43,439.53,439.53,440.597,35.84,10240,616.96,s,1,1.048,,440.597,440.797,,,,,,,,72,-165,-118,21,208,170,167,125,208,-128,217,-122,68,-73,163,216,-69,76,-169,114,-78,-176,-76,-78,-72,270,90,270,360,180,180,270,180,360,180,180,,,,,,,,,,,440.797,440.797,,0,100,100,100,1,10,novel,,,,,,,,,,,,,,,,,,,,,,,,,,,,,,,,,,,,,,,,,,,,,,,,,
,,29,10,${e://Field/PROLIFIC_PID,M,26,2023-11-08_19h01.44.363,MouseEye_CC,2023.2.2,Win32,58.82352941,1.28,,,1920,1080,66.72,4.31,"664.56, 248.04, 176.36, 239.53, 122.57, 28.02, 124.01",965,11.64601932,50.19434327,27.83653633,Failed,168.15105,,,,,,,,,,,,,,,,,,,,,training,7,6,180,right,s,,,,,440.797,440.897,35.84,6.833374023,1.111083984,1,0,0,0.1,fixationPoint,440.897,440.996,440.996,444.63,35.84,10240,616.96,s,1,3.614,,444.63,444.83,,,,,,,,95,-24,-224,208,18,18,16,65,164,-32,67,-209,74,-75,224,125,-224,215,-175,31,-162,-160,-168,-221,-28,270,270,270,180,360,270,180,360,360,270,360,,,,,,,,,,,444.83,444.83,,0,101,101,101,1,5,repeated,,,,,,,,,,,,,,,,,,,,,,,,,,,,,,,,,,,,,,,,,,,,,,,,,
,,29,10,${e://Field/PROLIFIC_PID,M,26,2023-11-08_19h01.44.363,MouseEye_CC,2023.2.2,Win32,58.82352941,1.28,,,1920,1080,66.72,4.31,"664.56, 248.04, 176.36, 239.53, 122.57, 28.02, 124.01",965,11.64601932,50.19434327,27.83653633,Failed,168.15105,,,,,,,,,,,,,,,,,,,,,training,7,7,0,left,a,,,,,444.83,444.897,35.84,6.833374023,1.111083984,1,0,0,0.066,fixationPoint,444.897,444.997,444.997,450.03,35.84,10240,616.96,a,1,5.007,,450.03,450.229,,,,,,,,71,-215,-119,212,215,26,175,170,167,-74,22,-65,70,-213,175,72,-21,125,-224,223,-27,-121,-21,-218,-174,270,360,90,360,270,90,270,360,360,90,90,,,,,,,,,,,450.23,450.23,,0,102,102,102,1,6,repeated,,,,,,,,,,,,,,,,,,,,,,,,,,,,,,,,,,,,,,,,,,,,,,,,,
,,29,10,${e://Field/PROLIFIC_PID,M,26,2023-11-08_19h01.44.363,MouseEye_CC,2023.2.2,Win32,58.82352941,1.28,,,1920,1080,66.72,4.31,"664.56, 248.04, 176.36, 239.53, 122.57, 28.02, 124.01",965,11.64601932,50.19434327,27.83653633,Failed,168.15105,,,,,,,,,,,,,,,,,,,,,training,7,8,180,right,s,,,,,450.23,450.296,35.84,-0.944335938,3.333312988,1,0,0,0.066,fixationPoint,450.296,450.397,450.397,453.129,35.84,10240,616.96,s,1,2.711,,453.129,453.33,,,,,,,,76,20,-128,128,113,112,163,18,16,-173,65,-28,28,-68,124,-218,-174,-221,-28,-160,-168,172,-224,174,-19,270,180,90,270,180,270,360,360,90,270,360,,,,,,,,,,,453.33,453.33,,0,103,103,103,1,11,novel,,,,,,,,,,,,,,,,,,,,,,,,,,,,,,,,,,,,,,,,,,,,,,,,,
,,29,10,${e://Field/PROLIFIC_PID,M,26,2023-11-08_19h01.44.363,MouseEye_CC,2023.2.2,Win32,58.82352941,1.28,,,1920,1080,66.72,4.31,"664.56, 248.04, 176.36, 239.53, 122.57, 28.02, 124.01",965,11.64601932,50.19434327,27.83653633,Failed,168.15105,,,,,,,,,,,,,,,,,,,,,training,7,9,180,right,s,,,,,453.33,453.396,35.84,-0.944335938,3.333312988,1,0,0,0.066,fixationPoint,453.396,453.496,453.496,454.463,35.84,10240,616.96,s,1,0.935,,454.463,454.663,,,,,,,,27,69,114,-68,124,-167,28,-173,65,-121,-21,-165,-118,-24,-224,168,-163,124,-118,116,-163,21,208,128,113,270,90,360,360,270,180,270,360,90,270,270,,,,,,,,,,,454.663,454.663,,0,104,104,104,1,1,repeated,,,,,,,,,,,,,,,,,,,,,,,,,,,,,,,,,,,,,,,,,,,,,,,,,
,,29,10,${e://Field/PROLIFIC_PID,M,26,2023-11-08_19h01.44.363,MouseEye_CC,2023.2.2,Win32,58.82352941,1.28,,,1920,1080,66.72,4.31,"664.56, 248.04, 176.36, 239.53, 122.57, 28.02, 124.01",965,11.64601932,50.19434327,27.83653633,Failed,168.15105,,,,,,,,,,,,,,,,,,,,,training,7,10,0,left,a,,,,,454.663,454.746,35.84,-0.944335938,3.333312988,1,0,0,0.083,fixationPoint,454.747,454.847,454.847,457.149,35.84,10240,616.96,a,1,2.284,,457.149,457.346,,,,,,,,13,-115,168,212,167,21,208,112,72,-30,-164,-214,-220,-160,-168,114,-78,161,-119,174,-19,-122,68,-73,163,90,180,180,270,180,90,90,360,360,360,360,,,,,,,,,,,457.346,457.346,,0,105,105,105,1,15,novel,,,,,,,,,,,,,,,,,,,,,,,,,,,,,,,,,,,,,,,,,,,,,,,,,
,,29,10,${e://Field/PROLIFIC_PID,M,26,2023-11-08_19h01.44.363,MouseEye_CC,2023.2.2,Win32,58.82352941,1.28,,,1920,1080,66.72,4.31,"664.56, 248.04, 176.36, 239.53, 122.57, 28.02, 124.01",965,11.64601932,50.19434327,27.83653633,Failed,168.15105,,,,,,,,,,,,,,,,,,,,,training,7,11,180,right,s,,,,,457.347,457.43,35.84,-0.944335938,3.333312988,1,0,0,0.083,fixationPoint,457.43,457.53,457.53,458.347,35.84,10240,616.96,s,1,0.799,,458.347,458.546,,,,,,,,6,21,208,-215,16,-115,168,-120,28,-218,-174,-160,-168,-173,-216,168,-163,119,-23,125,-224,170,167,69,114,180,180,90,180,360,360,270,180,360,90,180,,,,,,,,,,,458.546,458.546,,0,106,106,106,1,13,novel,,,,,,,,,,,,,,,,,,,,,,,,,,,,,,,,,,,,,,,,,,,,,,,,,
,,29,10,${e://Field/PROLIFIC_PID,M,26,2023-11-08_19h01.44.363,MouseEye_CC,2023.2.2,Win32,58.82352941,1.28,,,1920,1080,66.72,4.31,"664.56, 248.04, 176.36, 239.53, 122.57, 28.02, 124.01",965,11.64601932,50.19434327,27.83653633,Failed,168.15105,,,,,,,,,,,,,,,,,,,,,training,7,12,0,left,a,,,,,458.546,458.63,35.84,-0.944335938,3.333312988,1,0,0,0.083,fixationPoint,458.63,458.73,458.73,460.299,35.84,10240,616.96,a,1,1.551,,460.299,460.497,,,,,,,,30,217,124,-68,124,-128,217,-163,208,-218,-174,-221,-28,-214,-220,119,-23,161,-119,161,-64,174,22,174,75,90,270,180,180,180,360,90,270,360,180,360,,,,,,,,,,,460.497,460.497,,0,107,107,107,1,14,novel,,,,,,,,,,,,,,,,,,,,,,,,,,,,,,,,,,,,,,,,,,,,,,,,,
,,29,10,${e://Field/PROLIFIC_PID,M,26,2023-11-08_19h01.44.363,MouseEye_CC,2023.2.2,Win32,58.82352941,1.28,,,1920,1080,66.72,4.31,"664.56, 248.04, 176.36, 239.53, 122.57, 28.02, 124.01",965,11.64601932,50.19434327,27.83653633,Failed,168.15105,,,,,,,,,,,,,,,,,,,,,training,7,13,0,left,a,,,,,460.497,460.579,35.84,-0.944335938,3.333312988,1,0,0,0.082,fixationPoint,460.579,460.68,460.68,462.63,35.84,10240,616.96,a,1,1.923,,462.63,462.83,,,,,,,,87,76,-169,18,16,21,208,65,164,-68,124,-27,122,-29,175,-117,-218,-216,-65,-221,-28,116,-163,26,-208,90,180,270,360,360,90,180,270,180,90,360,,,,,,,,,,,462.83,462.83,,0,108,108,108,1,12,novel,,,,,,,,,,,,,,,,,,,,,,,,,,,,,,,,,,,,,,,,,,,,,,,,,
,,29,10,${e://Field/PROLIFIC_PID,M,26,2023-11-08_19h01.44.363,MouseEye_CC,2023.2.2,Win32,58.82352941,1.28,,,1920,1080,66.72,4.31,"664.56, 248.04, 176.36, 239.53, 122.57, 28.02, 124.01",965,11.64601932,50.19434327,27.83653633,Failed,168.15105,,,,,,,,,,,,,,,,,,,,,training,7,14,180,right,s,,,,,462.83,462.913,35.84,-0.944335938,3.333312988,1,0,0,0.083,fixationPoint,462.913,463.013,463.013,463.765,35.84,10240,616.96,s,1,0.734,,463.765,463.963,,,,,,,,29,164,120,-122,68,-215,16,-163,208,-176,-76,-165,-118,-78,-72,174,-19,78,-128,161,-119,112,163,174,22,90,360,180,360,90,270,180,90,180,360,90,,,,,,,,,,,463.963,463.963,,0,109,109,109,1,2,repeated,,,,,,,,,,,,,,,,,,,,,,,,,,,,,,,,,,,,,,,,,,,,,,,,,
,,29,10,${e://Field/PROLIFIC_PID,M,26,2023-11-08_19h01.44.363,MouseEye_CC,2023.2.2,Win32,58.82352941,1.28,,,1920,1080,66.72,4.31,"664.56, 248.04, 176.36, 239.53, 122.57, 28.02, 124.01",965,11.64601932,50.19434327,27.83653633,Failed,168.15105,,,,,,,,,,,,,,,,,,,,,training,7,15,0,left,a,,,,,463.963,464.029,35.84,-0.944335938,3.333312988,1,0,0,0.066,fixationPoint,464.029,464.13,464.13,466.347,35.84,10240,616.96,a,1,2.195,,466.347,466.546,,,,,,,,33,-122,68,212,67,68,68,112,72,-214,-220,-64,-171,-160,-168,216,-69,124,-118,216,-216,-17,217,-167,28,270,180,270,360,270,90,90,180,270,360,270,,,,,,,,,,,466.546,466.546,,0,110,110,110,1,16,novel,,,,,,,,,,,,,,,,,,,,,,,,,,,,,,,,,,,,,,,,,,,,,,,,,
,,29,10,${e://Field/PROLIFIC_PID,M,26,2023-11-08_19h01.44.363,MouseEye_CC,2023.2.2,Win32,58.82352941,1.28,,,1920,1080,66.72,4.31,"664.56, 248.04, 176.36, 239.53, 122.57, 28.02, 124.01",965,11.64601932,50.19434327,27.83653633,Failed,168.15105,,,,,,,,,,,,,,,,,,,,,training,7,16,180,right,s,,,,,466.546,466.599,35.84,-0.944335938,3.333312988,1,0,0,0.052,fixationPoint,466.599,466.697,466.697,468.43,35.84,10240,616.96,s,1,1.712,,468.43,468.63,,,,,,,,68,114,-78,212,215,18,16,174,75,-163,208,-28,28,-75,224,-221,-28,-176,-19,-116,-116,172,-224,80,-219,270,360,90,360,360,270,180,360,270,180,180,,,,,,,,,,,468.63,469.38,space,0,111,111,111,1,8,repeated,0.728,,,,,,,,,,,,,,,,,,,,,,,,,,,,,,,,,,,,,,,,,,,,,,,,
,,29,10,${e://Field/PROLIFIC_PID,M,26,2023-11-08_19h01.44.363,MouseEye_CC,2023.2.2,Win32,58.82352941,1.28,,,1920,1080,66.72,4.31,"664.56, 248.04, 176.36, 239.53, 122.57, 28.02, 124.01",965,11.64601932,50.19434327,27.83653633,Failed,168.15105,,,,,,,,,,,,,,,,,,,,,training,8,1,180,right,s,,,,,469.38,469.779,35.84,-0.944335938,3.333312988,1,0,0,0.398,fixationPoint,469.779,469.88,469.88,471.497,35.84,10240,616.96,s,1,1.599,,471.497,471.696,,,,,,,,87,76,-169,217,124,68,68,208,18,-215,16,-17,217,-28,28,-78,-72,-24,-224,-25,-115,72,-21,119,-23,180,90,360,180,270,360,270,360,270,360,360,,,,,,,,,,,471.696,471.699,,0,112,112,112,1,12,novel,,,,,,,,,,,,,,,,,,,,,,,,,,,,,,,,,,,,,,,,,,,,,,,,,
,,29,10,${e://Field/PROLIFIC_PID,M,26,2023-11-08_19h01.44.363,MouseEye_CC,2023.2.2,Win32,58.82352941,1.28,,,1920,1080,66.72,4.31,"664.56, 248.04, 176.36, 239.53, 122.57, 28.02, 124.01",965,11.64601932,50.19434327,27.83653633,Failed,168.15105,,,,,,,,,,,,,,,,,,,,,training,8,2,180,right,s,,,,,471.7,471.848,35.84,-0.944335938,3.333312988,1,0,0,0.148,fixationPoint,471.848,471.947,471.947,473.883,35.84,10240,616.96,s,1,1.917,,473.883,474.079,,,,,,,,71,-215,-119,212,215,26,175,170,167,-74,22,-65,70,-213,175,72,-21,125,-224,223,-27,-121,-21,-218,-174,180,360,90,360,90,360,270,90,180,270,360,,,,,,,,,,,474.079,474.079,,0,113,113,113,1,6,repeated,,,,,,,,,,,,,,,,,,,,,,,,,,,,,,,,,,,,,,,,,,,,,,,,,
,,29,10,${e://Field/PROLIFIC_PID,M,26,2023-11-08_19h01.44.363,MouseEye_CC,2023.2.2,Win32,58.82352941,1.28,,,1920,1080,66.72,4.31,"664.56, 248.04, 176.36, 239.53, 122.57, 28.02, 124.01",965,11.64601932,50.19434327,27.83653633,Failed,168.15105,,,,,,,,,,,,,,,,,,,,,training,8,3,0,left,a,,,,,474.08,474.13,35.84,-0.944335938,3.333312988,1,0,0,0.049,fixationPoint,474.13,474.232,474.232,475.013,35.84,10240,616.96,a,1,0.764,,475.013,475.213,,,,,,,,29,164,120,-122,68,-215,16,-163,208,-176,-76,-165,-118,-78,-72,174,-19,78,-128,161,-119,112,163,174,22,360,180,360,180,270,270,360,90,360,270,270,,,,,,,,,,,475.213,475.213,,0,114,114,114,1,2,repeated,,,,,,,,,,,,,,,,,,,,,,,,,,,,,,,,,,,,,,,,,,,,,,,,,
,,29,10,${e://Field/PROLIFIC_PID,M,26,2023-11-08_19h01.44.363,MouseEye_CC,2023.2.2,Win32,58.82352941,1.28,,,1920,1080,66.72,4.31,"664.56, 248.04, 176.36, 239.53, 122.57, 28.02, 124.01",965,11.64601932,50.19434327,27.83653633,Failed,168.15105,,,,,,,,,,,,,,,,,,,,,training,8,4,0,left,a,,,,,475.213,475.313,35.84,-0.944335938,3.333312988,1,0,0,0.1,fixationPoint,475.313,475.413,475.413,476.315,35.84,10240,616.96,s,0,0.883,,476.315,480.315,,,,,,,,27,69,114,-68,124,-167,28,-173,65,-121,-21,-165,-118,-24,-224,168,-163,124,-118,116,-163,21,208,128,113,90,90,180,180,270,180,270,360,180,270,360,,,,,,,,,,,480.315,480.321,,0,115,115,115,1,1,repeated,,,,,,,,,,,,,,,,,,,,,,,,,,,,,,,,,,,,,,,,,,,,,,,,,
,,29,10,${e://Field/PROLIFIC_PID,M,26,2023-11-08_19h01.44.363,MouseEye_CC,2023.2.2,Win32,58.82352941,1.28,,,1920,1080,66.72,4.31,"664.56, 248.04, 176.36, 239.53, 122.57, 28.02, 124.01",965,11.64601932,50.19434327,27.83653633,Failed,168.15105,,,,,,,,,,,,,,,,,,,,,training,8,5,0,left,a,,,,,480.322,480.93,35.84,-16.5,3.333312988,1,0,0,0.608,fixationPoint,480.93,481.029,481.029,481.999,35.84,10240,616.96,a,1,0.951,,481.999,482.196,,,,,,,,25,-27,122,128,113,112,72,65,164,-78,-218,-221,-28,-160,-168,27,-75,174,-19,26,-208,-211,215,-213,175,360,90,270,360,360,90,360,270,90,360,90,,,,,,,,,,,482.196,482.197,,0,116,116,116,1,3,repeated,,,,,,,,,,,,,,,,,,,,,,,,,,,,,,,,,,,,,,,,,,,,,,,,,
,,29,10,${e://Field/PROLIFIC_PID,M,26,2023-11-08_19h01.44.363,MouseEye_CC,2023.2.2,Win32,58.82352941,1.28,,,1920,1080,66.72,4.31,"664.56, 248.04, 176.36, 239.53, 122.57, 28.02, 124.01",965,11.64601932,50.19434327,27.83653633,Failed,168.15105,,,,,,,,,,,,,,,,,,,,,training,8,6,180,right,s,,,,,482.197,482.215,35.84,-13.16662598,-1.11114502,1,0,0,0.018,fixationPoint,482.216,482.313,482.313,483.048,35.84,10240,616.96,s,1,0.717,,483.048,483.246,,,,,,,,14,-73,163,125,208,69,114,112,163,-122,-165,-78,-218,-117,-218,20,-128,216,-69,114,-78,-128,217,-209,74,90,270,180,270,90,180,360,270,180,180,180,,,,,,,,,,,483.247,483.247,,0,117,117,117,1,4,repeated,,,,,,,,,,,,,,,,,,,,,,,,,,,,,,,,,,,,,,,,,,,,,,,,,
