InstrStartPage.started,InstrStartPage.stopped,participant,designid,prolificid,Gender,Age,date,expName,psychopyVersion,OS,frameRate,ratio_monitor2CRT,VirtualChinrest.started,VirtualChinrest.stopped,xRes,yRes,viewingdistance_cm,pixeldensity_px2mm,BallPos,squarePos,mm2degree,px2degree,CRT_px2degree,PassVirtualChinrest,foveaRadius_inPixel,InstrRedo.started,InstrRedo.stopped,VirtualChinrest_Redo.started,VirtualChinrest_Redo.stopped,Instruction1.started,Instruction1.stopped,keyPractice.started,keyPractice.stopped,key_keyprac.keys,key_keyprac.corr,key_keyprac.rt,key_keyprac.duration,keyPracFeedback.started,keyPracFeedback.stopped,keyPracLoop.thisRepN,keyPracLoop.thisTrialN,keyPracLoop.thisN,keyPracLoop.thisIndex,keyPracLoop.ran,phase,block,trial,targOrientdeg,targOrient,corrAnswer,Instruction2.started,Instruction2.stopped,Instruction3.started,Instruction3.stopped,fixation.started,fixation.stopped,fixationSize,mouseintial.x,mouseintial.y,mouseintial.leftButton,mouseintial.midButton,mouseintial.rightButton,mouseintial.time,mouseintial.clicked_name,greenFixation.started,greenFixation.stopped,trial.started,trial.stopped,letterSize,apertureSize,searchsize,key_respMain.keys,key_respMain.corr,key_respMain.rt,key_respMain.duration,trialFeedback.started,trialFeedback.stopped,trialsPractice.thisRepN,trialsPractice.thisTrialN,trialsPractice.thisN,trialsPractice.thisIndex,trialsPractice.ran,targetQuad,Tcondition,targcell,tlocx,tlocy,d1x,d1y,d2x,d2y,d3x,d3y,d4x,d4y,d5x,d5y,d6x,d6y,d7x,d7y,d8x,d8y,d9x,d9y,d10x,d10y,d11x,d11y,d1Orient,d2Orient,d3Orient,d4Orient,d5Orient,d6Orient,d7Orient,d8Orient,d9Orient,d10Orient,d11Orient,CheckInstr.started,CheckInstr.stopped,key_checkInstr.keys,key_checkInstr.corr,key_checkInstr.rt,key_checkInstr.duration,CheckInstr_FB.started,CheckInstr_FB.stopped,Instruction_MainExp.started,Instruction_MainExp.stopped,TakeABreak.started,TakeABreak.stopped,key_respBreak.keys,trials.thisRepN,trials.thisTrialN,trials.thisN,trials.thisIndex,trials.ran,configurationNumber,CCCondition,key_respBreak.rt,key_respBreak.duration,displayTestingPhase.started,displayTestingPhase.stopped,key_respTesting.keys,key_respTesting.corr,key_respTesting.rt,key_respTesting.duration,TakeABreak2.started,TakeABreak2.stopped,key_RespBreak.keys,Testingtrials.thisRepN,Testingtrials.thisTrialN,Testingtrials.thisN,Testingtrials.thisIndex,Testingtrials.ran,key_RespBreak.rt,key_RespBreak.duration,RecogQuestion.started,RecogQuestion.stopped,key_AnswerQues.keys,key_AnswerQues.rt,key_AnswerQues.duration,Disclose.started,Disclose.stopped,InstrRT.started,InstrRT.stopped,fixation_RT.started,fixation_RT.stopped,mouseInitial.x,mouseInitial.y,mouseInitial.leftButton,mouseInitial.midButton,mouseInitial.rightButton,mouseInitial.time,mouseInitial.clicked_name,displayRT.started,displayRT.stopped,key_respRT.keys,key_respRT.corr,key_respRT.rt,key_respRT.duration,RTtrials.thisRepN,RTtrials.thisTrialN,RTtrials.thisN,RTtrials.thisIndex,RTtrials.ran,EndOfExperiment.started,EndOfExperiment.stopped
0.0006,34.1087,2,11,${e://Field/PROLIFIC_PID,M,21,2023-11-02_08h18.00.310,MouseEye_CC,2023.2.2,Win32,60.7681089,1,,,,,,,,,,,,,,,,,,,,,,,,,,,,,,,,,,,,,,,,,,,,,,,,,,,,,,,,,,,,,,,,,,,,,,,,,,,,,,,,,,,,,,,,,,,,,,,,,,,,,,,,,,,,,,,,,,,,,,,,,,,,,,,,,,,,,,,,,,,,,,,,,,,,,,,,,,,,,,,,,,,,,,,,,,,,,,,,,
,,2,11,${e://Field/PROLIFIC_PID,M,21,2023-11-02_08h18.00.310,MouseEye_CC,2023.2.2,Win32,60.7681089,0.877376645,34.1091,223.3378,1366,768,34.980000000000004,4,"425.17, 424.43, 35.16, 22.46, 427.26, 429.17, 442.3",684.16,6.105781712,24.42312685,27.83653633,Passed,81.81747494,,,,,,,,,,,,,,,,,,,,,,,,,,,,,,,,,,,,,,,,,,,,,,,,,,,,,,,,,,,,,,,,,,,,,,,,,,,,,,,,,,,,,,,,,,,,,,,,,,,,,,,,,,,,,,,,,,,,,,,,,,,,,,,,,,,,,,,,,,,,,,,,,,,,,,,,,,,,,,,,,,,,
,,2,11,${e://Field/PROLIFIC_PID,M,21,2023-11-02_08h18.00.310,MouseEye_CC,2023.2.2,Win32,60.7681089,0.877376645,,,1366,768,34.980000000000004,4,"425.17, 424.43, 35.16, 22.46, 427.26, 429.17, 442.3",684.16,6.105781712,24.42312685,27.83653633,Passed,81.81747494,223.3385,223.3595,,,,,,,,,,,,,,,,,,,,,,,,,,,,,,,,,,,,,,,,,,,,,,,,,,,,,,,,,,,,,,,,,,,,,,,,,,,,,,,,,,,,,,,,,,,,,,,,,,,,,,,,,,,,,,,,,,,,,,,,,,,,,,,,,,,,,,,,,,,,,,,,,,,,,,,,,,,,,,,,,,
,,2,11,${e://Field/PROLIFIC_PID,M,21,2023-11-02_08h18.00.310,MouseEye_CC,2023.2.2,Win32,60.7681089,1.273801398,,,1366,768,50.785000000000004,4,"425.17, 424.43, 35.16, 22.46, 427.26, 429.17, 442.3",684.16,8.864554724,35.4582189,27.83653633,Passed,118.7850333,,,223.3598,310.8177,,,,,,,,,,,,,,,,,,,,,,,,,,,,,,,,,,,,,,,,,,,,,,,,,,,,,,,,,,,,,,,,,,,,,,,,,,,,,,,,,,,,,,,,,,,,,,,,,,,,,,,,,,,,,,,,,,,,,,,,,,,,,,,,,,,,,,,,,,,,,,,,,,,,,,,,,,,,,,,,
,,2,11,${e://Field/PROLIFIC_PID,M,21,2023-11-02_08h18.00.310,MouseEye_CC,2023.2.2,Win32,60.7681089,1.273801398,,,1366,768,50.785000000000004,4,"425.17, 424.43, 35.16, 22.46, 427.26, 429.17, 442.3",684.16,8.864554724,35.4582189,27.83653633,Passed,118.7850333,,,,,310.8181,329.1704,,,,,,,,,,,,,,,,,,,,,,,,,,,,,,,,,,,,,,,,,,,,,,,,,,,,,,,,,,,,,,,,,,,,,,,,,,,,,,,,,,,,,,,,,,,,,,,,,,,,,,,,,,,,,,,,,,,,,,,,,,,,,,,,,,,,,,,,,,,,,,,,,,,,,,,,,,,,,,
,,2,11,${e://Field/PROLIFIC_PID,M,21,2023-11-02_08h18.00.310,MouseEye_CC,2023.2.2,Win32,60.7681089,1.273801398,,,1366,768,50.785000000000004,4,"425.17, 424.43, 35.16, 22.46, 427.26, 429.17, 442.3",684.16,8.864554724,35.4582189,27.83653633,Passed,118.7850333,,,,,,,329.3631,330.5979,a,1,0.7034,,330.599,331.0972,0,0,0,0,1,practice,1,1,0,left,a,,,,,,,,,,,,,,,,,,,,,,,,,,,,,,,,,,,,,,,,,,,,,,,,,,,,,,,,,,,,,,,,,,,,,,,,,,,,,,,,,,,,,,,,,,,,,,,,,,,,,,,,,,,,,,,,,,,,,,,,,,,,,,,,,,,,,,,,,,,
,,2,11,${e://Field/PROLIFIC_PID,M,21,2023-11-02_08h18.00.310,MouseEye_CC,2023.2.2,Win32,60.7681089,1.273801398,,,1366,768,50.785000000000004,4,"425.17, 424.43, 35.16, 22.46, 427.26, 429.17, 442.3",684.16,8.864554724,35.4582189,27.83653633,Passed,118.7850333,,,,,,,331.0998,332.0631,a,1,0.4405,,332.0633,332.5635,0,1,1,1,1,practice,1,2,0,left,a,,,,,,,,,,,,,,,,,,,,,,,,,,,,,,,,,,,,,,,,,,,,,,,,,,,,,,,,,,,,,,,,,,,,,,,,,,,,,,,,,,,,,,,,,,,,,,,,,,,,,,,,,,,,,,,,,,,,,,,,,,,,,,,,,,,,,,,,,,,
,,2,11,${e://Field/PROLIFIC_PID,M,21,2023-11-02_08h18.00.310,MouseEye_CC,2023.2.2,Win32,60.7681089,1.273801398,,,1366,768,50.785000000000004,4,"425.17, 424.43, 35.16, 22.46, 427.26, 429.17, 442.3",684.16,8.864554724,35.4582189,27.83653633,Passed,118.7850333,,,,,,,332.5657,333.4972,a,1,0.4057,,333.4976,333.9966,0,2,2,2,1,practice,1,3,0,left,a,,,,,,,,,,,,,,,,,,,,,,,,,,,,,,,,,,,,,,,,,,,,,,,,,,,,,,,,,,,,,,,,,,,,,,,,,,,,,,,,,,,,,,,,,,,,,,,,,,,,,,,,,,,,,,,,,,,,,,,,,,,,,,,,,,,,,,,,,,,
,,2,11,${e://Field/PROLIFIC_PID,M,21,2023-11-02_08h18.00.310,MouseEye_CC,2023.2.2,Win32,60.7681089,1.273801398,,,1366,768,50.785000000000004,4,"425.17, 424.43, 35.16, 22.46, 427.26, 429.17, 442.3",684.16,8.864554724,35.4582189,27.83653633,Passed,118.7850333,,,,,,,333.9986,334.8802,s,1,0.3565,,334.8805,335.3802,0,3,3,3,1,practice,1,4,180,right,s,,,,,,,,,,,,,,,,,,,,,,,,,,,,,,,,,,,,,,,,,,,,,,,,,,,,,,,,,,,,,,,,,,,,,,,,,,,,,,,,,,,,,,,,,,,,,,,,,,,,,,,,,,,,,,,,,,,,,,,,,,,,,,,,,,,,,,,,,,,
,,2,11,${e://Field/PROLIFIC_PID,M,21,2023-11-02_08h18.00.310,MouseEye_CC,2023.2.2,Win32,60.7681089,1.273801398,,,1366,768,50.785000000000004,4,"425.17, 424.43, 35.16, 22.46, 427.26, 429.17, 442.3",684.16,8.864554724,35.4582189,27.83653633,Passed,118.7850333,,,,,,,335.3824,336.4967,s,1,0.5845,,336.4968,336.9965,0,4,4,4,1,practice,1,5,180,right,s,,,,,,,,,,,,,,,,,,,,,,,,,,,,,,,,,,,,,,,,,,,,,,,,,,,,,,,,,,,,,,,,,,,,,,,,,,,,,,,,,,,,,,,,,,,,,,,,,,,,,,,,,,,,,,,,,,,,,,,,,,,,,,,,,,,,,,,,,,,
,,2,11,${e://Field/PROLIFIC_PID,M,21,2023-11-02_08h18.00.310,MouseEye_CC,2023.2.2,Win32,60.7681089,1.273801398,,,1366,768,50.785000000000004,4,"425.17, 424.43, 35.16, 22.46, 427.26, 429.17, 442.3",684.16,8.864554724,35.4582189,27.83653633,Passed,118.7850333,,,,,,,336.999,337.982,a,1,0.4611,,337.9822,338.4801,0,5,5,5,1,practice,1,6,0,left,a,,,,,,,,,,,,,,,,,,,,,,,,,,,,,,,,,,,,,,,,,,,,,,,,,,,,,,,,,,,,,,,,,,,,,,,,,,,,,,,,,,,,,,,,,,,,,,,,,,,,,,,,,,,,,,,,,,,,,,,,,,,,,,,,,,,,,,,,,,,
,,2,11,${e://Field/PROLIFIC_PID,M,21,2023-11-02_08h18.00.310,MouseEye_CC,2023.2.2,Win32,60.7681089,1.273801398,,,1366,768,50.785000000000004,4,"425.17, 424.43, 35.16, 22.46, 427.26, 429.17, 442.3",684.16,8.864554724,35.4582189,27.83653633,Passed,118.7850333,,,,,,,,,,,,,,,,,,,,,,,,,,338.4832,354.6334,,,,,,,,,,,,,,,,,,,,,,,,,,,,,,,,,,,,,,,,,,,,,,,,,,,,,,,,,,,,,,,,,,,,,,,,,,,,,,,,,,,,,,,,,,,,,,,,,,,,,,,,,,,,,,,,,,,,,,,,,,,,,,,,,,,,,,,,,
,,2,11,${e://Field/PROLIFIC_PID,M,21,2023-11-02_08h18.00.310,MouseEye_CC,2023.2.2,Win32,60.7681089,1.273801398,,,1366,768,50.785000000000004,4,"425.17, 424.43, 35.16, 22.46, 427.26, 429.17, 442.3",684.16,8.864554724,35.4582189,27.83653633,Passed,118.7850333,,,,,,,,,,,,,,,,,,,,,,,,,,,,354.6338,376.9206,,,,,,,,,,,,,,,,,,,,,,,,,,,,,,,,,,,,,,,,,,,,,,,,,,,,,,,,,,,,,,,,,,,,,,,,,,,,,,,,,,,,,,,,,,,,,,,,,,,,,,,,,,,,,,,,,,,,,,,,,,,,,,,,,,,,,,,
,,2,11,${e://Field/PROLIFIC_PID,M,21,2023-11-02_08h18.00.310,MouseEye_CC,2023.2.2,Win32,60.7681089,1.273801398,,,1366,768,50.785000000000004,4,"425.17, 424.43, 35.16, 22.46, 427.26, 429.17, 442.3",684.16,8.864554724,35.4582189,27.83653633,Passed,118.7850333,,,,,,,,,,,,,,,,,,,,practice,0,1,0,left,a,,,,,376.965,379.6399,35.66643914,3,2,1,0,0,2.6744,fixationPoint,379.6401,379.7386,379.7392,383.1384,35.66643914,10190.41118,613.9722738,a,1,3.3463,,383.1386,383.3304,0,0,0,0,1,4,sparse,90,217,-164,68,123,222,26,214,216,-218,159,-120,223,-110,82,-115,-130,-224,-120,-68,-219,79,-175,19,-128,90,270,360,90,270,270,180,90,90,90,270,,,,,,,,,,,,,,,,,,,,,,,,,,,,,,,,,,,,,,,,,,,,,,,,,,,,,,,,,,,,,,,,,,,,,
,,2,11,${e://Field/PROLIFIC_PID,M,21,2023-11-02_08h18.00.310,MouseEye_CC,2023.2.2,Win32,60.7681089,1.273801398,,,1366,768,50.785000000000004,4,"425.17, 424.43, 35.16, 22.46, 427.26, 429.17, 442.3",684.16,8.864554724,35.4582189,27.83653633,Passed,118.7850333,,,,,,,,,,,,,,,,,,,,practice,0,2,0,left,a,,,,,383.3341,384.5303,35.66643914,3,2,1,0,0,1.1959,fixationPoint,384.5306,384.6315,384.6318,388.0975,35.66643914,10190.41118,613.9722738,a,1,3.4489,,388.0977,388.2968,0,1,1,1,1,1,rich,39,169,66,-126,125,-169,169,-130,19,-169,-116,-125,-167,-224,-216,218,-129,171,-218,18,-208,166,26,17,170,180,90,360,270,90,90,90,270,180,180,270,,,,,,,,,,,,,,,,,,,,,,,,,,,,,,,,,,,,,,,,,,,,,,,,,,,,,,,,,,,,,,,,,,,,,
,,2,11,${e://Field/PROLIFIC_PID,M,21,2023-11-02_08h18.00.310,MouseEye_CC,2023.2.2,Win32,60.7681089,1.273801398,,,1366,768,50.785000000000004,4,"425.17, 424.43, 35.16, 22.46, 427.26, 429.17, 442.3",684.16,8.864554724,35.4582189,27.83653633,Passed,118.7850333,,,,,,,,,,,,,,,,,,,,practice,0,3,0,left,a,,,,,388.2993,389.1968,35.66643914,3,2,1,0,0,0.8969,fixationPoint,389.1971,389.2972,389.2974,391.5142,35.66643914,10190.41118,613.9722738,a,1,2.2005,,391.5144,391.7139,0,2,2,2,1,2,sparse,22,-162,126,222,26,17,170,126,172,-25,-117,-175,-206,-224,-216,116,-19,130,-174,217,-164,-218,159,-21,162,90,90,180,360,360,270,360,360,360,360,180,,,,,,,,,,,,,,,,,,,,,,,,,,,,,,,,,,,,,,,,,,,,,,,,,,,,,,,,,,,,,,,,,,,,,
,,2,11,${e://Field/PROLIFIC_PID,M,21,2023-11-02_08h18.00.310,MouseEye_CC,2023.2.2,Win32,60.7681089,1.273801398,,,1366,768,50.785000000000004,4,"425.17, 424.43, 35.16, 22.46, 427.26, 429.17, 442.3",684.16,8.864554724,35.4582189,27.83653633,Passed,118.7850333,,,,,,,,,,,,,,,,,,,,practice,0,4,180,right,s,,,,,391.716,392.3637,35.66643914,3,2,1,0,0,0.6473,fixationPoint,392.3641,392.4635,392.4637,396.631,35.66643914,10190.41118,613.9722738,s,1,4.1559,,396.6313,396.8302,0,3,3,3,1,4,sparse,76,19,-128,159,121,214,216,219,165,-218,159,-162,126,-219,119,-169,-116,-111,-31,-175,-206,18,-208,81,-114,90,270,180,180,270,180,360,360,360,270,360,,,,,,,,,,,,,,,,,,,,,,,,,,,,,,,,,,,,,,,,,,,,,,,,,,,,,,,,,,,,,,,,,,,,,
,,2,11,${e://Field/PROLIFIC_PID,M,21,2023-11-02_08h18.00.310,MouseEye_CC,2023.2.2,Win32,60.7681089,1.273801398,,,1366,768,50.785000000000004,4,"425.17, 424.43, 35.16, 22.46, 427.26, 429.17, 442.3",684.16,8.864554724,35.4582189,27.83653633,Passed,118.7850333,,,,,,,,,,,,,,,,,,,,practice,0,5,180,right,s,,,,,396.8325,397.5639,35.66643914,3,2,1,0,0,0.7309,fixationPoint,397.5641,397.6635,397.6636,401.6047,35.66643914,10190.41118,613.9722738,s,1,3.9308,,401.6049,401.8016,0,4,4,4,1,3,sparse,85,-19,-173,219,165,68,123,214,216,-160,68,-64,120,-226,34,162,-21,224,-216,167,-163,-167,-74,-224,-216,360,360,360,90,180,270,90,360,270,270,360,,,,,,,,,,,,,,,,,,,,,,,,,,,,,,,,,,,,,,,,,,,,,,,,,,,,,,,,,,,,,,,,,,,,,
,,2,11,${e://Field/PROLIFIC_PID,M,21,2023-11-02_08h18.00.310,MouseEye_CC,2023.2.2,Win32,60.7681089,1.273801398,,,1366,768,50.785000000000004,4,"425.17, 424.43, 35.16, 22.46, 427.26, 429.17, 442.3",684.16,8.864554724,35.4582189,27.83653633,Passed,118.7850333,,,,,,,,,,,,,,,,,,,,practice,0,6,180,right,s,,,,,401.8036,402.3707,35.66643914,3,2,1,0,0,0.5668,fixationPoint,402.3709,402.4706,402.4708,405.6359,35.66643914,10190.41118,613.9722738,s,1,3.1512,,405.6362,405.8337,0,5,5,5,1,3,sparse,95,-21,-224,126,172,219,165,166,26,-166,207,-223,206,-219,119,169,-75,18,-208,224,-216,-72,-121,-115,-130,180,180,360,180,360,180,270,180,90,180,360,,,,,,,,,,,,,,,,,,,,,,,,,,,,,,,,,,,,,,,,,,,,,,,,,,,,,,,,,,,,,,,,,,,,,
,,2,11,${e://Field/PROLIFIC_PID,M,21,2023-11-02_08h18.00.310,MouseEye_CC,2023.2.2,Win32,60.7681089,1.273801398,,,1366,768,50.785000000000004,4,"425.17, 424.43, 35.16, 22.46, 427.26, 429.17, 442.3",684.16,8.864554724,35.4582189,27.83653633,Passed,118.7850333,,,,,,,,,,,,,,,,,,,,practice,0,7,0,left,a,,,,,405.8363,406.4714,35.66643914,3,2,1,0,0,0.6346,fixationPoint,406.4716,406.5637,406.5641,409.5363,35.66643914,10190.41118,613.9722738,a,1,2.9516,,409.5368,409.7304,0,6,6,6,1,1,rich,7,62,223,-166,207,-226,34,-162,126,-169,-116,-168,-160,-161,-27,15,-162,162,-21,79,-175,219,165,219,129,180,180,360,180,270,360,180,360,270,180,360,,,,,,,,,,,,,,,,,,,,,,,,,,,,,,,,,,,,,,,,,,,,,,,,,,,,,,,,,,,,,,,,,,,,,
,,2,11,${e://Field/PROLIFIC_PID,M,21,2023-11-02_08h18.00.310,MouseEye_CC,2023.2.2,Win32,60.7681089,1.273801398,,,1366,768,50.785000000000004,4,"425.17, 424.43, 35.16, 22.46, 427.26, 429.17, 442.3",684.16,8.864554724,35.4582189,27.83653633,Passed,118.7850333,,,,,,,,,,,,,,,,,,,,practice,0,8,180,right,s,,,,,409.7324,410.4539,35.66643914,3,2,1,0,0,0.7206,fixationPoint,410.454,410.5475,410.5476,415.1865,35.66643914,10190.41118,613.9722738,s,1,4.6181,,415.1867,415.3818,0,7,7,7,1,2,sparse,24,-64,120,18,215,126,172,33,121,-206,-170,-64,-162,-218,-78,130,-174,211,-74,168,-130,-164,32,-21,162,90,180,270,360,180,90,180,180,180,360,270,,,,,,,,,,,,,,,,,,,,,,,,,,,,,,,,,,,,,,,,,,,,,,,,,,,,,,,,,,,,,,,,,,,,,
,,2,11,${e://Field/PROLIFIC_PID,M,21,2023-11-02_08h18.00.310,MouseEye_CC,2023.2.2,Win32,60.7681089,1.273801398,,,1366,768,50.785000000000004,4,"425.17, 424.43, 35.16, 22.46, 427.26, 429.17, 442.3",684.16,8.864554724,35.4582189,27.83653633,Passed,118.7850333,,,,,,,,,,,,,,,,,,,,practice,0,9,180,right,s,,,,,415.3833,417.3374,35.66643914,3,2,1,0,0,1.9539,fixationPoint,417.3377,417.4372,417.4373,420.3859,35.66643914,10190.41118,613.9722738,s,1,2.9343,,420.3863,420.5809,0,8,8,8,1,3,sparse,85,-19,-173,127,30,62,223,217,67,-110,82,-21,162,-80,218,167,-163,126,-79,130,-174,-125,-167,-68,-219,360,360,360,180,360,360,180,270,90,360,180,,,,,,,,,,,,,,,,,,,,,,,,,,,,,,,,,,,,,,,,,,,,,,,,,,,,,,,,,,,,,,,,,,,,,
,,2,11,${e://Field/PROLIFIC_PID,M,21,2023-11-02_08h18.00.310,MouseEye_CC,2023.2.2,Win32,60.7681089,1.273801398,,,1366,768,50.785000000000004,4,"425.17, 424.43, 35.16, 22.46, 427.26, 429.17, 442.3",684.16,8.864554724,35.4582189,27.83653633,Passed,118.7850333,,,,,,,,,,,,,,,,,,,,practice,0,10,180,right,s,,,,,420.5832,421.0705,35.66643914,3,2,1,0,0,0.487,fixationPoint,421.0707,421.1683,421.1684,426.8862,35.66643914,10190.41118,613.9722738,s,1,5.7008,,426.8865,427.0806,0,9,9,9,1,1,rich,9,160,209,-166,207,-226,34,-120,223,-224,-120,-118,-217,-218,-78,112,-209,126,-113,169,-75,178,160,110,129,180,90,90,270,360,270,360,180,360,180,360,,,,,,,,,,,,,,,,,,,,,,,,,,,,,,,,,,,,,,,,,,,,,,,,,,,,,,,,,,,,,,,,,,,,,
,,2,11,${e://Field/PROLIFIC_PID,M,21,2023-11-02_08h18.00.310,MouseEye_CC,2023.2.2,Win32,60.7681089,1.273801398,,,1366,768,50.785000000000004,4,"425.17, 424.43, 35.16, 22.46, 427.26, 429.17, 442.3",684.16,8.864554724,35.4582189,27.83653633,Passed,118.7850333,,,,,,,,,,,,,,,,,,,,practice,0,11,180,right,s,,,,,427.0828,429.6206,35.66643914,3,2,1,0,0,2.5375,fixationPoint,429.6208,429.7173,429.7176,432.6192,35.66643914,10190.41118,613.9722738,s,1,2.8839,,432.6196,432.8178,0,10,10,10,1,4,sparse,80,218,-129,62,223,159,121,110,129,-218,159,-223,206,-75,173,-169,-116,-118,-217,-125,-167,217,-164,169,-75,360,270,360,180,360,180,180,270,360,180,90,,,,,,,,,,,,,,,,,,,,,,,,,,,,,,,,,,,,,,,,,,,,,,,,,,,,,,,,,,,,,,,,,,,,,
,,2,11,${e://Field/PROLIFIC_PID,M,21,2023-11-02_08h18.00.310,MouseEye_CC,2023.2.2,Win32,60.7681089,1.273801398,,,1366,768,50.785000000000004,4,"425.17, 424.43, 35.16, 22.46, 427.26, 429.17, 442.3",684.16,8.864554724,35.4582189,27.83653633,Passed,118.7850333,,,,,,,,,,,,,,,,,,,,practice,0,12,0,left,a,,,,,432.8202,434.0212,35.66643914,3,2,1,0,0,1.2007,fixationPoint,434.0213,434.1179,434.118,435.2543,35.66643914,10190.41118,613.9722738,a,1,1.1182,,435.2544,435.4469,0,11,11,11,1,3,sparse,75,-25,-117,110,129,125,63,214,216,-164,32,-27,117,-126,125,171,-218,126,-113,167,-163,-21,-224,-212,-21,270,180,180,360,180,270,360,270,360,180,270,,,,,,,,,,,,,,,,,,,,,,,,,,,,,,,,,,,,,,,,,,,,,,,,,,,,,,,,,,,,,,,,,,,,,
,,2,11,${e://Field/PROLIFIC_PID,M,21,2023-11-02_08h18.00.310,MouseEye_CC,2023.2.2,Win32,60.7681089,1.273801398,,,1366,768,50.785000000000004,4,"425.17, 424.43, 35.16, 22.46, 427.26, 429.17, 442.3",684.16,8.864554724,35.4582189,27.83653633,Passed,118.7850333,,,,,,,,,,,,,,,,,,,,,,,,,,,,,,,,,,,,,,,,,,,,,,,,,,,,,,,,,,,,,,,,,,,,,,,,,,,,,,,,,,,,,,,,,,,,,,,,435.4498,449.5212,a,1,14.0468,,,,,,,,,,,,,,,,,,,,,,,,,,,,,,,,,,,,,,,,,,,,,,,,,,,,,,,,,,,,,,,,
,,2,11,${e://Field/PROLIFIC_PID,M,21,2023-11-02_08h18.00.310,MouseEye_CC,2023.2.2,Win32,60.7681089,1.273801398,,,1366,768,50.785000000000004,4,"425.17, 424.43, 35.16, 22.46, 427.26, 429.17, 442.3",684.16,8.864554724,35.4582189,27.83653633,Passed,118.7850333,,,,,,,,,,,,,,,,,,,,,,,,,,,,,,,,,,,,,,,,,,,,,,,,,,,,,,,,,,,,,,,,,,,,,,,,,,,,,,,,,,,,,,,,,,,,,,,,,,,,,,449.5217,452.7698,,,,,,,,,,,,,,,,,,,,,,,,,,,,,,,,,,,,,,,,,,,,,,,,,,,,,,,,,,,,,
,,2,11,${e://Field/PROLIFIC_PID,M,21,2023-11-02_08h18.00.310,MouseEye_CC,2023.2.2,Win32,60.7681089,1.273801398,,,1366,768,50.785000000000004,4,"425.17, 424.43, 35.16, 22.46, 427.26, 429.17, 442.3",684.16,8.864554724,35.4582189,27.83653633,Passed,118.7850333,,,,,,,,,,,,,,,,,,,,,,,,,,,,,,,,,,,,,,,,,,,,,,,,,,,,,,,,,,,,,,,,,,,,,,,,,,,,,,,,,,,,,,,,,,,,,,,,,,,,,,,,452.7706,474.5499,,,,,,,,,,,,,,,,,,,,,,,,,,,,,,,,,,,,,,,,,,,,,,,,,,,,,,,,,,,
,,2,11,${e://Field/PROLIFIC_PID,M,21,2023-11-02_08h18.00.310,MouseEye_CC,2023.2.2,Win32,60.7681089,1.273801398,,,1366,768,50.785000000000004,4,"425.17, 424.43, 35.16, 22.46, 427.26, 429.17, 442.3",684.16,8.864554724,35.4582189,27.83653633,Passed,118.7850333,,,,,,,,,,,,,,,,,,,,training,1,1,180,right,s,,,,,474.8348,476.3317,35.66643914,-3,4,1,0,0,1.4959,fixationPoint,476.3318,476.4304,476.4306,478.1362,35.66643914,10190.41118,613.9722738,s,1,1.6842,,478.1363,478.3304,,,,,,,,93,-126,-209,24,113,125,164,169,68,-70,22,-172,16,-72,215,66,-120,160,-126,27,-216,-120,-117,-170,-212,90,90,360,360,90,180,90,360,360,360,90,,,,,,,,,,,478.3315,478.3406,,0,0,0,0,1,5,repeated,,,,,,,,,,,,,,,,,,,,,,,,,,,,,,,,,,,,,,,,,,,,,,,,,
,,2,11,${e://Field/PROLIFIC_PID,M,21,2023-11-02_08h18.00.310,MouseEye_CC,2023.2.2,Win32,60.7681089,1.273801398,,,1366,768,50.785000000000004,4,"425.17, 424.43, 35.16, 22.46, 427.26, 429.17, 442.3",684.16,8.864554724,35.4582189,27.83653633,Passed,118.7850333,,,,,,,,,,,,,,,,,,,,training,1,2,0,left,a,,,,,478.3415,479.0367,35.66643914,-3,4,1,0,0,0.6947,fixationPoint,479.0368,479.1336,479.1338,481.7367,35.66643914,10190.41118,613.9722738,a,1,2.585,,481.7368,481.9342,,,,,,,,70,219,-72,220,122,125,32,125,164,-209,221,-169,117,-80,174,-19,-128,-219,-75,-170,-212,24,-65,29,-114,360,180,90,270,270,90,90,360,360,270,90,,,,,,,,,,,481.9343,481.9352,,0,1,1,1,1,8,repeated,,,,,,,,,,,,,,,,,,,,,,,,,,,,,,,,,,,,,,,,,,,,,,,,,
,,2,11,${e://Field/PROLIFIC_PID,M,21,2023-11-02_08h18.00.310,MouseEye_CC,2023.2.2,Win32,60.7681089,1.273801398,,,1366,768,50.785000000000004,4,"425.17, 424.43, 35.16, 22.46, 427.26, 429.17, 442.3",684.16,8.864554724,35.4582189,27.83653633,Passed,118.7850333,,,,,,,,,,,,,,,,,,,,training,1,3,0,left,a,,,,,481.937,482.7894,35.66643914,-3,4,1,0,0,0.8523,fixationPoint,482.7894,482.8842,482.8844,486.6198,35.66643914,10190.41118,613.9722738,a,1,3.7181,,486.6199,486.8172,,,,,,,,29,166,115,-64,123,-21,173,-163,214,-26,-76,-173,-66,-26,-218,24,-65,68,-211,116,-77,76,28,164,223,270,90,270,270,360,360,90,180,360,360,180,,,,,,,,,,,486.8174,486.8183,,0,2,2,2,1,14,novel,,,,,,,,,,,,,,,,,,,,,,,,,,,,,,,,,,,,,,,,,,,,,,,,,
,,2,11,${e://Field/PROLIFIC_PID,M,21,2023-11-02_08h18.00.310,MouseEye_CC,2023.2.2,Win32,60.7681089,1.273801398,,,1366,768,50.785000000000004,4,"425.17, 424.43, 35.16, 22.46, 427.26, 429.17, 442.3",684.16,8.864554724,35.4582189,27.83653633,Passed,118.7850333,,,,,,,,,,,,,,,,,,,,training,1,4,0,left,a,,,,,486.8206,487.1894,35.66643914,-3,4,1,0,0,0.3684,fixationPoint,487.1895,487.2804,487.2809,489.9024,35.66643914,10190.41118,613.9722738,a,1,2.6009,,489.9027,490.1007,,,,,,,,87,75,-176,67,68,32,28,16,210,-209,221,-169,117,-30,210,-119,-172,-73,-112,-72,-215,18,-176,219,-72,90,90,180,180,180,270,180,270,360,90,180,,,,,,,,,,,490.1008,490.1021,,0,3,3,3,1,7,repeated,,,,,,,,,,,,,,,,,,,,,,,,,,,,,,,,,,,,,,,,,,,,,,,,,
,,2,11,${e://Field/PROLIFIC_PID,M,21,2023-11-02_08h18.00.310,MouseEye_CC,2023.2.2,Win32,60.7681089,1.273801398,,,1366,768,50.785000000000004,4,"425.17, 424.43, 35.16, 22.46, 427.26, 429.17, 442.3",684.16,8.864554724,35.4582189,27.83653633,Passed,118.7850333,,,,,,,,,,,,,,,,,,,,training,1,5,180,right,s,,,,,490.1034,490.4713,35.66643914,-3,4,1,0,0,0.3677,fixationPoint,490.4714,490.5676,490.5677,492.719,35.66643914,10190.41118,613.9722738,s,1,2.133,,492.7195,492.9176,,,,,,,,72,-169,-126,222,223,165,171,28,68,-128,28,-72,215,-114,176,219,-72,27,-216,68,-211,-172,-25,-209,-208,180,180,180,360,90,180,360,180,180,360,270,,,,,,,,,,,492.9179,492.9188,,0,4,4,4,1,6,repeated,,,,,,,,,,,,,,,,,,,,,,,,,,,,,,,,,,,,,,,,,,,,,,,,,
,,2,11,${e://Field/PROLIFIC_PID,M,21,2023-11-02_08h18.00.310,MouseEye_CC,2023.2.2,Win32,60.7681089,1.273801398,,,1366,768,50.785000000000004,4,"425.17, 424.43, 35.16, 22.46, 427.26, 429.17, 442.3",684.16,8.864554724,35.4582189,27.83653633,Passed,118.7850333,,,,,,,,,,,,,,,,,,,,training,1,6,180,right,s,,,,,492.9206,493.3976,35.66643914,-3,4,1,0,0,0.4767,fixationPoint,493.3977,493.4986,493.4987,496.0872,35.66643914,10190.41118,613.9722738,s,1,2.5689,,496.0874,496.2803,,,,,,,,88,122,-168,213,26,164,30,76,28,-208,125,-114,120,-114,176,-116,-68,-25,-27,-126,-25,66,-120,208,-118,180,270,180,360,180,90,180,90,90,90,270,,,,,,,,,,,496.2805,496.2811,,0,5,5,5,1,11,novel,,,,,,,,,,,,,,,,,,,,,,,,,,,,,,,,,,,,,,,,,,,,,,,,,
,,2,11,${e://Field/PROLIFIC_PID,M,21,2023-11-02_08h18.00.310,MouseEye_CC,2023.2.2,Win32,60.7681089,1.273801398,,,1366,768,50.785000000000004,4,"425.17, 424.43, 35.16, 22.46, 427.26, 429.17, 442.3",684.16,8.864554724,35.4582189,27.83653633,Passed,118.7850333,,,,,,,,,,,,,,,,,,,,training,1,7,180,right,s,,,,,496.2833,496.5032,35.66643914,-3,4,1,0,0,0.2196,fixationPoint,496.5037,496.6011,496.6012,500.3209,35.66643914,10190.41118,613.9722738,s,1,3.7025,,500.3216,500.5179,,,,,,,,76,29,-114,126,73,164,30,80,119,-219,20,-70,22,-164,165,-221,-24,-119,-172,-26,-218,172,-176,216,-223,90,180,180,180,180,90,360,270,360,270,270,,,,,,,,,,,500.5181,500.5193,,0,6,6,6,1,12,novel,,,,,,,,,,,,,,,,,,,,,,,,,,,,,,,,,,,,,,,,,,,,,,,,,
,,2,11,${e://Field/PROLIFIC_PID,M,21,2023-11-02_08h18.00.310,MouseEye_CC,2023.2.2,Win32,60.7681089,1.273801398,,,1366,768,50.785000000000004,4,"425.17, 424.43, 35.16, 22.46, 427.26, 429.17, 442.3",684.16,8.864554724,35.4582189,27.83653633,Passed,118.7850333,,,,,,,,,,,,,,,,,,,,training,1,8,180,right,s,,,,,500.521,500.7044,35.66643914,-3,4,1,0,0,0.1833,fixationPoint,500.7046,500.8008,500.801,503.0192,35.66643914,10190.41118,613.9722738,s,1,2.2013,,503.0196,503.2174,,,,,,,,25,-17,112,165,171,16,210,220,122,-73,-112,-170,-212,-120,-117,219,-72,118,-31,165,-212,-18,32,-209,221,90,270,90,180,360,270,90,90,180,90,270,,,,,,,,,,,503.2178,503.2189,,0,7,7,7,1,4,repeated,,,,,,,,,,,,,,,,,,,,,,,,,,,,,,,,,,,,,,,,,,,,,,,,,
,,2,11,${e://Field/PROLIFIC_PID,M,21,2023-11-02_08h18.00.310,MouseEye_CC,2023.2.2,Win32,60.7681089,1.273801398,,,1366,768,50.785000000000004,4,"425.17, 424.43, 35.16, 22.46, 427.26, 429.17, 442.3",684.16,8.864554724,35.4582189,27.83653633,Passed,118.7850333,,,,,,,,,,,,,,,,,,,,training,1,9,180,right,s,,,,,503.2203,503.3809,35.66643914,-3,4,1,0,0,0.1602,fixationPoint,503.3812,503.4837,503.4839,505.9991,35.66643914,10190.41118,613.9722738,s,1,2.498,,505.9994,506.2004,,,,,,,,28,121,112,-215,72,-128,28,-214,166,-68,-170,-26,-218,-120,-117,66,-120,29,-114,116,-77,164,223,218,161,180,360,360,360,180,360,360,360,360,90,90,,,,,,,,,,,506.2007,506.2015,,0,8,8,8,1,2,repeated,,,,,,,,,,,,,,,,,,,,,,,,,,,,,,,,,,,,,,,,,,,,,,,,,
,,2,11,${e://Field/PROLIFIC_PID,M,21,2023-11-02_08h18.00.310,MouseEye_CC,2023.2.2,Win32,60.7681089,1.273801398,,,1366,768,50.785000000000004,4,"425.17, 424.43, 35.16, 22.46, 427.26, 429.17, 442.3",684.16,8.864554724,35.4582189,27.83653633,Passed,118.7850333,,,,,,,,,,,,,,,,,,,,training,1,10,0,left,a,,,,,506.2031,506.681,35.66643914,-3,4,1,0,0,0.4774,fixationPoint,506.6815,506.7807,506.7809,511.5676,35.66643914,10190.41118,613.9722738,s,0,4.7662,,511.5681,515.5634,,,,,,,,31,-215,72,80,119,165,171,28,68,-170,-212,-126,-209,-120,-117,219,-72,172,-176,209,-24,-18,32,-127,72,180,180,180,360,180,90,270,270,180,90,90,,,,,,,,,,,515.5636,515.5783,,0,9,9,9,1,16,novel,,,,,,,,,,,,,,,,,,,,,,,,,,,,,,,,,,,,,,,,,,,,,,,,,
,,2,11,${e://Field/PROLIFIC_PID,M,21,2023-11-02_08h18.00.310,MouseEye_CC,2023.2.2,Win32,60.7681089,1.273801398,,,1366,768,50.785000000000004,4,"425.17, 424.43, 35.16, 22.46, 427.26, 429.17, 442.3",684.16,8.864554724,35.4582189,27.83653633,Passed,118.7850333,,,,,,,,,,,,,,,,,,,,training,1,11,0,left,a,,,,,515.5797,516.4041,35.66643914,2,0,1,0,0,0.8237,fixationPoint,516.4042,516.5014,516.5014,519.3694,35.66643914,10190.41118,613.9722738,a,1,2.8511,,519.3697,519.5632,,,,,,,,14,-80,174,212,67,64,169,220,122,-172,-25,-170,-212,-120,-117,24,-65,209,-24,75,-176,-164,165,-172,16,90,90,90,180,90,360,180,360,270,270,270,,,,,,,,,,,519.5633,519.5646,,0,10,10,10,1,15,novel,,,,,,,,,,,,,,,,,,,,,,,,,,,,,,,,,,,,,,,,,,,,,,,,,
,,2,11,${e://Field/PROLIFIC_PID,M,21,2023-11-02_08h18.00.310,MouseEye_CC,2023.2.2,Win32,60.7681089,1.273801398,,,1366,768,50.785000000000004,4,"425.17, 424.43, 35.16, 22.46, 427.26, 429.17, 442.3",684.16,8.864554724,35.4582189,27.83653633,Passed,118.7850333,,,,,,,,,,,,,,,,,,,,training,1,12,0,left,a,,,,,519.5661,520.0635,35.66643914,2,0,1,0,0,0.497,fixationPoint,520.0638,520.1635,520.1636,523.1971,35.66643914,10190.41118,613.9722738,a,1,3.0181,,523.1976,523.3969,,,,,,,,30,220,122,-215,72,-208,125,-72,215,-119,-172,-219,-75,-73,-112,24,-65,168,-76,208,-118,166,115,218,161,180,180,180,90,90,270,360,270,360,180,270,,,,,,,,,,,523.3969,523.398,,0,11,11,11,1,1,repeated,,,,,,,,,,,,,,,,,,,,,,,,,,,,,,,,,,,,,,,,,,,,,,,,,
,,2,11,${e://Field/PROLIFIC_PID,M,21,2023-11-02_08h18.00.310,MouseEye_CC,2023.2.2,Win32,60.7681089,1.273801398,,,1366,768,50.785000000000004,4,"425.17, 424.43, 35.16, 22.46, 427.26, 429.17, 442.3",684.16,8.864554724,35.4582189,27.83653633,Passed,118.7850333,,,,,,,,,,,,,,,,,,,,training,1,13,180,right,s,,,,,523.3999,523.7523,35.66643914,2,0,1,0,0,0.352,fixationPoint,523.7524,523.8469,523.847,528.6471,35.66643914,10190.41118,613.9722738,s,1,4.7889,,528.6473,528.8465,,,,,,,,13,-114,176,164,30,125,32,169,68,-116,-68,-219,-75,-72,-29,32,-28,211,-165,116,-128,-169,117,-128,28,270,270,270,90,90,90,270,180,270,270,180,,,,,,,,,,,528.8467,528.8472,,0,12,12,12,1,3,repeated,,,,,,,,,,,,,,,,,,,,,,,,,,,,,,,,,,,,,,,,,,,,,,,,,
,,2,11,${e://Field/PROLIFIC_PID,M,21,2023-11-02_08h18.00.310,MouseEye_CC,2023.2.2,Win32,60.7681089,1.273801398,,,1366,768,50.785000000000004,4,"425.17, 424.43, 35.16, 22.46, 427.26, 429.17, 442.3",684.16,8.864554724,35.4582189,27.83653633,Passed,118.7850333,,,,,,,,,,,,,,,,,,,,training,1,14,0,left,a,,,,,528.8497,529.167,35.66643914,2,0,1,0,0,0.317,fixationPoint,529.1671,529.2635,529.2636,530.4138,35.66643914,10190.41118,613.9722738,a,1,1.1347,,530.4142,530.6134,,,,,,,,8,124,213,-64,123,-70,22,-128,28,-19,-128,-119,-172,-219,-75,163,-30,160,-126,172,-176,32,28,212,67,180,270,180,90,270,270,270,180,180,180,90,,,,,,,,,,,530.6136,530.6143,,0,13,13,13,1,13,novel,,,,,,,,,,,,,,,,,,,,,,,,,,,,,,,,,,,,,,,,,,,,,,,,,
,,2,11,${e://Field/PROLIFIC_PID,M,21,2023-11-02_08h18.00.310,MouseEye_CC,2023.2.2,Win32,60.7681089,1.273801398,,,1366,768,50.785000000000004,4,"425.17, 424.43, 35.16, 22.46, 427.26, 429.17, 442.3",684.16,8.864554724,35.4582189,27.83653633,Passed,118.7850333,,,,,,,,,,,,,,,,,,,,training,1,15,0,left,a,,,,,530.6162,530.9969,35.66643914,2,0,1,0,0,0.3804,fixationPoint,530.9971,531.0975,531.0976,534.1642,35.66643914,10190.41118,613.9722738,a,1,3.0495,,534.1642,534.363,,,,,,,,71,-214,-115,24,113,169,68,220,122,-64,123,-208,125,-172,16,71,-22,29,-114,112,-212,-170,-212,-116,-68,360,360,360,90,180,360,360,270,90,180,180,,,,,,,,,,,534.3631,534.3637,,0,14,14,14,1,9,novel,,,,,,,,,,,,,,,,,,,,,,,,,,,,,,,,,,,,,,,,,,,,,,,,,
,,2,11,${e://Field/PROLIFIC_PID,M,21,2023-11-02_08h18.00.310,MouseEye_CC,2023.2.2,Win32,60.7681089,1.273801398,,,1366,768,50.785000000000004,4,"425.17, 424.43, 35.16, 22.46, 427.26, 429.17, 442.3",684.16,8.864554724,35.4582189,27.83653633,Passed,118.7850333,,,,,,,,,,,,,,,,,,,,training,1,16,180,right,s,,,,,534.3662,534.6802,35.66643914,2,0,1,0,0,0.3137,fixationPoint,534.6804,534.7814,534.7816,540.8977,35.66643914,10190.41118,613.9722738,s,1,6.0975,,540.8979,541.0965,,,,,,,,73,-120,-117,222,223,121,112,164,30,-64,123,-164,165,-30,210,118,-31,116,-77,219,-72,-72,-29,-209,-208,180,180,90,90,360,360,360,180,360,360,360,,,,,,,,,,,541.0967,549.6337,space,0,15,15,15,1,10,novel,8.5048,,,,,,,,,,,,,,,,,,,,,,,,,,,,,,,,,,,,,,,,,,,,,,,,
,,2,11,${e://Field/PROLIFIC_PID,M,21,2023-11-02_08h18.00.310,MouseEye_CC,2023.2.2,Win32,60.7681089,1.273801398,,,1366,768,50.785000000000004,4,"425.17, 424.43, 35.16, 22.46, 427.26, 429.17, 442.3",684.16,8.864554724,35.4582189,27.83653633,Passed,118.7850333,,,,,,,,,,,,,,,,,,,,training,2,1,180,right,s,,,,,549.6506,551.2003,35.66643914,-3,3,1,0,0,1.5495,fixationPoint,551.2003,551.2987,551.2988,555.5487,35.66643914,10190.41118,613.9722738,s,1,4.2344,,555.5488,555.7495,,,,,,,,28,121,112,-215,72,-128,28,-214,166,-68,-170,-26,-218,-120,-117,66,-120,29,-114,116,-77,164,223,218,161,180,180,360,360,90,90,90,270,180,360,180,,,,,,,,,,,555.7499,555.7525,,0,16,16,16,1,2,repeated,,,,,,,,,,,,,,,,,,,,,,,,,,,,,,,,,,,,,,,,,,,,,,,,,
,,2,11,${e://Field/PROLIFIC_PID,M,21,2023-11-02_08h18.00.310,MouseEye_CC,2023.2.2,Win32,60.7681089,1.273801398,,,1366,768,50.785000000000004,4,"425.17, 424.43, 35.16, 22.46, 427.26, 429.17, 442.3",684.16,8.864554724,35.4582189,27.83653633,Passed,118.7850333,,,,,,,,,,,,,,,,,,,,training,2,2,180,right,s,,,,,555.7532,556.5823,35.66643914,2,7,1,0,0,0.8288,fixationPoint,556.5825,556.683,556.6831,559.4652,35.66643914,10190.41118,613.9722738,s,1,2.7713,,559.4653,559.6654,,,,,,,,76,29,-114,212,67,125,32,169,68,-128,28,-72,215,-209,221,-65,-68,-126,-209,-170,-212,75,-176,65,-80,90,90,270,360,360,180,270,360,270,90,90,,,,,,,,,,,559.6657,559.6664,,0,17,17,17,1,12,novel,,,,,,,,,,,,,,,,,,,,,,,,,,,,,,,,,,,,,,,,,,,,,,,,,
,,2,11,${e://Field/PROLIFIC_PID,M,21,2023-11-02_08h18.00.310,MouseEye_CC,2023.2.2,Win32,60.7681089,1.273801398,,,1366,768,50.785000000000004,4,"425.17, 424.43, 35.16, 22.46, 427.26, 429.17, 442.3",684.16,8.864554724,35.4582189,27.83653633,Passed,118.7850333,,,,,,,,,,,,,,,,,,,,training,2,3,0,left,a,,,,,559.6672,560.0155,35.66643914,2,7,1,0,0,0.348,fixationPoint,560.0156,560.1152,560.1153,563.5147,35.66643914,10190.41118,613.9722738,a,1,3.3846,,563.5149,563.7152,,,,,,,,31,-215,72,80,119,76,28,165,171,-126,-209,-172,-25,-25,-27,68,-211,116,-128,216,-223,-64,123,-127,72,360,270,90,90,360,90,90,360,90,270,360,,,,,,,,,,,563.7153,563.7156,,0,18,18,18,1,16,novel,,,,,,,,,,,,,,,,,,,,,,,,,,,,,,,,,,,,,,,,,,,,,,,,,
,,2,11,${e://Field/PROLIFIC_PID,M,21,2023-11-02_08h18.00.310,MouseEye_CC,2023.2.2,Win32,60.7681089,1.273801398,,,1366,768,50.785000000000004,4,"425.17, 424.43, 35.16, 22.46, 427.26, 429.17, 442.3",684.16,8.864554724,35.4582189,27.83653633,Passed,118.7850333,,,,,,,,,,,,,,,,,,,,training,2,4,0,left,a,,,,,563.7164,564.0323,35.66643914,2,7,1,0,0,0.3156,fixationPoint,564.0325,564.1327,564.1329,569.832,35.66643914,10190.41118,613.9722738,a,1,5.683,,569.8321,570.032,,,,,,,,14,-80,174,125,164,166,115,67,68,-126,-25,-26,-218,-172,-25,24,-65,116,-77,118,-31,-18,32,-114,176,90,180,270,180,270,360,90,270,90,270,180,,,,,,,,,,,570.0322,570.0325,,0,19,19,19,1,15,novel,,,,,,,,,,,,,,,,,,,,,,,,,,,,,,,,,,,,,,,,,,,,,,,,,
,,2,11,${e://Field/PROLIFIC_PID,M,21,2023-11-02_08h18.00.310,MouseEye_CC,2023.2.2,Win32,60.7681089,1.273801398,,,1366,768,50.785000000000004,4,"425.17, 424.43, 35.16, 22.46, 427.26, 429.17, 442.3",684.16,8.864554724,35.4582189,27.83653633,Passed,118.7850333,,,,,,,,,,,,,,,,,,,,training,2,5,180,right,s,,,,,570.0335,570.3815,35.66643914,2,7,1,0,0,0.3476,fixationPoint,570.3817,570.4826,570.4846,578.7822,35.66643914,10190.41118,613.9722738,s,1,8.2819,,578.7824,578.9817,,,,,,,,73,-120,-117,125,32,80,119,213,26,-172,16,-68,74,-72,215,65,-80,71,-22,75,-176,-173,-66,-119,-172,180,90,180,180,180,270,360,90,360,90,180,,,,,,,,,,,578.9818,578.9823,,0,20,20,20,1,10,novel,,,,,,,,,,,,,,,,,,,,,,,,,,,,,,,,,,,,,,,,,,,,,,,,,
,,2,11,${e://Field/PROLIFIC_PID,M,21,2023-11-02_08h18.00.310,MouseEye_CC,2023.2.2,Win32,60.7681089,1.273801398,,,1366,768,50.785000000000004,4,"425.17, 424.43, 35.16, 22.46, 427.26, 429.17, 442.3",684.16,8.864554724,35.4582189,27.83653633,Passed,118.7850333,,,,,,,,,,,,,,,,,,,,training,2,6,180,right,s,,,,,578.9838,579.8659,35.66643914,-5,11,1,0,0,0.8817,fixationPoint,579.866,579.9683,579.9683,583.6989,35.66643914,10190.41118,613.9722738,s,1,3.7153,,583.699,583.8988,,,,,,,,71,-214,-115,64,169,126,73,165,171,-72,215,-24,64,-127,220,216,-223,66,-120,24,-65,-72,-215,-173,-66,90,360,90,270,180,180,180,180,360,90,180,,,,,,,,,,,583.8988,583.8992,,0,21,21,21,1,9,novel,,,,,,,,,,,,,,,,,,,,,,,,,,,,,,,,,,,,,,,,,,,,,,,,,
,,2,11,${e://Field/PROLIFIC_PID,M,21,2023-11-02_08h18.00.310,MouseEye_CC,2023.2.2,Win32,60.7681089,1.273801398,,,1366,768,50.785000000000004,4,"425.17, 424.43, 35.16, 22.46, 427.26, 429.17, 442.3",684.16,8.864554724,35.4582189,27.83653633,Passed,118.7850333,,,,,,,,,,,,,,,,,,,,training,2,7,180,right,s,,,,,583.9001,584.0983,35.66643914,-5,11,1,0,0,0.198,fixationPoint,584.0985,584.2,584.2001,587.2193,35.66643914,10190.41118,613.9722738,s,1,3.013,,587.2194,587.4153,,,,,,,,87,75,-176,67,68,32,28,16,210,-209,221,-169,117,-30,210,-119,-172,-73,-112,-72,-215,18,-176,219,-72,90,360,180,180,180,90,180,270,90,90,180,,,,,,,,,,,587.4154,587.4158,,0,22,22,22,1,7,repeated,,,,,,,,,,,,,,,,,,,,,,,,,,,,,,,,,,,,,,,,,,,,,,,,,
,,2,11,${e://Field/PROLIFIC_PID,M,21,2023-11-02_08h18.00.310,MouseEye_CC,2023.2.2,Win32,60.7681089,1.273801398,,,1366,768,50.785000000000004,4,"425.17, 424.43, 35.16, 22.46, 427.26, 429.17, 442.3",684.16,8.864554724,35.4582189,27.83653633,Passed,118.7850333,,,,,,,,,,,,,,,,,,,,training,2,8,0,left,a,,,,,587.4168,587.5525,35.66643914,-5,11,1,0,0,0.1354,fixationPoint,587.5526,587.6483,587.6485,589.2326,35.66643914,10190.41118,613.9722738,a,1,1.5756,,589.2328,589.4318,,,,,,,,30,220,122,-215,72,-208,125,-72,215,-119,-172,-219,-75,-73,-112,24,-65,168,-76,208,-118,166,115,218,161,180,90,90,90,90,90,360,90,90,360,270,,,,,,,,,,,589.432,589.4327,,0,23,23,23,1,1,repeated,,,,,,,,,,,,,,,,,,,,,,,,,,,,,,,,,,,,,,,,,,,,,,,,,
,,2,11,${e://Field/PROLIFIC_PID,M,21,2023-11-02_08h18.00.310,MouseEye_CC,2023.2.2,Win32,60.7681089,1.273801398,,,1366,768,50.785000000000004,4,"425.17, 424.43, 35.16, 22.46, 427.26, 429.17, 442.3",684.16,8.864554724,35.4582189,27.83653633,Passed,118.7850333,,,,,,,,,,,,,,,,,,,,training,2,9,0,left,a,,,,,589.4337,589.6326,35.66643914,-5,11,1,0,0,0.1985,fixationPoint,589.6327,589.7319,589.732,592.0487,35.66643914,10190.41118,613.9722738,a,1,2.3058,,592.0492,592.2489,,,,,,,,8,124,213,-164,165,-215,72,-214,166,-26,-76,-173,-66,-214,-115,71,-22,75,-176,163,-30,16,210,75,217,90,270,270,90,360,270,180,90,270,360,180,,,,,,,,,,,592.2491,592.2495,,0,24,24,24,1,13,novel,,,,,,,,,,,,,,,,,,,,,,,,,,,,,,,,,,,,,,,,,,,,,,,,,
,,2,11,${e://Field/PROLIFIC_PID,M,21,2023-11-02_08h18.00.310,MouseEye_CC,2023.2.2,Win32,60.7681089,1.273801398,,,1366,768,50.785000000000004,4,"425.17, 424.43, 35.16, 22.46, 427.26, 429.17, 442.3",684.16,8.864554724,35.4582189,27.83653633,Passed,118.7850333,,,,,,,,,,,,,,,,,,,,training,2,10,0,left,a,,,,,592.2507,592.3824,35.66643914,-5,11,1,0,0,0.1312,fixationPoint,592.3826,592.4826,592.4828,593.6488,35.66643914,10190.41118,613.9722738,a,1,1.1491,,593.6491,593.8486,,,,,,,,13,-114,176,164,30,125,32,169,68,-116,-68,-219,-75,-72,-29,32,-28,211,-165,116,-128,-169,117,-128,28,180,90,270,180,270,360,360,180,360,270,270,,,,,,,,,,,593.8487,593.849,,0,25,25,25,1,3,repeated,,,,,,,,,,,,,,,,,,,,,,,,,,,,,,,,,,,,,,,,,,,,,,,,,
,,2,11,${e://Field/PROLIFIC_PID,M,21,2023-11-02_08h18.00.310,MouseEye_CC,2023.2.2,Win32,60.7681089,1.273801398,,,1366,768,50.785000000000004,4,"425.17, 424.43, 35.16, 22.46, 427.26, 429.17, 442.3",684.16,8.864554724,35.4582189,27.83653633,Passed,118.7850333,,,,,,,,,,,,,,,,,,,,training,2,11,0,left,a,,,,,593.8511,594.2161,35.66643914,-5,11,1,0,0,0.3644,fixationPoint,594.2163,594.3151,594.3153,596.6332,35.66643914,10190.41118,613.9722738,a,1,2.309,,596.6333,596.8327,,,,,,,,72,-169,-126,222,223,165,171,28,68,-128,28,-72,215,-114,176,219,-72,27,-216,68,-211,-172,-25,-209,-208,360,90,360,180,270,360,270,90,180,270,360,,,,,,,,,,,596.8332,596.8336,,0,26,26,26,1,6,repeated,,,,,,,,,,,,,,,,,,,,,,,,,,,,,,,,,,,,,,,,,,,,,,,,,
,,2,11,${e://Field/PROLIFIC_PID,M,21,2023-11-02_08h18.00.310,MouseEye_CC,2023.2.2,Win32,60.7681089,1.273801398,,,1366,768,50.785000000000004,4,"425.17, 424.43, 35.16, 22.46, 427.26, 429.17, 442.3",684.16,8.864554724,35.4582189,27.83653633,Passed,118.7850333,,,,,,,,,,,,,,,,,,,,training,2,12,0,left,a,,,,,596.8349,596.8493,35.66643914,-5,11,1,0,0,0.014,fixationPoint,596.8493,596.9485,596.9486,600.1324,35.66643914,10190.41118,613.9722738,a,1,3.1685,,600.1326,600.3319,,,,,,,,70,219,-72,220,122,125,32,125,164,-209,221,-169,117,-80,174,-19,-128,-219,-75,-170,-212,24,-65,29,-114,180,360,180,90,360,180,360,360,270,270,90,,,,,,,,,,,600.332,600.3324,,0,27,27,27,1,8,repeated,,,,,,,,,,,,,,,,,,,,,,,,,,,,,,,,,,,,,,,,,,,,,,,,,
,,2,11,${e://Field/PROLIFIC_PID,M,21,2023-11-02_08h18.00.310,MouseEye_CC,2023.2.2,Win32,60.7681089,1.273801398,,,1366,768,50.785000000000004,4,"425.17, 424.43, 35.16, 22.46, 427.26, 429.17, 442.3",684.16,8.864554724,35.4582189,27.83653633,Passed,118.7850333,,,,,,,,,,,,,,,,,,,,training,2,13,180,right,s,,,,,600.3335,606.7814,35.66643914,-5,11,1,0,0,6.4474,fixationPoint,606.7817,606.8829,606.8833,609.8312,35.66643914,10190.41118,613.9722738,s,1,2.9325,,609.8314,610.0317,,,,,,,,88,122,-168,222,223,169,68,121,112,-214,166,-164,165,-127,72,-172,-25,-120,-117,-26,-218,68,-211,71,-22,360,360,360,360,90,360,90,360,360,360,360,,,,,,,,,,,610.0319,610.0323,,0,28,28,28,1,11,novel,,,,,,,,,,,,,,,,,,,,,,,,,,,,,,,,,,,,,,,,,,,,,,,,,
,,2,11,${e://Field/PROLIFIC_PID,M,21,2023-11-02_08h18.00.310,MouseEye_CC,2023.2.2,Win32,60.7681089,1.273801398,,,1366,768,50.785000000000004,4,"425.17, 424.43, 35.16, 22.46, 427.26, 429.17, 442.3",684.16,8.864554724,35.4582189,27.83653633,Passed,118.7850333,,,,,,,,,,,,,,,,,,,,training,2,14,0,left,a,,,,,610.0352,610.4656,35.66643914,-5,11,1,0,0,0.4302,fixationPoint,610.4658,610.566,610.5661,615.1181,35.66643914,10190.41118,613.9722738,a,1,4.5437,,615.1183,615.3151,,,,,,,,93,-126,-209,24,113,125,164,169,68,-70,22,-172,16,-72,215,66,-120,160,-126,27,-216,-120,-117,-170,-212,180,270,270,90,90,360,90,360,270,360,270,,,,,,,,,,,615.3152,615.3157,,0,29,29,29,1,5,repeated,,,,,,,,,,,,,,,,,,,,,,,,,,,,,,,,,,,,,,,,,,,,,,,,,
,,2,11,${e://Field/PROLIFIC_PID,M,21,2023-11-02_08h18.00.310,MouseEye_CC,2023.2.2,Win32,60.7681089,1.273801398,,,1366,768,50.785000000000004,4,"425.17, 424.43, 35.16, 22.46, 427.26, 429.17, 442.3",684.16,8.864554724,35.4582189,27.83653633,Passed,118.7850333,,,,,,,,,,,,,,,,,,,,training,2,15,180,right,s,,,,,615.3167,615.6491,35.66643914,-5,11,1,0,0,0.332,fixationPoint,615.6492,615.7485,615.7486,619.3154,35.66643914,10190.41118,613.9722738,s,1,3.5508,,619.3155,619.5154,,,,,,,,29,166,115,-127,72,-114,176,-219,20,-72,-215,-173,-66,-220,-168,116,-128,65,-80,71,-22,213,26,121,112,180,180,270,90,360,90,270,90,360,180,360,,,,,,,,,,,619.5155,619.5158,,0,30,30,30,1,14,novel,,,,,,,,,,,,,,,,,,,,,,,,,,,,,,,,,,,,,,,,,,,,,,,,,
,,2,11,${e://Field/PROLIFIC_PID,M,21,2023-11-02_08h18.00.310,MouseEye_CC,2023.2.2,Win32,60.7681089,1.273801398,,,1366,768,50.785000000000004,4,"425.17, 424.43, 35.16, 22.46, 427.26, 429.17, 442.3",684.16,8.864554724,35.4582189,27.83653633,Passed,118.7850333,,,,,,,,,,,,,,,,,,,,training,2,16,180,right,s,,,,,619.517,619.6328,35.66643914,-5,11,1,0,0,0.1155,fixationPoint,619.6329,619.7318,619.732,622.0002,35.66643914,10190.41118,613.9722738,s,1,2.2608,,622.0004,622.1984,,,,,,,,25,-17,112,165,171,16,210,220,122,-73,-112,-170,-212,-120,-117,219,-72,118,-31,165,-212,-18,32,-209,221,180,270,360,90,90,180,180,180,90,270,180,,,,,,,,,,,622.1985,628.1326,space,0,31,31,31,1,4,repeated,5.8989,,,,,,,,,,,,,,,,,,,,,,,,,,,,,,,,,,,,,,,,,,,,,,,,
,,2,11,${e://Field/PROLIFIC_PID,M,21,2023-11-02_08h18.00.310,MouseEye_CC,2023.2.2,Win32,60.7681089,1.273801398,,,1366,768,50.785000000000004,4,"425.17, 424.43, 35.16, 22.46, 427.26, 429.17, 442.3",684.16,8.864554724,35.4582189,27.83653633,Passed,118.7850333,,,,,,,,,,,,,,,,,,,,training,3,1,180,right,s,,,,,628.149,629.3158,35.66643914,3,6,1,0,0,1.1665,fixationPoint,629.3159,629.4153,629.4155,631.5655,35.66643914,10190.41118,613.9722738,s,1,2.1352,,631.5657,631.7652,,,,,,,,25,-17,112,165,171,16,210,220,122,-73,-112,-170,-212,-120,-117,219,-72,118,-31,165,-212,-18,32,-209,221,90,360,90,360,90,90,270,360,360,180,360,,,,,,,,,,,631.7653,631.7681,,0,32,32,32,1,4,repeated,,,,,,,,,,,,,,,,,,,,,,,,,,,,,,,,,,,,,,,,,,,,,,,,,
,,2,11,${e://Field/PROLIFIC_PID,M,21,2023-11-02_08h18.00.310,MouseEye_CC,2023.2.2,Win32,60.7681089,1.273801398,,,1366,768,50.785000000000004,4,"425.17, 424.43, 35.16, 22.46, 427.26, 429.17, 442.3",684.16,8.864554724,35.4582189,27.83653633,Passed,118.7850333,,,,,,,,,,,,,,,,,,,,training,3,2,0,left,a,,,,,631.7689,631.9155,35.66643914,3,6,1,0,0,0.1462,fixationPoint,631.9156,632.0152,632.0154,635.2988,35.66643914,10190.41118,613.9722738,a,1,3.2673,,635.299,635.4987,,,,,,,,73,-120,-117,165,171,16,210,125,32,-127,72,-114,176,-24,64,160,-126,29,-114,27,-216,-221,-24,-172,-25,270,270,90,270,180,90,180,180,360,360,270,,,,,,,,,,,635.4988,635.4993,,0,33,33,33,1,10,novel,,,,,,,,,,,,,,,,,,,,,,,,,,,,,,,,,,,,,,,,,,,,,,,,,
,,2,11,${e://Field/PROLIFIC_PID,M,21,2023-11-02_08h18.00.310,MouseEye_CC,2023.2.2,Win32,60.7681089,1.273801398,,,1366,768,50.785000000000004,4,"425.17, 424.43, 35.16, 22.46, 427.26, 429.17, 442.3",684.16,8.864554724,35.4582189,27.83653633,Passed,118.7850333,,,,,,,,,,,,,,,,,,,,training,3,3,180,right,s,,,,,635.4999,635.5489,35.66643914,3,6,1,0,0,0.0487,fixationPoint,635.549,635.6483,635.6484,637.5837,35.66643914,10190.41118,613.9722738,s,1,1.9282,,637.5838,637.7817,,,,,,,,76,29,-114,213,26,124,213,24,113,-172,16,-164,165,-114,120,-65,-68,-126,-25,-126,-209,211,-165,27,-216,90,270,180,360,360,180,90,90,270,360,180,,,,,,,,,,,637.7818,637.7824,,0,34,34,34,1,12,novel,,,,,,,,,,,,,,,,,,,,,,,,,,,,,,,,,,,,,,,,,,,,,,,,,
,,2,11,${e://Field/PROLIFIC_PID,M,21,2023-11-02_08h18.00.310,MouseEye_CC,2023.2.2,Win32,60.7681089,1.273801398,,,1366,768,50.785000000000004,4,"425.17, 424.43, 35.16, 22.46, 427.26, 429.17, 442.3",684.16,8.864554724,35.4582189,27.83653633,Passed,118.7850333,,,,,,,,,,,,,,,,,,,,training,3,4,0,left,a,,,,,637.7839,638.2818,35.66643914,3,6,1,0,0,0.4977,fixationPoint,638.2819,638.3816,638.3818,644.8506,35.66643914,10190.41118,613.9722738,a,1,6.4599,,644.8507,645.0486,,,,,,,,71,-214,-115,220,122,16,210,28,68,-18,32,-72,215,-127,220,18,-176,27,-216,66,-120,-26,-76,-220,-168,270,180,90,90,360,90,180,90,90,90,180,,,,,,,,,,,645.0486,645.0491,,0,35,35,35,1,9,novel,,,,,,,,,,,,,,,,,,,,,,,,,,,,,,,,,,,,,,,,,,,,,,,,,
,,2,11,${e://Field/PROLIFIC_PID,M,21,2023-11-02_08h18.00.310,MouseEye_CC,2023.2.2,Win32,60.7681089,1.273801398,,,1366,768,50.785000000000004,4,"425.17, 424.43, 35.16, 22.46, 427.26, 429.17, 442.3",684.16,8.864554724,35.4582189,27.83653633,Passed,118.7850333,,,,,,,,,,,,,,,,,,,,training,3,5,0,left,a,,,,,645.0501,645.249,35.66643914,3,6,1,0,0,0.1986,fixationPoint,645.249,645.3487,645.3488,646.6172,35.66643914,10190.41118,613.9722738,a,1,1.2601,,646.6175,646.8152,,,,,,,,31,-215,72,125,32,121,112,220,122,-176,-175,-209,-208,-25,-27,32,-28,27,-216,208,-118,-17,112,-163,214,90,360,360,180,180,270,180,90,180,180,360,,,,,,,,,,,646.8153,646.8156,,0,36,36,36,1,16,novel,,,,,,,,,,,,,,,,,,,,,,,,,,,,,,,,,,,,,,,,,,,,,,,,,
,,2,11,${e://Field/PROLIFIC_PID,M,21,2023-11-02_08h18.00.310,MouseEye_CC,2023.2.2,Win32,60.7681089,1.273801398,,,1366,768,50.785000000000004,4,"425.17, 424.43, 35.16, 22.46, 427.26, 429.17, 442.3",684.16,8.864554724,35.4582189,27.83653633,Passed,118.7850333,,,,,,,,,,,,,,,,,,,,training,3,6,180,right,s,,,,,646.8166,646.9359,35.66643914,3,6,1,0,0,0.119,fixationPoint,646.936,647.0318,647.0319,649.3841,35.66643914,10190.41118,613.9722738,s,1,2.3447,,649.3843,649.582,,,,,,,,93,-126,-209,24,113,125,164,169,68,-70,22,-172,16,-72,215,66,-120,160,-126,27,-216,-120,-117,-170,-212,180,90,360,180,270,360,180,180,90,360,90,,,,,,,,,,,649.5822,649.5825,,0,37,37,37,1,5,repeated,,,,,,,,,,,,,,,,,,,,,,,,,,,,,,,,,,,,,,,,,,,,,,,,,
,,2,11,${e://Field/PROLIFIC_PID,M,21,2023-11-02_08h18.00.310,MouseEye_CC,2023.2.2,Win32,60.7681089,1.273801398,,,1366,768,50.785000000000004,4,"425.17, 424.43, 35.16, 22.46, 427.26, 429.17, 442.3",684.16,8.864554724,35.4582189,27.83653633,Passed,118.7850333,,,,,,,,,,,,,,,,,,,,training,3,7,180,right,s,,,,,649.5832,649.6167,35.66643914,3,6,1,0,0,0.0331,fixationPoint,649.6169,649.7154,649.7155,651.4332,35.66643914,10190.41118,613.9722738,s,1,1.7081,,651.4332,651.6317,,,,,,,,8,124,213,-24,64,-169,117,-163,214,-209,-208,-169,-126,-116,-68,122,-168,118,-31,71,-22,169,68,80,119,180,180,270,270,270,270,360,360,360,270,90,,,,,,,,,,,651.6318,651.6323,,0,38,38,38,1,13,novel,,,,,,,,,,,,,,,,,,,,,,,,,,,,,,,,,,,,,,,,,,,,,,,,,
,,2,11,${e://Field/PROLIFIC_PID,M,21,2023-11-02_08h18.00.310,MouseEye_CC,2023.2.2,Win32,60.7681089,1.273801398,,,1366,768,50.785000000000004,4,"425.17, 424.43, 35.16, 22.46, 427.26, 429.17, 442.3",684.16,8.864554724,35.4582189,27.83653633,Passed,118.7850333,,,,,,,,,,,,,,,,,,,,training,3,8,180,right,s,,,,,651.6335,651.7054,35.66643914,3,6,1,0,0,0.0717,fixationPoint,651.7055,651.7986,651.7987,654.8654,35.66643914,10190.41118,613.9722738,s,1,3.0496,,654.8656,655.0653,,,,,,,,70,219,-72,220,122,125,32,125,164,-209,221,-169,117,-80,174,-19,-128,-219,-75,-170,-212,24,-65,29,-114,270,180,360,360,360,180,360,270,180,360,90,,,,,,,,,,,655.0654,655.0657,,0,39,39,39,1,8,repeated,,,,,,,,,,,,,,,,,,,,,,,,,,,,,,,,,,,,,,,,,,,,,,,,,
,,2,11,${e://Field/PROLIFIC_PID,M,21,2023-11-02_08h18.00.310,MouseEye_CC,2023.2.2,Win32,60.7681089,1.273801398,,,1366,768,50.785000000000004,4,"425.17, 424.43, 35.16, 22.46, 427.26, 429.17, 442.3",684.16,8.864554724,35.4582189,27.83653633,Passed,118.7850333,,,,,,,,,,,,,,,,,,,,training,3,9,180,right,s,,,,,655.0665,655.1033,35.66643914,3,6,1,0,0,0.0365,fixationPoint,655.1034,655.1986,655.1988,656.3487,35.66643914,10190.41118,613.9722738,s,1,1.1339,,656.3489,656.5486,,,,,,,,30,220,122,-215,72,-208,125,-72,215,-119,-172,-219,-75,-73,-112,24,-65,168,-76,208,-118,166,115,218,161,270,270,180,90,270,180,90,360,90,180,90,,,,,,,,,,,656.5488,656.549,,0,40,40,40,1,1,repeated,,,,,,,,,,,,,,,,,,,,,,,,,,,,,,,,,,,,,,,,,,,,,,,,,
,,2,11,${e://Field/PROLIFIC_PID,M,21,2023-11-02_08h18.00.310,MouseEye_CC,2023.2.2,Win32,60.7681089,1.273801398,,,1366,768,50.785000000000004,4,"425.17, 424.43, 35.16, 22.46, 427.26, 429.17, 442.3",684.16,8.864554724,35.4582189,27.83653633,Passed,118.7850333,,,,,,,,,,,,,,,,,,,,training,3,10,0,left,a,,,,,656.5513,656.5842,35.66643914,3,6,1,0,0,0.0326,fixationPoint,656.5843,656.6819,656.6821,659.3983,35.66643914,10190.41118,613.9722738,a,1,2.7018,,659.3985,659.5988,,,,,,,,28,121,112,-215,72,-128,28,-214,166,-68,-170,-26,-218,-120,-117,66,-120,29,-114,116,-77,164,223,218,161,90,180,270,360,90,270,90,90,270,90,90,,,,,,,,,,,659.5989,659.6007,,0,41,41,41,1,2,repeated,,,,,,,,,,,,,,,,,,,,,,,,,,,,,,,,,,,,,,,,,,,,,,,,,
,,2,11,${e://Field/PROLIFIC_PID,M,21,2023-11-02_08h18.00.310,MouseEye_CC,2023.2.2,Win32,60.7681089,1.273801398,,,1366,768,50.785000000000004,4,"425.17, 424.43, 35.16, 22.46, 427.26, 429.17, 442.3",684.16,8.864554724,35.4582189,27.83653633,Passed,118.7850333,,,,,,,,,,,,,,,,,,,,training,3,11,0,left,a,,,,,659.602,659.6161,35.66643914,3,6,1,0,0,0.0137,fixationPoint,659.6162,659.7151,659.7152,661.4819,35.66643914,10190.41118,613.9722738,a,1,1.749,,661.482,661.682,,,,,,,,29,166,115,-64,123,-208,125,-163,214,-26,-76,-68,-170,-72,-215,18,-176,71,-22,209,-24,80,119,32,28,180,180,360,270,270,90,180,270,90,180,360,,,,,,,,,,,661.6822,661.6826,,0,42,42,42,1,14,novel,,,,,,,,,,,,,,,,,,,,,,,,,,,,,,,,,,,,,,,,,,,,,,,,,
,,2,11,${e://Field/PROLIFIC_PID,M,21,2023-11-02_08h18.00.310,MouseEye_CC,2023.2.2,Win32,60.7681089,1.273801398,,,1366,768,50.785000000000004,4,"425.17, 424.43, 35.16, 22.46, 427.26, 429.17, 442.3",684.16,8.864554724,35.4582189,27.83653633,Passed,118.7850333,,,,,,,,,,,,,,,,,,,,training,3,12,180,right,s,,,,,661.6836,661.8522,35.66643914,3,6,1,0,0,0.1684,fixationPoint,661.8523,661.9484,661.9485,663.2479,35.66643914,10190.41118,613.9722738,s,1,1.2822,,663.2481,663.4485,,,,,,,,14,-80,174,213,26,165,171,164,30,-23,-162,-173,-66,-219,-75,165,-212,216,-223,75,-176,-208,125,-127,220,270,270,90,360,360,180,360,360,90,90,360,,,,,,,,,,,663.4486,663.4489,,0,43,43,43,1,15,novel,,,,,,,,,,,,,,,,,,,,,,,,,,,,,,,,,,,,,,,,,,,,,,,,,
,,2,11,${e://Field/PROLIFIC_PID,M,21,2023-11-02_08h18.00.310,MouseEye_CC,2023.2.2,Win32,60.7681089,1.273801398,,,1366,768,50.785000000000004,4,"425.17, 424.43, 35.16, 22.46, 427.26, 429.17, 442.3",684.16,8.864554724,35.4582189,27.83653633,Passed,118.7850333,,,,,,,,,,,,,,,,,,,,training,3,13,180,right,s,,,,,663.45,663.5325,35.66643914,3,6,1,0,0,0.0821,fixationPoint,663.5326,663.6324,663.6326,666.4173,35.66643914,10190.41118,613.9722738,s,1,2.776,,666.4175,666.6148,,,,,,,,88,122,-168,67,68,220,122,169,68,-80,174,-208,125,-172,16,-221,-24,-120,-117,-169,-126,209,-24,208,-118,360,360,360,90,180,270,90,270,360,180,360,,,,,,,,,,,666.615,666.6155,,0,44,44,44,1,11,novel,,,,,,,,,,,,,,,,,,,,,,,,,,,,,,,,,,,,,,,,,,,,,,,,,
,,2,11,${e://Field/PROLIFIC_PID,M,21,2023-11-02_08h18.00.310,MouseEye_CC,2023.2.2,Win32,60.7681089,1.273801398,,,1366,768,50.785000000000004,4,"425.17, 424.43, 35.16, 22.46, 427.26, 429.17, 442.3",684.16,8.864554724,35.4582189,27.83653633,Passed,118.7850333,,,,,,,,,,,,,,,,,,,,training,3,14,0,left,a,,,,,666.6166,666.6525,35.66643914,3,6,1,0,0,0.0356,fixationPoint,666.6526,666.7484,666.7484,668.8983,35.66643914,10190.41118,613.9722738,a,1,2.138,,668.8985,669.0988,,,,,,,,87,75,-176,67,68,32,28,16,210,-209,221,-169,117,-30,210,-119,-172,-73,-112,-72,-215,18,-176,219,-72,90,270,270,180,180,360,270,360,180,360,90,,,,,,,,,,,669.099,669.0993,,0,45,45,45,1,7,repeated,,,,,,,,,,,,,,,,,,,,,,,,,,,,,,,,,,,,,,,,,,,,,,,,,
,,2,11,${e://Field/PROLIFIC_PID,M,21,2023-11-02_08h18.00.310,MouseEye_CC,2023.2.2,Win32,60.7681089,1.273801398,,,1366,768,50.785000000000004,4,"425.17, 424.43, 35.16, 22.46, 427.26, 429.17, 442.3",684.16,8.864554724,35.4582189,27.83653633,Passed,118.7850333,,,,,,,,,,,,,,,,,,,,training,3,15,0,left,a,,,,,669.1001,669.132,35.66643914,3,6,1,0,0,0.0315,fixationPoint,669.1322,669.232,669.2322,671.6823,35.66643914,10190.41118,613.9722738,a,1,2.4341,,671.6825,671.8814,,,,,,,,13,-114,176,164,30,125,32,169,68,-116,-68,-219,-75,-72,-29,32,-28,211,-165,116,-128,-169,117,-128,28,360,270,270,360,360,270,270,90,360,270,90,,,,,,,,,,,671.8815,671.8821,,0,46,46,46,1,3,repeated,,,,,,,,,,,,,,,,,,,,,,,,,,,,,,,,,,,,,,,,,,,,,,,,,
,,2,11,${e://Field/PROLIFIC_PID,M,21,2023-11-02_08h18.00.310,MouseEye_CC,2023.2.2,Win32,60.7681089,1.273801398,,,1366,768,50.785000000000004,4,"425.17, 424.43, 35.16, 22.46, 427.26, 429.17, 442.3",684.16,8.864554724,35.4582189,27.83653633,Passed,118.7850333,,,,,,,,,,,,,,,,,,,,training,3,16,0,left,a,,,,,671.8831,672.5651,35.66643914,3,6,1,0,0,0.6816,fixationPoint,672.5652,672.6653,672.6655,678.318,35.66643914,10190.41118,613.9722738,a,1,5.6455,,678.3182,678.5155,,,,,,,,72,-169,-126,222,223,165,171,28,68,-128,28,-72,215,-114,176,219,-72,27,-216,68,-211,-172,-25,-209,-208,90,90,90,180,360,360,270,90,360,270,180,,,,,,,,,,,678.5157,681.6992,space,0,47,47,47,1,6,repeated,3.1578,,,,,,,,,,,,,,,,,,,,,,,,,,,,,,,,,,,,,,,,,,,,,,,,
,,2,11,${e://Field/PROLIFIC_PID,M,21,2023-11-02_08h18.00.310,MouseEye_CC,2023.2.2,Win32,60.7681089,1.273801398,,,1366,768,50.785000000000004,4,"425.17, 424.43, 35.16, 22.46, 427.26, 429.17, 442.3",684.16,8.864554724,35.4582189,27.83653633,Passed,118.7850333,,,,,,,,,,,,,,,,,,,,training,4,1,0,left,a,,,,,681.7164,684.0835,35.66643914,3,6,1,0,0,2.3667,fixationPoint,684.0835,684.182,684.1822,686.9989,35.66643914,10190.41118,613.9722738,a,1,2.802,,686.9991,687.1999,,,,,,,,31,-215,72,121,112,220,122,164,30,-126,-25,-176,-175,-170,-212,208,-118,18,-176,160,-126,-128,28,-72,215,90,90,90,180,270,360,90,180,360,180,360,,,,,,,,,,,687.2,687.2027,,0,48,48,48,1,16,novel,,,,,,,,,,,,,,,,,,,,,,,,,,,,,,,,,,,,,,,,,,,,,,,,,
,,2,11,${e://Field/PROLIFIC_PID,M,21,2023-11-02_08h18.00.310,MouseEye_CC,2023.2.2,Win32,60.7681089,1.273801398,,,1366,768,50.785000000000004,4,"425.17, 424.43, 35.16, 22.46, 427.26, 429.17, 442.3",684.16,8.864554724,35.4582189,27.83653633,Passed,118.7850333,,,,,,,,,,,,,,,,,,,,training,4,2,0,left,a,,,,,687.2034,687.2186,35.66643914,3,6,1,0,0,0.0122,fixationPoint,687.2186,687.3157,687.3158,688.7655,35.66643914,10190.41118,613.9722738,a,1,1.4351,,688.7657,688.9642,,,,,,,,30,220,122,-215,72,-208,125,-72,215,-119,-172,-219,-75,-73,-112,24,-65,168,-76,208,-118,166,115,218,161,270,270,180,90,180,180,180,90,180,180,360,,,,,,,,,,,688.9648,688.9658,,0,49,49,49,1,1,repeated,,,,,,,,,,,,,,,,,,,,,,,,,,,,,,,,,,,,,,,,,,,,,,,,,
,,2,11,${e://Field/PROLIFIC_PID,M,21,2023-11-02_08h18.00.310,MouseEye_CC,2023.2.2,Win32,60.7681089,1.273801398,,,1366,768,50.785000000000004,4,"425.17, 424.43, 35.16, 22.46, 427.26, 429.17, 442.3",684.16,8.864554724,35.4582189,27.83653633,Passed,118.7850333,,,,,,,,,,,,,,,,,,,,training,4,3,180,right,s,,,,,688.9665,689.0324,35.66643914,3,6,1,0,0,0.0654,fixationPoint,689.0325,689.132,689.1321,691.3686,35.66643914,10190.41118,613.9722738,s,1,2.2295,,691.3687,691.5653,,,,,,,,93,-126,-209,24,113,125,164,169,68,-70,22,-172,16,-72,215,66,-120,160,-126,27,-216,-120,-117,-170,-212,360,90,360,90,270,90,90,180,270,360,270,,,,,,,,,,,691.5654,691.5658,,0,50,50,50,1,5,repeated,,,,,,,,,,,,,,,,,,,,,,,,,,,,,,,,,,,,,,,,,,,,,,,,,
,,2,11,${e://Field/PROLIFIC_PID,M,21,2023-11-02_08h18.00.310,MouseEye_CC,2023.2.2,Win32,60.7681089,1.273801398,,,1366,768,50.785000000000004,4,"425.17, 424.43, 35.16, 22.46, 427.26, 429.17, 442.3",684.16,8.864554724,35.4582189,27.83653633,Passed,118.7850333,,,,,,,,,,,,,,,,,,,,training,4,4,0,left,a,,,,,691.5669,692.2162,35.66643914,3,6,1,0,0,0.6488,fixationPoint,692.2163,692.3152,692.3154,696.0153,35.66643914,10190.41118,613.9722738,a,1,3.6842,,696.0154,696.2159,,,,,,,,28,121,112,-215,72,-128,28,-214,166,-68,-170,-26,-218,-120,-117,66,-120,29,-114,116,-77,164,223,218,161,360,180,90,360,270,270,270,270,90,180,90,,,,,,,,,,,696.216,696.2166,,0,51,51,51,1,2,repeated,,,,,,,,,,,,,,,,,,,,,,,,,,,,,,,,,,,,,,,,,,,,,,,,,
,,2,11,${e://Field/PROLIFIC_PID,M,21,2023-11-02_08h18.00.310,MouseEye_CC,2023.2.2,Win32,60.7681089,1.273801398,,,1366,768,50.785000000000004,4,"425.17, 424.43, 35.16, 22.46, 427.26, 429.17, 442.3",684.16,8.864554724,35.4582189,27.83653633,Passed,118.7850333,,,,,,,,,,,,,,,,,,,,training,4,5,180,right,s,,,,,696.2173,696.2502,35.66643914,3,6,1,0,0,0.0326,fixationPoint,696.2502,696.3486,696.3487,697.6326,35.66643914,10190.41118,613.9722738,s,1,1.2751,,697.6327,697.8318,,,,,,,,8,124,213,-21,173,-114,120,-72,215,-73,-112,-173,-66,-169,-126,112,-212,216,-223,71,-22,126,73,75,217,90,360,270,360,270,90,270,360,180,270,90,,,,,,,,,,,697.8319,697.8323,,0,52,52,52,1,13,novel,,,,,,,,,,,,,,,,,,,,,,,,,,,,,,,,,,,,,,,,,,,,,,,,,
,,2,11,${e://Field/PROLIFIC_PID,M,21,2023-11-02_08h18.00.310,MouseEye_CC,2023.2.2,Win32,60.7681089,1.273801398,,,1366,768,50.785000000000004,4,"425.17, 424.43, 35.16, 22.46, 427.26, 429.17, 442.3",684.16,8.864554724,35.4582189,27.83653633,Passed,118.7850333,,,,,,,,,,,,,,,,,,,,training,4,6,180,right,s,,,,,697.8335,698.3855,35.66643914,3,6,1,0,0,0.5517,fixationPoint,698.3857,698.4818,698.4818,702.7322,35.66643914,10190.41118,613.9722738,s,1,4.2376,,702.7323,702.9319,,,,,,,,25,-17,112,165,171,16,210,220,122,-73,-112,-170,-212,-120,-117,219,-72,118,-31,165,-212,-18,32,-209,221,90,360,270,180,90,180,270,360,270,270,270,,,,,,,,,,,702.932,702.9323,,0,53,53,53,1,4,repeated,,,,,,,,,,,,,,,,,,,,,,,,,,,,,,,,,,,,,,,,,,,,,,,,,
,,2,11,${e://Field/PROLIFIC_PID,M,21,2023-11-02_08h18.00.310,MouseEye_CC,2023.2.2,Win32,60.7681089,1.273801398,,,1366,768,50.785000000000004,4,"425.17, 424.43, 35.16, 22.46, 427.26, 429.17, 442.3",684.16,8.864554724,35.4582189,27.83653633,Passed,118.7850333,,,,,,,,,,,,,,,,,,,,training,4,7,0,left,a,,,,,702.9334,703.4327,35.66643914,3,6,1,0,0,0.4989,fixationPoint,703.4329,703.5341,703.5343,706.8819,35.66643914,10190.41118,613.9722738,a,1,3.3356,,706.8821,707.0818,,,,,,,,71,-214,-115,76,28,28,68,16,210,-127,72,-214,166,-128,28,211,-165,168,-76,18,-176,-25,-27,-126,-209,270,180,360,180,90,270,270,270,270,90,270,,,,,,,,,,,707.0819,707.0823,,0,54,54,54,1,9,novel,,,,,,,,,,,,,,,,,,,,,,,,,,,,,,,,,,,,,,,,,,,,,,,,,
,,2,11,${e://Field/PROLIFIC_PID,M,21,2023-11-02_08h18.00.310,MouseEye_CC,2023.2.2,Win32,60.7681089,1.273801398,,,1366,768,50.785000000000004,4,"425.17, 424.43, 35.16, 22.46, 427.26, 429.17, 442.3",684.16,8.864554724,35.4582189,27.83653633,Passed,118.7850333,,,,,,,,,,,,,,,,,,,,training,4,8,180,right,s,,,,,707.0834,707.5158,35.66643914,3,6,1,0,0,0.4321,fixationPoint,707.5159,707.6155,707.6157,709.4656,35.66643914,10190.41118,613.9722738,s,1,1.8345,,709.4657,709.665,,,,,,,,29,166,115,-163,214,-172,16,-80,174,-219,-75,-126,-209,-172,-25,172,-176,165,-212,219,-72,222,223,165,171,270,90,270,360,90,90,90,90,180,360,270,,,,,,,,,,,709.6652,709.6656,,0,55,55,55,1,14,novel,,,,,,,,,,,,,,,,,,,,,,,,,,,,,,,,,,,,,,,,,,,,,,,,,
,,2,11,${e://Field/PROLIFIC_PID,M,21,2023-11-02_08h18.00.310,MouseEye_CC,2023.2.2,Win32,60.7681089,1.273801398,,,1366,768,50.785000000000004,4,"425.17, 424.43, 35.16, 22.46, 427.26, 429.17, 442.3",684.16,8.864554724,35.4582189,27.83653633,Passed,118.7850333,,,,,,,,,,,,,,,,,,,,training,4,9,0,left,a,,,,,709.6667,709.9841,35.66643914,3,6,1,0,0,0.3171,fixationPoint,709.9843,710.0818,710.0819,712.5155,35.66643914,10190.41118,613.9722738,a,1,2.4187,,712.5157,712.7154,,,,,,,,87,75,-176,67,68,32,28,16,210,-209,221,-169,117,-30,210,-119,-172,-73,-112,-72,-215,18,-176,219,-72,270,180,90,90,90,180,270,360,270,180,360,,,,,,,,,,,712.7156,712.7159,,0,56,56,56,1,7,repeated,,,,,,,,,,,,,,,,,,,,,,,,,,,,,,,,,,,,,,,,,,,,,,,,,
,,2,11,${e://Field/PROLIFIC_PID,M,21,2023-11-02_08h18.00.310,MouseEye_CC,2023.2.2,Win32,60.7681089,1.273801398,,,1366,768,50.785000000000004,4,"425.17, 424.43, 35.16, 22.46, 427.26, 429.17, 442.3",684.16,8.864554724,35.4582189,27.83653633,Passed,118.7850333,,,,,,,,,,,,,,,,,,,,training,4,10,0,left,a,,,,,712.7169,712.8991,35.66643914,3,6,1,0,0,0.1819,fixationPoint,712.8992,712.9984,712.9985,714.5154,35.66643914,10190.41118,613.9722738,a,1,1.5038,,714.5154,714.7164,,,,,,,,14,-80,174,76,28,220,122,64,169,-72,-29,-120,-117,-170,-212,116,-77,71,-22,208,-118,-214,166,-68,74,270,90,180,90,180,90,90,270,360,360,180,,,,,,,,,,,714.7169,714.7173,,0,57,57,57,1,15,novel,,,,,,,,,,,,,,,,,,,,,,,,,,,,,,,,,,,,,,,,,,,,,,,,,
,,2,11,${e://Field/PROLIFIC_PID,M,21,2023-11-02_08h18.00.310,MouseEye_CC,2023.2.2,Win32,60.7681089,1.273801398,,,1366,768,50.785000000000004,4,"425.17, 424.43, 35.16, 22.46, 427.26, 429.17, 442.3",684.16,8.864554724,35.4582189,27.83653633,Passed,118.7850333,,,,,,,,,,,,,,,,,,,,training,4,11,0,left,a,,,,,714.7181,715.135,35.66643914,3,6,1,0,0,0.4167,fixationPoint,715.1351,715.2318,715.2323,716.9355,35.66643914,10190.41118,613.9722738,a,1,1.6942,,716.9356,717.1317,,,,,,,,88,122,-168,222,223,16,210,16,164,-64,123,-164,165,-169,117,-119,-172,-25,-27,-209,-208,163,-30,68,-211,360,270,270,360,360,270,270,270,270,270,180,,,,,,,,,,,717.1317,717.1323,,0,58,58,58,1,11,novel,,,,,,,,,,,,,,,,,,,,,,,,,,,,,,,,,,,,,,,,,,,,,,,,,
,,2,11,${e://Field/PROLIFIC_PID,M,21,2023-11-02_08h18.00.310,MouseEye_CC,2023.2.2,Win32,60.7681089,1.273801398,,,1366,768,50.785000000000004,4,"425.17, 424.43, 35.16, 22.46, 427.26, 429.17, 442.3",684.16,8.864554724,35.4582189,27.83653633,Passed,118.7850333,,,,,,,,,,,,,,,,,,,,training,4,12,180,right,s,,,,,717.1332,717.1685,35.66643914,3,6,1,0,0,0.035,fixationPoint,717.1686,717.2646,717.2647,721.1846,35.66643914,10190.41118,613.9722738,s,1,3.9116,,721.1846,721.3823,,,,,,,,73,-120,-117,165,171,80,119,218,161,-68,74,-21,173,-128,28,71,-22,116,-128,66,-120,-221,-24,-116,-68,270,90,90,180,270,360,360,180,270,90,360,,,,,,,,,,,721.3825,721.3828,,0,59,59,59,1,10,novel,,,,,,,,,,,,,,,,,,,,,,,,,,,,,,,,,,,,,,,,,,,,,,,,,
,,2,11,${e://Field/PROLIFIC_PID,M,21,2023-11-02_08h18.00.310,MouseEye_CC,2023.2.2,Win32,60.7681089,1.273801398,,,1366,768,50.785000000000004,4,"425.17, 424.43, 35.16, 22.46, 427.26, 429.17, 442.3",684.16,8.864554724,35.4582189,27.83653633,Passed,118.7850333,,,,,,,,,,,,,,,,,,,,training,4,13,0,left,a,,,,,721.3836,721.4489,35.66643914,3,6,1,0,0,0.0648,fixationPoint,721.449,721.5483,721.5485,723.1153,35.66643914,10190.41118,613.9722738,a,1,1.554,,723.1155,723.3156,,,,,,,,72,-169,-126,222,223,165,171,28,68,-128,28,-72,215,-114,176,219,-72,27,-216,68,-211,-172,-25,-209,-208,90,270,90,360,90,90,360,270,360,90,180,,,,,,,,,,,723.3157,723.3177,,0,60,60,60,1,6,repeated,,,,,,,,,,,,,,,,,,,,,,,,,,,,,,,,,,,,,,,,,,,,,,,,,
,,2,11,${e://Field/PROLIFIC_PID,M,21,2023-11-02_08h18.00.310,MouseEye_CC,2023.2.2,Win32,60.7681089,1.273801398,,,1366,768,50.785000000000004,4,"425.17, 424.43, 35.16, 22.46, 427.26, 429.17, 442.3",684.16,8.864554724,35.4582189,27.83653633,Passed,118.7850333,,,,,,,,,,,,,,,,,,,,training,4,14,180,right,s,,,,,723.3186,723.4494,35.66643914,3,6,1,0,0,0.1304,fixationPoint,723.4495,723.5496,723.5497,730.9319,35.66643914,10190.41118,613.9722738,a,0,7.3689,,730.9321,734.9298,,,,,,,,76,29,-114,16,164,166,115,126,73,-114,120,-164,165,-128,28,-126,-25,-73,-112,-172,-25,65,-80,66,-120,360,90,180,180,180,180,90,360,270,90,360,,,,,,,,,,,734.9329,734.9499,,0,61,61,61,1,12,novel,,,,,,,,,,,,,,,,,,,,,,,,,,,,,,,,,,,,,,,,,,,,,,,,,
,,2,11,${e://Field/PROLIFIC_PID,M,21,2023-11-02_08h18.00.310,MouseEye_CC,2023.2.2,Win32,60.7681089,1.273801398,,,1366,768,50.785000000000004,4,"425.17, 424.43, 35.16, 22.46, 427.26, 429.17, 442.3",684.16,8.864554724,35.4582189,27.83653633,Passed,118.7850333,,,,,,,,,,,,,,,,,,,,training,4,15,180,right,s,,,,,734.9508,735.3591,35.66643914,-1,-3,1,0,0,0.4079,fixationPoint,735.3592,735.4506,735.4507,736.9369,35.66643914,10190.41118,613.9722738,s,1,1.4689,,736.9374,737.1314,,,,,,,,13,-114,176,164,30,125,32,169,68,-116,-68,-219,-75,-72,-29,32,-28,211,-165,116,-128,-169,117,-128,28,270,180,180,180,270,90,180,270,90,360,90,,,,,,,,,,,737.1318,737.1327,,0,62,62,62,1,3,repeated,,,,,,,,,,,,,,,,,,,,,,,,,,,,,,,,,,,,,,,,,,,,,,,,,
,,2,11,${e://Field/PROLIFIC_PID,M,21,2023-11-02_08h18.00.310,MouseEye_CC,2023.2.2,Win32,60.7681089,1.273801398,,,1366,768,50.785000000000004,4,"425.17, 424.43, 35.16, 22.46, 427.26, 429.17, 442.3",684.16,8.864554724,35.4582189,27.83653633,Passed,118.7850333,,,,,,,,,,,,,,,,,,,,training,4,16,180,right,s,,,,,737.1338,737.1877,35.66643914,-1,-3,1,0,0,0.0535,fixationPoint,737.1879,737.2845,737.2847,739.8356,35.66643914,10190.41118,613.9722738,s,1,2.5345,,739.8359,740.0349,,,,,,,,70,219,-72,220,122,125,32,125,164,-209,221,-169,117,-80,174,-19,-128,-219,-75,-170,-212,24,-65,29,-114,270,90,180,90,270,270,90,90,180,360,180,,,,,,,,,,,740.0352,741.347,space,0,63,63,63,1,8,repeated,1.2765,,,,,,,,,,,,,,,,,,,,,,,,,,,,,,,,,,,,,,,,,,,,,,,,
,,2,11,${e://Field/PROLIFIC_PID,M,21,2023-11-02_08h18.00.310,MouseEye_CC,2023.2.2,Win32,60.7681089,1.273801398,,,1366,768,50.785000000000004,4,"425.17, 424.43, 35.16, 22.46, 427.26, 429.17, 442.3",684.16,8.864554724,35.4582189,27.83653633,Passed,118.7850333,,,,,,,,,,,,,,,,,,,,training,5,1,180,right,s,,,,,741.3494,742.2314,35.66643914,-1,-3,1,0,0,0.8808,fixationPoint,742.2315,742.3313,742.3315,743.8967,35.66643914,10190.41118,613.9722738,s,1,1.5516,,743.897,744.0965,,,,,,,,30,220,122,-215,72,-208,125,-72,215,-119,-172,-219,-75,-73,-112,24,-65,168,-76,208,-118,166,115,218,161,360,360,90,180,270,90,90,90,90,270,90,,,,,,,,,,,744.0968,744.1021,,0,64,64,64,1,1,repeated,,,,,,,,,,,,,,,,,,,,,,,,,,,,,,,,,,,,,,,,,,,,,,,,,
,,2,11,${e://Field/PROLIFIC_PID,M,21,2023-11-02_08h18.00.310,MouseEye_CC,2023.2.2,Win32,60.7681089,1.273801398,,,1366,768,50.785000000000004,4,"425.17, 424.43, 35.16, 22.46, 427.26, 429.17, 442.3",684.16,8.864554724,35.4582189,27.83653633,Passed,118.7850333,,,,,,,,,,,,,,,,,,,,training,5,2,180,right,s,,,,,744.103,744.5973,35.66643914,-1,-3,1,0,0,0.4938,fixationPoint,744.5976,744.6965,744.6966,745.6637,35.66643914,10190.41118,613.9722738,s,1,0.9481,,745.6638,745.8631,,,,,,,,29,166,115,-21,173,-70,22,-68,74,-126,-209,-68,-170,-65,-68,65,-80,216,-223,116,-128,222,223,28,68,90,180,90,270,180,270,180,180,180,360,270,,,,,,,,,,,745.8632,745.864,,0,65,65,65,1,14,novel,,,,,,,,,,,,,,,,,,,,,,,,,,,,,,,,,,,,,,,,,,,,,,,,,
,,2,11,${e://Field/PROLIFIC_PID,M,21,2023-11-02_08h18.00.310,MouseEye_CC,2023.2.2,Win32,60.7681089,1.273801398,,,1366,768,50.785000000000004,4,"425.17, 424.43, 35.16, 22.46, 427.26, 429.17, 442.3",684.16,8.864554724,35.4582189,27.83653633,Passed,118.7850333,,,,,,,,,,,,,,,,,,,,training,5,3,180,right,s,,,,,745.8658,746.0018,35.66643914,-1,-3,1,0,0,0.1355,fixationPoint,746.002,746.0964,746.0966,749.9303,35.66643914,10190.41118,613.9722738,s,1,3.8172,,749.9305,750.1299,,,,,,,,31,-215,72,220,122,213,26,165,171,-65,-68,-72,-215,-176,-175,172,-176,65,-80,209,-24,-30,210,-209,221,180,90,90,180,360,270,180,180,90,360,270,,,,,,,,,,,750.13,750.1305,,0,66,66,66,1,16,novel,,,,,,,,,,,,,,,,,,,,,,,,,,,,,,,,,,,,,,,,,,,,,,,,,
,,2,11,${e://Field/PROLIFIC_PID,M,21,2023-11-02_08h18.00.310,MouseEye_CC,2023.2.2,Win32,60.7681089,1.273801398,,,1366,768,50.785000000000004,4,"425.17, 424.43, 35.16, 22.46, 427.26, 429.17, 442.3",684.16,8.864554724,35.4582189,27.83653633,Passed,118.7850333,,,,,,,,,,,,,,,,,,,,training,5,4,180,right,s,,,,,750.1329,750.2135,35.66643914,-1,-3,1,0,0,0.0803,fixationPoint,750.2139,750.3129,750.3132,752.2305,35.66643914,10190.41118,613.9722738,s,1,1.9004,,752.2308,752.4299,,,,,,,,28,121,112,-215,72,-128,28,-214,166,-68,-170,-26,-218,-120,-117,66,-120,29,-114,116,-77,164,223,218,161,270,90,90,180,90,180,180,90,360,270,270,,,,,,,,,,,752.4301,752.4308,,0,67,67,67,1,2,repeated,,,,,,,,,,,,,,,,,,,,,,,,,,,,,,,,,,,,,,,,,,,,,,,,,
,,2,11,${e://Field/PROLIFIC_PID,M,21,2023-11-02_08h18.00.310,MouseEye_CC,2023.2.2,Win32,60.7681089,1.273801398,,,1366,768,50.785000000000004,4,"425.17, 424.43, 35.16, 22.46, 427.26, 429.17, 442.3",684.16,8.864554724,35.4582189,27.83653633,Passed,118.7850333,,,,,,,,,,,,,,,,,,,,training,5,5,180,right,s,,,,,752.4326,752.4805,35.66643914,-1,-3,1,0,0,0.0473,fixationPoint,752.4807,752.5799,752.5801,753.9971,35.66643914,10190.41118,613.9722738,s,1,1.4009,,753.9974,754.1964,,,,,,,,8,124,213,-64,123,-127,72,-70,22,-176,-175,-170,-212,-172,-25,68,-211,27,-216,65,-80,164,223,28,68,90,180,360,180,180,360,90,180,270,270,360,,,,,,,,,,,754.1966,754.1973,,0,68,68,68,1,13,novel,,,,,,,,,,,,,,,,,,,,,,,,,,,,,,,,,,,,,,,,,,,,,,,,,
,,2,11,${e://Field/PROLIFIC_PID,M,21,2023-11-02_08h18.00.310,MouseEye_CC,2023.2.2,Win32,60.7681089,1.273801398,,,1366,768,50.785000000000004,4,"425.17, 424.43, 35.16, 22.46, 427.26, 429.17, 442.3",684.16,8.864554724,35.4582189,27.83653633,Passed,118.7850333,,,,,,,,,,,,,,,,,,,,training,5,6,0,left,a,,,,,754.1993,754.2471,35.66643914,-1,-3,1,0,0,0.0474,fixationPoint,754.2474,754.3466,754.3468,756.2197,35.66643914,10190.41118,613.9722738,a,1,1.862,,756.2203,756.4139,,,,,,,,25,-17,112,165,171,16,210,220,122,-73,-112,-170,-212,-120,-117,219,-72,118,-31,165,-212,-18,32,-209,221,180,270,180,90,270,180,270,90,90,180,180,,,,,,,,,,,756.4141,756.4145,,0,69,69,69,1,4,repeated,,,,,,,,,,,,,,,,,,,,,,,,,,,,,,,,,,,,,,,,,,,,,,,,,
,,2,11,${e://Field/PROLIFIC_PID,M,21,2023-11-02_08h18.00.310,MouseEye_CC,2023.2.2,Win32,60.7681089,1.273801398,,,1366,768,50.785000000000004,4,"425.17, 424.43, 35.16, 22.46, 427.26, 429.17, 442.3",684.16,8.864554724,35.4582189,27.83653633,Passed,118.7850333,,,,,,,,,,,,,,,,,,,,training,5,7,0,left,a,,,,,756.4168,757.4542,35.66643914,-1,-3,1,0,0,1.0371,fixationPoint,757.4544,757.5516,757.552,758.5404,35.66643914,10190.41118,613.9722738,a,1,0.9709,,758.5405,758.7342,,,,,,,,13,-114,176,164,30,125,32,169,68,-116,-68,-219,-75,-72,-29,32,-28,211,-165,116,-128,-169,117,-128,28,180,180,180,270,270,360,360,360,270,360,180,,,,,,,,,,,758.7344,758.735,,0,70,70,70,1,3,repeated,,,,,,,,,,,,,,,,,,,,,,,,,,,,,,,,,,,,,,,,,,,,,,,,,
,,2,11,${e://Field/PROLIFIC_PID,M,21,2023-11-02_08h18.00.310,MouseEye_CC,2023.2.2,Win32,60.7681089,1.273801398,,,1366,768,50.785000000000004,4,"425.17, 424.43, 35.16, 22.46, 427.26, 429.17, 442.3",684.16,8.864554724,35.4582189,27.83653633,Passed,118.7850333,,,,,,,,,,,,,,,,,,,,training,5,8,0,left,a,,,,,758.7373,758.7539,35.66643914,-1,-3,1,0,0,0.0164,fixationPoint,758.7541,758.8538,758.8539,763.219,35.66643914,10190.41118,613.9722738,a,1,4.3513,,763.2192,763.4176,,,,,,,,88,122,-168,164,30,212,67,121,112,-169,117,-208,125,-114,176,-72,-29,-73,-112,-219,-75,208,-118,112,-212,90,90,270,180,90,90,270,180,360,90,90,,,,,,,,,,,763.4179,763.4187,,0,71,71,71,1,11,novel,,,,,,,,,,,,,,,,,,,,,,,,,,,,,,,,,,,,,,,,,,,,,,,,,
,,2,11,${e://Field/PROLIFIC_PID,M,21,2023-11-02_08h18.00.310,MouseEye_CC,2023.2.2,Win32,60.7681089,1.273801398,,,1366,768,50.785000000000004,4,"425.17, 424.43, 35.16, 22.46, 427.26, 429.17, 442.3",684.16,8.864554724,35.4582189,27.83653633,Passed,118.7850333,,,,,,,,,,,,,,,,,,,,training,5,9,0,left,a,,,,,763.4202,763.6032,35.66643914,-1,-3,1,0,0,0.1828,fixationPoint,763.6034,763.7004,763.7006,765.3695,35.66643914,10190.41118,613.9722738,s,0,1.6515,,765.3697,769.3678,,,,,,,,73,-120,-117,16,164,67,68,28,68,-172,67,-70,22,-208,125,29,-114,160,-126,116,-77,-220,-168,-23,-162,270,90,90,180,90,270,270,180,270,90,360,,,,,,,,,,,769.3679,769.3845,,0,72,72,72,1,10,novel,,,,,,,,,,,,,,,,,,,,,,,,,,,,,,,,,,,,,,,,,,,,,,,,,
,,2,11,${e://Field/PROLIFIC_PID,M,21,2023-11-02_08h18.00.310,MouseEye_CC,2023.2.2,Win32,60.7681089,1.273801398,,,1366,768,50.785000000000004,4,"425.17, 424.43, 35.16, 22.46, 427.26, 429.17, 442.3",684.16,8.864554724,35.4582189,27.83653633,Passed,118.7850333,,,,,,,,,,,,,,,,,,,,training,5,10,180,right,s,,,,,769.3853,769.8234,35.66643914,-1,-3,1,0,0,0.4376,fixationPoint,769.8235,769.9185,769.9186,771.8864,35.66643914,10190.41118,613.9722738,s,1,1.9518,,771.8865,772.0851,,,,,,,,76,29,-114,213,26,76,28,166,115,-164,165,-214,166,-70,22,-214,-115,-25,-27,-72,-215,122,-168,163,-30,180,270,180,180,360,270,180,90,360,270,360,,,,,,,,,,,772.0853,772.086,,0,73,73,73,1,12,novel,,,,,,,,,,,,,,,,,,,,,,,,,,,,,,,,,,,,,,,,,,,,,,,,,
,,2,11,${e://Field/PROLIFIC_PID,M,21,2023-11-02_08h18.00.310,MouseEye_CC,2023.2.2,Win32,60.7681089,1.273801398,,,1366,768,50.785000000000004,4,"425.17, 424.43, 35.16, 22.46, 427.26, 429.17, 442.3",684.16,8.864554724,35.4582189,27.83653633,Passed,118.7850333,,,,,,,,,,,,,,,,,,,,training,5,11,180,right,s,,,,,772.0878,772.2702,35.66643914,-1,-3,1,0,0,0.1821,fixationPoint,772.2703,772.3687,772.3689,774.1357,35.66643914,10190.41118,613.9722738,s,1,1.7515,,774.136,774.3348,,,,,,,,14,-80,174,16,210,67,68,169,68,-209,-208,-214,-115,-220,-168,112,-212,29,-114,116,-128,-172,67,-68,74,360,360,180,180,90,90,360,180,270,360,90,,,,,,,,,,,774.3351,774.3355,,0,74,74,74,1,15,novel,,,,,,,,,,,,,,,,,,,,,,,,,,,,,,,,,,,,,,,,,,,,,,,,,
,,2,11,${e://Field/PROLIFIC_PID,M,21,2023-11-02_08h18.00.310,MouseEye_CC,2023.2.2,Win32,60.7681089,1.273801398,,,1366,768,50.785000000000004,4,"425.17, 424.43, 35.16, 22.46, 427.26, 429.17, 442.3",684.16,8.864554724,35.4582189,27.83653633,Passed,118.7850333,,,,,,,,,,,,,,,,,,,,training,5,12,0,left,a,,,,,774.3371,774.5646,35.66643914,-1,-3,1,0,0,0.2273,fixationPoint,774.5646,774.6637,774.6638,776.9308,35.66643914,10190.41118,613.9722738,a,1,2.243,,776.9319,777.1339,,,,,,,,87,75,-176,67,68,32,28,16,210,-209,221,-169,117,-30,210,-119,-172,-73,-112,-72,-215,18,-176,219,-72,90,270,90,180,360,270,90,180,90,270,360,,,,,,,,,,,777.1341,777.1351,,0,75,75,75,1,7,repeated,,,,,,,,,,,,,,,,,,,,,,,,,,,,,,,,,,,,,,,,,,,,,,,,,
,,2,11,${e://Field/PROLIFIC_PID,M,21,2023-11-02_08h18.00.310,MouseEye_CC,2023.2.2,Win32,60.7681089,1.273801398,,,1366,768,50.785000000000004,4,"425.17, 424.43, 35.16, 22.46, 427.26, 429.17, 442.3",684.16,8.864554724,35.4582189,27.83653633,Passed,118.7850333,,,,,,,,,,,,,,,,,,,,training,5,13,0,left,a,,,,,777.1365,777.3201,35.66643914,-1,-3,1,0,0,0.1829,fixationPoint,777.3202,777.4191,777.4194,778.9193,35.66643914,10190.41118,613.9722738,a,1,1.4839,,778.9195,779.1138,,,,,,,,72,-169,-126,222,223,165,171,28,68,-128,28,-72,215,-114,176,219,-72,27,-216,68,-211,-172,-25,-209,-208,360,90,270,270,180,270,90,270,90,270,180,,,,,,,,,,,779.1142,779.1145,,0,76,76,76,1,6,repeated,,,,,,,,,,,,,,,,,,,,,,,,,,,,,,,,,,,,,,,,,,,,,,,,,
,,2,11,${e://Field/PROLIFIC_PID,M,21,2023-11-02_08h18.00.310,MouseEye_CC,2023.2.2,Win32,60.7681089,1.273801398,,,1366,768,50.785000000000004,4,"425.17, 424.43, 35.16, 22.46, 427.26, 429.17, 442.3",684.16,8.864554724,35.4582189,27.83653633,Passed,118.7850333,,,,,,,,,,,,,,,,,,,,training,5,14,0,left,a,,,,,779.1167,779.2226,35.66643914,-1,-3,1,0,0,0.1056,fixationPoint,779.2227,779.3138,779.3141,781.6362,35.66643914,10190.41118,613.9722738,a,1,2.3014,,781.6365,781.835,,,,,,,,93,-126,-209,24,113,125,164,169,68,-70,22,-172,16,-72,215,66,-120,160,-126,27,-216,-120,-117,-170,-212,90,90,270,360,180,180,180,270,180,180,90,,,,,,,,,,,781.8351,781.8358,,0,77,77,77,1,5,repeated,,,,,,,,,,,,,,,,,,,,,,,,,,,,,,,,,,,,,,,,,,,,,,,,,
,,2,11,${e://Field/PROLIFIC_PID,M,21,2023-11-02_08h18.00.310,MouseEye_CC,2023.2.2,Win32,60.7681089,1.273801398,,,1366,768,50.785000000000004,4,"425.17, 424.43, 35.16, 22.46, 427.26, 429.17, 442.3",684.16,8.864554724,35.4582189,27.83653633,Passed,118.7850333,,,,,,,,,,,,,,,,,,,,training,5,15,0,left,a,,,,,781.837,781.904,35.66643914,-1,-3,1,0,0,0.0667,fixationPoint,781.9042,782.0012,782.0014,783.6523,35.66643914,10190.41118,613.9722738,a,1,1.6342,,783.6524,783.8469,,,,,,,,70,219,-72,220,122,125,32,125,164,-209,221,-169,117,-80,174,-19,-128,-219,-75,-170,-212,24,-65,29,-114,90,360,90,360,270,270,90,270,180,270,180,,,,,,,,,,,783.8471,783.8477,,0,78,78,78,1,8,repeated,,,,,,,,,,,,,,,,,,,,,,,,,,,,,,,,,,,,,,,,,,,,,,,,,
,,2,11,${e://Field/PROLIFIC_PID,M,21,2023-11-02_08h18.00.310,MouseEye_CC,2023.2.2,Win32,60.7681089,1.273801398,,,1366,768,50.785000000000004,4,"425.17, 424.43, 35.16, 22.46, 427.26, 429.17, 442.3",684.16,8.864554724,35.4582189,27.83653633,Passed,118.7850333,,,,,,,,,,,,,,,,,,,,training,5,16,180,right,s,,,,,783.8498,783.9214,35.66643914,-1,-3,1,0,0,0.0712,fixationPoint,783.9215,784.0139,784.0144,786.7847,35.66643914,10190.41118,613.9722738,s,1,2.7505,,786.785,786.9844,,,,,,,,71,-214,-115,80,119,124,213,212,67,-18,32,-172,67,-172,16,165,-212,116,-128,163,-30,-65,-68,-173,-66,360,180,270,90,180,270,270,360,270,360,270,,,,,,,,,,,786.9845,797.4529,space,0,79,79,79,1,9,novel,10.4437,,,,,,,,,,,,,,,,,,,,,,,,,,,,,,,,,,,,,,,,,,,,,,,,
,,2,11,${e://Field/PROLIFIC_PID,M,21,2023-11-02_08h18.00.310,MouseEye_CC,2023.2.2,Win32,60.7681089,1.273801398,,,1366,768,50.785000000000004,4,"425.17, 424.43, 35.16, 22.46, 427.26, 429.17, 442.3",684.16,8.864554724,35.4582189,27.83653633,Passed,118.7850333,,,,,,,,,,,,,,,,,,,,training,6,1,0,left,a,,,,,797.4705,798.2878,35.66643914,-1,-3,1,0,0,0.8169,fixationPoint,798.2879,798.3821,798.3821,800.4867,35.66643914,10190.41118,613.9722738,a,1,2.0856,,800.4869,800.6851,,,,,,,,13,-114,176,164,30,125,32,169,68,-116,-68,-219,-75,-72,-29,32,-28,211,-165,116,-128,-169,117,-128,28,90,360,180,180,180,360,270,90,360,270,90,,,,,,,,,,,800.6851,800.6887,,0,80,80,80,1,3,repeated,,,,,,,,,,,,,,,,,,,,,,,,,,,,,,,,,,,,,,,,,,,,,,,,,
,,2,11,${e://Field/PROLIFIC_PID,M,21,2023-11-02_08h18.00.310,MouseEye_CC,2023.2.2,Win32,60.7681089,1.273801398,,,1366,768,50.785000000000004,4,"425.17, 424.43, 35.16, 22.46, 427.26, 429.17, 442.3",684.16,8.864554724,35.4582189,27.83653633,Passed,118.7850333,,,,,,,,,,,,,,,,,,,,training,6,2,0,left,a,,,,,800.6894,800.8884,35.66643914,-1,-3,1,0,0,0.1985,fixationPoint,800.8884,800.9836,800.9838,803.2193,35.66643914,10190.41118,613.9722738,a,1,2.2181,,803.2196,803.4176,,,,,,,,88,122,-168,212,67,16,164,165,171,-172,67,-17,112,-114,120,-72,-215,-25,-27,-172,-25,66,-120,32,-28,270,180,180,90,270,90,90,180,90,90,90,,,,,,,,,,,803.4178,803.4184,,0,81,81,81,1,11,novel,,,,,,,,,,,,,,,,,,,,,,,,,,,,,,,,,,,,,,,,,,,,,,,,,
,,2,11,${e://Field/PROLIFIC_PID,M,21,2023-11-02_08h18.00.310,MouseEye_CC,2023.2.2,Win32,60.7681089,1.273801398,,,1366,768,50.785000000000004,4,"425.17, 424.43, 35.16, 22.46, 427.26, 429.17, 442.3",684.16,8.864554724,35.4582189,27.83653633,Passed,118.7850333,,,,,,,,,,,,,,,,,,,,training,6,3,180,right,s,,,,,803.4204,803.4548,35.66643914,-1,-3,1,0,0,0.0339,fixationPoint,803.4548,803.551,803.5513,805.0188,35.66643914,10190.41118,613.9722738,s,1,1.4509,,805.0192,805.2186,,,,,,,,14,-80,174,222,223,164,223,80,119,-173,-66,-221,-24,-26,-76,112,-212,71,-22,208,-118,-128,28,-127,220,360,180,270,90,180,270,90,270,270,360,180,,,,,,,,,,,805.2187,805.2196,,0,82,82,82,1,15,novel,,,,,,,,,,,,,,,,,,,,,,,,,,,,,,,,,,,,,,,,,,,,,,,,,
,,2,11,${e://Field/PROLIFIC_PID,M,21,2023-11-02_08h18.00.310,MouseEye_CC,2023.2.2,Win32,60.7681089,1.273801398,,,1366,768,50.785000000000004,4,"425.17, 424.43, 35.16, 22.46, 427.26, 429.17, 442.3",684.16,8.864554724,35.4582189,27.83653633,Passed,118.7850333,,,,,,,,,,,,,,,,,,,,training,6,4,180,right,s,,,,,805.2203,805.3045,35.66643914,-1,-3,1,0,0,0.0837,fixationPoint,805.3046,805.4015,805.4017,808.3361,35.66643914,10190.41118,613.9722738,s,1,2.9176,,808.3364,808.5342,,,,,,,,93,-126,-209,24,113,125,164,169,68,-70,22,-172,16,-72,215,66,-120,160,-126,27,-216,-120,-117,-170,-212,90,270,360,90,360,360,180,270,270,180,180,,,,,,,,,,,808.5343,808.5351,,0,83,83,83,1,5,repeated,,,,,,,,,,,,,,,,,,,,,,,,,,,,,,,,,,,,,,,,,,,,,,,,,
,,2,11,${e://Field/PROLIFIC_PID,M,21,2023-11-02_08h18.00.310,MouseEye_CC,2023.2.2,Win32,60.7681089,1.273801398,,,1366,768,50.785000000000004,4,"425.17, 424.43, 35.16, 22.46, 427.26, 429.17, 442.3",684.16,8.864554724,35.4582189,27.83653633,Passed,118.7850333,,,,,,,,,,,,,,,,,,,,training,6,5,0,left,a,,,,,808.5364,808.721,35.66643914,-1,-3,1,0,0,0.1841,fixationPoint,808.721,808.8175,808.8177,810.9358,35.66643914,10190.41118,613.9722738,a,1,2.1013,,810.936,811.1338,,,,,,,,30,220,122,-215,72,-208,125,-72,215,-119,-172,-219,-75,-73,-112,24,-65,168,-76,208,-118,166,115,218,161,90,270,270,180,90,90,180,360,360,90,270,,,,,,,,,,,811.1338,811.1344,,0,84,84,84,1,1,repeated,,,,,,,,,,,,,,,,,,,,,,,,,,,,,,,,,,,,,,,,,,,,,,,,,
,,2,11,${e://Field/PROLIFIC_PID,M,21,2023-11-02_08h18.00.310,MouseEye_CC,2023.2.2,Win32,60.7681089,1.273801398,,,1366,768,50.785000000000004,4,"425.17, 424.43, 35.16, 22.46, 427.26, 429.17, 442.3",684.16,8.864554724,35.4582189,27.83653633,Passed,118.7850333,,,,,,,,,,,,,,,,,,,,training,6,6,180,right,s,,,,,811.1365,811.1709,35.66643914,-1,-3,1,0,0,0.034,fixationPoint,811.171,811.268,811.2681,814.2364,35.66643914,10190.41118,613.9722738,s,1,2.9517,,814.2367,814.4351,,,,,,,,72,-169,-126,222,223,165,171,28,68,-128,28,-72,215,-114,176,219,-72,27,-216,68,-211,-172,-25,-209,-208,90,180,360,90,270,270,180,270,180,360,180,,,,,,,,,,,814.4354,814.436,,0,85,85,85,1,6,repeated,,,,,,,,,,,,,,,,,,,,,,,,,,,,,,,,,,,,,,,,,,,,,,,,,
,,2,11,${e://Field/PROLIFIC_PID,M,21,2023-11-02_08h18.00.310,MouseEye_CC,2023.2.2,Win32,60.7681089,1.273801398,,,1366,768,50.785000000000004,4,"425.17, 424.43, 35.16, 22.46, 427.26, 429.17, 442.3",684.16,8.864554724,35.4582189,27.83653633,Passed,118.7850333,,,,,,,,,,,,,,,,,,,,training,6,7,0,left,a,,,,,814.4379,814.4874,35.66643914,-1,-3,1,0,0,0.0492,fixationPoint,814.4876,814.5845,814.5846,817.2022,35.66643914,10190.41118,613.9722738,a,1,2.6007,,817.2025,817.401,,,,,,,,76,29,-114,222,223,164,223,24,113,-208,125,-64,123,-163,214,-68,-170,-25,-27,-126,-209,32,-28,112,-212,90,180,270,270,360,270,360,270,360,180,360,,,,,,,,,,,817.4013,817.4019,,0,86,86,86,1,12,novel,,,,,,,,,,,,,,,,,,,,,,,,,,,,,,,,,,,,,,,,,,,,,,,,,
,,2,11,${e://Field/PROLIFIC_PID,M,21,2023-11-02_08h18.00.310,MouseEye_CC,2023.2.2,Win32,60.7681089,1.273801398,,,1366,768,50.785000000000004,4,"425.17, 424.43, 35.16, 22.46, 427.26, 429.17, 442.3",684.16,8.864554724,35.4582189,27.83653633,Passed,118.7850333,,,,,,,,,,,,,,,,,,,,training,6,8,180,right,s,,,,,817.4037,817.6541,35.66643914,-1,-3,1,0,0,0.25,fixationPoint,817.6542,817.7515,817.7516,820.2058,35.66643914,10190.41118,613.9722738,s,1,2.438,,820.2059,820.4012,,,,,,,,25,-17,112,165,171,16,210,220,122,-73,-112,-170,-212,-120,-117,219,-72,118,-31,165,-212,-18,32,-209,221,270,360,360,360,90,360,180,270,360,360,180,,,,,,,,,,,820.4014,820.4022,,0,87,87,87,1,4,repeated,,,,,,,,,,,,,,,,,,,,,,,,,,,,,,,,,,,,,,,,,,,,,,,,,
,,2,11,${e://Field/PROLIFIC_PID,M,21,2023-11-02_08h18.00.310,MouseEye_CC,2023.2.2,Win32,60.7681089,1.273801398,,,1366,768,50.785000000000004,4,"425.17, 424.43, 35.16, 22.46, 427.26, 429.17, 442.3",684.16,8.864554724,35.4582189,27.83653633,Passed,118.7850333,,,,,,,,,,,,,,,,,,,,training,6,9,0,left,a,,,,,820.404,825.4378,35.66643914,-1,-3,1,0,0,5.0332,fixationPoint,825.4379,825.5344,825.5346,827.1696,35.66643914,10190.41118,613.9722738,a,1,1.6183,,827.1699,827.3672,,,,,,,,8,124,213,-80,174,-215,72,-30,210,-220,-168,-26,-218,-126,-209,165,-212,163,-30,160,-126,164,30,16,210,90,270,90,270,180,360,90,180,180,360,90,,,,,,,,,,,827.3674,827.3688,,0,88,88,88,1,13,novel,,,,,,,,,,,,,,,,,,,,,,,,,,,,,,,,,,,,,,,,,,,,,,,,,
,,2,11,${e://Field/PROLIFIC_PID,M,21,2023-11-02_08h18.00.310,MouseEye_CC,2023.2.2,Win32,60.7681089,1.273801398,,,1366,768,50.785000000000004,4,"425.17, 424.43, 35.16, 22.46, 427.26, 429.17, 442.3",684.16,8.864554724,35.4582189,27.83653633,Passed,118.7850333,,,,,,,,,,,,,,,,,,,,training,6,10,180,right,s,,,,,827.3703,827.9874,35.66643914,-1,-3,1,0,0,0.6168,fixationPoint,827.9876,828.0855,828.0857,829.0853,35.66643914,10190.41118,613.9722738,s,1,0.9841,,829.0856,829.284,,,,,,,,28,121,112,-215,72,-128,28,-214,166,-68,-170,-26,-218,-120,-117,66,-120,29,-114,116,-77,164,223,218,161,270,180,90,360,180,180,180,180,270,90,180,,,,,,,,,,,829.2842,829.285,,0,89,89,89,1,2,repeated,,,,,,,,,,,,,,,,,,,,,,,,,,,,,,,,,,,,,,,,,,,,,,,,,
,,2,11,${e://Field/PROLIFIC_PID,M,21,2023-11-02_08h18.00.310,MouseEye_CC,2023.2.2,Win32,60.7681089,1.273801398,,,1366,768,50.785000000000004,4,"425.17, 424.43, 35.16, 22.46, 427.26, 429.17, 442.3",684.16,8.864554724,35.4582189,27.83653633,Passed,118.7850333,,,,,,,,,,,,,,,,,,,,training,6,11,0,left,a,,,,,829.2865,829.6711,35.66643914,-1,-3,1,0,0,0.3844,fixationPoint,829.6714,829.7686,829.7689,832.6022,35.66643914,10190.41118,613.9722738,a,1,2.8178,,832.6023,832.8009,,,,,,,,71,-214,-115,125,32,164,30,16,164,-114,176,-128,28,-30,210,68,-211,219,-72,118,-31,-26,-76,-172,-25,360,360,270,180,180,90,180,90,270,180,90,,,,,,,,,,,832.8011,832.8016,,0,90,90,90,1,9,novel,,,,,,,,,,,,,,,,,,,,,,,,,,,,,,,,,,,,,,,,,,,,,,,,,
,,2,11,${e://Field/PROLIFIC_PID,M,21,2023-11-02_08h18.00.310,MouseEye_CC,2023.2.2,Win32,60.7681089,1.273801398,,,1366,768,50.785000000000004,4,"425.17, 424.43, 35.16, 22.46, 427.26, 429.17, 442.3",684.16,8.864554724,35.4582189,27.83653633,Passed,118.7850333,,,,,,,,,,,,,,,,,,,,training,6,12,0,left,a,,,,,832.8037,833.2317,35.66643914,-1,-3,1,0,0,0.4276,fixationPoint,833.2318,833.336,833.3361,834.2394,35.66643914,10190.41118,613.9722738,a,1,0.8886,,834.2394,834.4306,,,,,,,,29,166,115,-127,220,-209,221,-164,165,-126,-209,-170,-212,-169,-126,66,-120,118,-31,172,-176,24,113,164,30,90,180,180,360,180,270,360,180,90,90,270,,,,,,,,,,,834.4309,834.432,,0,91,91,91,1,14,novel,,,,,,,,,,,,,,,,,,,,,,,,,,,,,,,,,,,,,,,,,,,,,,,,,
,,2,11,${e://Field/PROLIFIC_PID,M,21,2023-11-02_08h18.00.310,MouseEye_CC,2023.2.2,Win32,60.7681089,1.273801398,,,1366,768,50.785000000000004,4,"425.17, 424.43, 35.16, 22.46, 427.26, 429.17, 442.3",684.16,8.864554724,35.4582189,27.83653633,Passed,118.7850333,,,,,,,,,,,,,,,,,,,,training,6,13,0,left,a,,,,,834.4338,834.7372,35.66643914,-1,-3,1,0,0,0.3031,fixationPoint,834.7375,834.8306,834.8308,836.7531,35.66643914,10190.41118,613.9722738,a,1,1.9017,,836.7534,836.9472,,,,,,,,87,75,-176,67,68,32,28,16,210,-209,221,-169,117,-30,210,-119,-172,-73,-112,-72,-215,18,-176,219,-72,270,270,270,90,360,270,180,90,360,270,270,,,,,,,,,,,836.9474,836.948,,0,92,92,92,1,7,repeated,,,,,,,,,,,,,,,,,,,,,,,,,,,,,,,,,,,,,,,,,,,,,,,,,
,,2,11,${e://Field/PROLIFIC_PID,M,21,2023-11-02_08h18.00.310,MouseEye_CC,2023.2.2,Win32,60.7681089,1.273801398,,,1366,768,50.785000000000004,4,"425.17, 424.43, 35.16, 22.46, 427.26, 429.17, 442.3",684.16,8.864554724,35.4582189,27.83653633,Passed,118.7850333,,,,,,,,,,,,,,,,,,,,training,6,14,180,right,s,,,,,836.95,837.1211,35.66643914,-1,-3,1,0,0,0.1707,fixationPoint,837.1213,837.2208,837.2208,840.186,35.66643914,10190.41118,613.9722738,s,1,2.9516,,840.1862,840.3856,,,,,,,,70,219,-72,220,122,125,32,125,164,-209,221,-169,117,-80,174,-19,-128,-219,-75,-170,-212,24,-65,29,-114,180,360,90,180,360,180,90,90,90,180,360,,,,,,,,,,,840.3857,840.3863,,0,93,93,93,1,8,repeated,,,,,,,,,,,,,,,,,,,,,,,,,,,,,,,,,,,,,,,,,,,,,,,,,
,,2,11,${e://Field/PROLIFIC_PID,M,21,2023-11-02_08h18.00.310,MouseEye_CC,2023.2.2,Win32,60.7681089,1.273801398,,,1366,768,50.785000000000004,4,"425.17, 424.43, 35.16, 22.46, 427.26, 429.17, 442.3",684.16,8.864554724,35.4582189,27.83653633,Passed,118.7850333,,,,,,,,,,,,,,,,,,,,training,6,15,180,right,s,,,,,840.3874,840.7662,35.66643914,-1,-3,1,0,0,0.3785,fixationPoint,840.7666,840.8703,840.8704,843.0523,35.66643914,10190.41118,613.9722738,s,1,2.1675,,843.0525,843.2507,,,,,,,,31,-215,72,124,213,16,164,24,113,-120,-117,-126,-25,-73,-112,165,-212,66,-120,24,-65,-209,221,-163,214,90,90,360,360,180,270,270,180,360,360,360,,,,,,,,,,,843.2509,843.2516,,0,94,94,94,1,16,novel,,,,,,,,,,,,,,,,,,,,,,,,,,,,,,,,,,,,,,,,,,,,,,,,,
,,2,11,${e://Field/PROLIFIC_PID,M,21,2023-11-02_08h18.00.310,MouseEye_CC,2023.2.2,Win32,60.7681089,1.273801398,,,1366,768,50.785000000000004,4,"425.17, 424.43, 35.16, 22.46, 427.26, 429.17, 442.3",684.16,8.864554724,35.4582189,27.83653633,Passed,118.7850333,,,,,,,,,,,,,,,,,,,,training,6,16,180,right,s,,,,,843.2538,843.5208,35.66643914,-1,-3,1,0,0,0.2667,fixationPoint,843.521,843.6184,843.6188,845.0524,35.66643914,10190.41118,613.9722738,s,1,1.4178,,845.0529,845.2512,,,,,,,,73,-120,-117,67,68,125,32,169,68,-172,67,-70,22,-208,125,216,-223,208,-118,24,-65,-68,-170,-173,-66,270,90,180,90,270,360,360,180,90,90,180,,,,,,,,,,,845.2513,846.4304,space,0,95,95,95,1,10,novel,1.1436,,,,,,,,,,,,,,,,,,,,,,,,,,,,,,,,,,,,,,,,,,,,,,,,
,,2,11,${e://Field/PROLIFIC_PID,M,21,2023-11-02_08h18.00.310,MouseEye_CC,2023.2.2,Win32,60.7681089,1.273801398,,,1366,768,50.785000000000004,4,"425.17, 424.43, 35.16, 22.46, 427.26, 429.17, 442.3",684.16,8.864554724,35.4582189,27.83653633,Passed,118.7850333,,,,,,,,,,,,,,,,,,,,training,7,1,0,left,a,,,,,846.4327,847.2304,35.66643914,-1,-3,1,0,0,0.7973,fixationPoint,847.2306,847.3301,847.3303,849.1473,35.66643914,10190.41118,613.9722738,a,1,1.8023,,849.1477,849.3476,,,,,,,,88,122,-168,213,26,75,217,16,164,-127,220,-24,64,-214,166,-176,-175,-172,-25,-119,-172,29,-114,116,-128,180,90,180,90,180,360,270,180,360,360,180,,,,,,,,,,,849.3477,849.3519,,0,96,96,96,1,11,novel,,,,,,,,,,,,,,,,,,,,,,,,,,,,,,,,,,,,,,,,,,,,,,,,,
,,2,11,${e://Field/PROLIFIC_PID,M,21,2023-11-02_08h18.00.310,MouseEye_CC,2023.2.2,Win32,60.7681089,1.273801398,,,1366,768,50.785000000000004,4,"425.17, 424.43, 35.16, 22.46, 427.26, 429.17, 442.3",684.16,8.864554724,35.4582189,27.83653633,Passed,118.7850333,,,,,,,,,,,,,,,,,,,,training,7,2,0,left,a,,,,,849.3526,849.4638,35.66643914,-1,-3,1,0,0,0.1107,fixationPoint,849.4639,849.5636,849.5638,852.7639,35.66643914,10190.41118,613.9722738,a,1,3.1848,,852.7642,852.9634,,,,,,,,14,-80,174,164,223,222,223,16,164,-73,-112,-221,-24,-26,-76,219,-72,75,-176,211,-165,-219,20,-127,72,180,360,270,270,180,270,180,360,90,180,180,,,,,,,,,,,852.9635,852.9643,,0,97,97,97,1,15,novel,,,,,,,,,,,,,,,,,,,,,,,,,,,,,,,,,,,,,,,,,,,,,,,,,
,,2,11,${e://Field/PROLIFIC_PID,M,21,2023-11-02_08h18.00.310,MouseEye_CC,2023.2.2,Win32,60.7681089,1.273801398,,,1366,768,50.785000000000004,4,"425.17, 424.43, 35.16, 22.46, 427.26, 429.17, 442.3",684.16,8.864554724,35.4582189,27.83653633,Passed,118.7850333,,,,,,,,,,,,,,,,,,,,training,7,3,0,left,a,,,,,852.9659,852.997,35.66643914,-1,-3,1,0,0,0.0305,fixationPoint,852.9973,853.0969,853.097,854.3851,35.66643914,10190.41118,613.9722738,a,1,1.2787,,854.3853,854.5801,,,,,,,,8,124,213,-164,165,-127,220,-208,125,-26,-218,-220,-168,-120,-117,32,-28,27,-216,116,-128,76,28,126,73,180,360,270,180,180,360,360,270,180,360,270,,,,,,,,,,,854.5803,854.581,,0,98,98,98,1,13,novel,,,,,,,,,,,,,,,,,,,,,,,,,,,,,,,,,,,,,,,,,,,,,,,,,
,,2,11,${e://Field/PROLIFIC_PID,M,21,2023-11-02_08h18.00.310,MouseEye_CC,2023.2.2,Win32,60.7681089,1.273801398,,,1366,768,50.785000000000004,4,"425.17, 424.43, 35.16, 22.46, 427.26, 429.17, 442.3",684.16,8.864554724,35.4582189,27.83653633,Passed,118.7850333,,,,,,,,,,,,,,,,,,,,training,7,4,180,right,s,,,,,854.583,854.6804,35.66643914,-1,-3,1,0,0,0.097,fixationPoint,854.6806,854.7802,854.7803,858.0474,35.66643914,10190.41118,613.9722738,s,1,3.2493,,858.0476,858.2464,,,,,,,,93,-126,-209,24,113,125,164,169,68,-70,22,-172,16,-72,215,66,-120,160,-126,27,-216,-120,-117,-170,-212,180,90,360,270,90,90,90,360,360,90,360,,,,,,,,,,,858.2465,858.2473,,0,99,99,99,1,5,repeated,,,,,,,,,,,,,,,,,,,,,,,,,,,,,,,,,,,,,,,,,,,,,,,,,
,,2,11,${e://Field/PROLIFIC_PID,M,21,2023-11-02_08h18.00.310,MouseEye_CC,2023.2.2,Win32,60.7681089,1.273801398,,,1366,768,50.785000000000004,4,"425.17, 424.43, 35.16, 22.46, 427.26, 429.17, 442.3",684.16,8.864554724,35.4582189,27.83653633,Passed,118.7850333,,,,,,,,,,,,,,,,,,,,training,7,5,0,left,a,,,,,858.2494,858.3156,35.66643914,-1,-3,1,0,0,0.066,fixationPoint,858.3159,858.414,858.4145,859.8809,35.66643914,10190.41118,613.9722738,a,1,1.4513,,859.8811,860.0802,,,,,,,,70,219,-72,220,122,125,32,125,164,-209,221,-169,117,-80,174,-19,-128,-219,-75,-170,-212,24,-65,29,-114,180,270,270,90,180,360,180,180,180,360,180,,,,,,,,,,,860.0803,860.0811,,0,100,100,100,1,8,repeated,,,,,,,,,,,,,,,,,,,,,,,,,,,,,,,,,,,,,,,,,,,,,,,,,
,,2,11,${e://Field/PROLIFIC_PID,M,21,2023-11-02_08h18.00.310,MouseEye_CC,2023.2.2,Win32,60.7681089,1.273801398,,,1366,768,50.785000000000004,4,"425.17, 424.43, 35.16, 22.46, 427.26, 429.17, 442.3",684.16,8.864554724,35.4582189,27.83653633,Passed,118.7850333,,,,,,,,,,,,,,,,,,,,training,7,6,180,right,s,,,,,860.0828,860.247,35.66643914,-1,-3,1,0,0,0.1638,fixationPoint,860.2472,860.3471,860.3471,861.2306,35.66643914,10190.41118,613.9722738,s,1,0.8656,,861.2309,861.4299,,,,,,,,28,121,112,-215,72,-128,28,-214,166,-68,-170,-26,-218,-120,-117,66,-120,29,-114,116,-77,164,223,218,161,90,180,270,90,360,90,270,360,180,180,270,,,,,,,,,,,861.43,861.4309,,0,101,101,101,1,2,repeated,,,,,,,,,,,,,,,,,,,,,,,,,,,,,,,,,,,,,,,,,,,,,,,,,
,,2,11,${e://Field/PROLIFIC_PID,M,21,2023-11-02_08h18.00.310,MouseEye_CC,2023.2.2,Win32,60.7681089,1.273801398,,,1366,768,50.785000000000004,4,"425.17, 424.43, 35.16, 22.46, 427.26, 429.17, 442.3",684.16,8.864554724,35.4582189,27.83653633,Passed,118.7850333,,,,,,,,,,,,,,,,,,,,training,7,7,180,right,s,,,,,861.4332,861.4982,35.66643914,-1,-3,1,0,0,0.0647,fixationPoint,861.4985,861.5965,861.5967,864.6133,35.66643914,10190.41118,613.9722738,s,1,3.0017,,864.6135,864.8129,,,,,,,,29,166,115,-208,125,-17,112,-72,215,-220,-168,-68,-170,-25,-27,216,-223,211,-165,209,-24,64,169,126,73,90,180,180,180,180,180,90,360,180,360,360,,,,,,,,,,,864.8131,864.8139,,0,102,102,102,1,14,novel,,,,,,,,,,,,,,,,,,,,,,,,,,,,,,,,,,,,,,,,,,,,,,,,,
,,2,11,${e://Field/PROLIFIC_PID,M,21,2023-11-02_08h18.00.310,MouseEye_CC,2023.2.2,Win32,60.7681089,1.273801398,,,1366,768,50.785000000000004,4,"425.17, 424.43, 35.16, 22.46, 427.26, 429.17, 442.3",684.16,8.864554724,35.4582189,27.83653633,Passed,118.7850333,,,,,,,,,,,,,,,,,,,,training,7,8,180,right,s,,,,,864.8158,864.9635,35.66643914,-1,-3,1,0,0,0.1473,fixationPoint,864.9638,865.0631,865.0632,867.8472,35.66643914,10190.41118,613.9722738,s,1,2.7669,,867.8476,868.0469,,,,,,,,71,-214,-115,164,30,125,164,64,169,-24,64,-164,165,-17,112,219,-72,65,-80,122,-168,-72,-29,-126,-25,180,270,90,360,90,90,360,360,180,270,270,,,,,,,,,,,868.047,868.0478,,0,103,103,103,1,9,novel,,,,,,,,,,,,,,,,,,,,,,,,,,,,,,,,,,,,,,,,,,,,,,,,,
,,2,11,${e://Field/PROLIFIC_PID,M,21,2023-11-02_08h18.00.310,MouseEye_CC,2023.2.2,Win32,60.7681089,1.273801398,,,1366,768,50.785000000000004,4,"425.17, 424.43, 35.16, 22.46, 427.26, 429.17, 442.3",684.16,8.864554724,35.4582189,27.83653633,Passed,118.7850333,,,,,,,,,,,,,,,,,,,,training,7,9,0,left,a,,,,,868.0494,868.1642,35.66643914,-1,-3,1,0,0,0.1139,fixationPoint,868.1647,868.2635,868.2636,869.3306,35.66643914,10190.41118,613.9722738,a,1,1.0539,,869.3309,869.531,,,,,,,,30,220,122,-215,72,-208,125,-72,215,-119,-172,-219,-75,-73,-112,24,-65,168,-76,208,-118,166,115,218,161,180,270,270,360,270,270,360,360,90,90,270,,,,,,,,,,,869.5311,869.5317,,0,104,104,104,1,1,repeated,,,,,,,,,,,,,,,,,,,,,,,,,,,,,,,,,,,,,,,,,,,,,,,,,
,,2,11,${e://Field/PROLIFIC_PID,M,21,2023-11-02_08h18.00.310,MouseEye_CC,2023.2.2,Win32,60.7681089,1.273801398,,,1366,768,50.785000000000004,4,"425.17, 424.43, 35.16, 22.46, 427.26, 429.17, 442.3",684.16,8.864554724,35.4582189,27.83653633,Passed,118.7850333,,,,,,,,,,,,,,,,,,,,training,7,10,180,right,s,,,,,869.5331,869.564,35.66643914,-1,-3,1,0,0,0.0304,fixationPoint,869.5641,869.6632,869.6635,872.7302,35.66643914,10190.41118,613.9722738,s,1,3.0519,,872.7304,872.9298,,,,,,,,76,29,-114,80,119,76,28,220,122,-169,117,-215,72,-127,72,-176,-175,-65,-68,-120,-117,216,-223,122,-168,270,270,90,360,360,270,270,360,360,90,90,,,,,,,,,,,872.9299,872.9306,,0,105,105,105,1,12,novel,,,,,,,,,,,,,,,,,,,,,,,,,,,,,,,,,,,,,,,,,,,,,,,,,
,,2,11,${e://Field/PROLIFIC_PID,M,21,2023-11-02_08h18.00.310,MouseEye_CC,2023.2.2,Win32,60.7681089,1.273801398,,,1366,768,50.785000000000004,4,"425.17, 424.43, 35.16, 22.46, 427.26, 429.17, 442.3",684.16,8.864554724,35.4582189,27.83653633,Passed,118.7850333,,,,,,,,,,,,,,,,,,,,training,7,11,0,left,a,,,,,872.9326,872.9636,35.66643914,-1,-3,1,0,0,0.0306,fixationPoint,872.9638,873.0634,873.0635,875.2637,35.66643914,10190.41118,613.9722738,a,1,2.1835,,875.2638,875.4636,,,,,,,,31,-215,72,164,30,218,161,220,122,-25,-27,-120,-117,-176,-175,65,-80,209,-24,163,-30,-169,117,-24,64,270,180,90,90,270,270,90,180,90,360,180,,,,,,,,,,,875.4637,875.4644,,0,106,106,106,1,16,novel,,,,,,,,,,,,,,,,,,,,,,,,,,,,,,,,,,,,,,,,,,,,,,,,,
,,2,11,${e://Field/PROLIFIC_PID,M,21,2023-11-02_08h18.00.310,MouseEye_CC,2023.2.2,Win32,60.7681089,1.273801398,,,1366,768,50.785000000000004,4,"425.17, 424.43, 35.16, 22.46, 427.26, 429.17, 442.3",684.16,8.864554724,35.4582189,27.83653633,Passed,118.7850333,,,,,,,,,,,,,,,,,,,,training,7,12,0,left,a,,,,,875.466,875.4802,35.66643914,-1,-3,1,0,0,0.0138,fixationPoint,875.4803,875.58,875.58,877.5472,35.66643914,10190.41118,613.9722738,a,1,1.9503,,877.5475,877.7471,,,,,,,,87,75,-176,67,68,32,28,16,210,-209,221,-169,117,-30,210,-119,-172,-73,-112,-72,-215,18,-176,219,-72,180,90,180,90,360,360,360,90,360,90,90,,,,,,,,,,,877.7472,877.7475,,0,107,107,107,1,7,repeated,,,,,,,,,,,,,,,,,,,,,,,,,,,,,,,,,,,,,,,,,,,,,,,,,
,,2,11,${e://Field/PROLIFIC_PID,M,21,2023-11-02_08h18.00.310,MouseEye_CC,2023.2.2,Win32,60.7681089,1.273801398,,,1366,768,50.785000000000004,4,"425.17, 424.43, 35.16, 22.46, 427.26, 429.17, 442.3",684.16,8.864554724,35.4582189,27.83653633,Passed,118.7850333,,,,,,,,,,,,,,,,,,,,training,7,13,180,right,s,,,,,877.7487,877.8473,35.66643914,-1,-3,1,0,0,0.0982,fixationPoint,877.8474,877.9468,877.947,879.5134,35.66643914,10190.41118,613.9722738,s,1,1.5533,,879.5141,879.7171,,,,,,,,73,-120,-117,220,122,64,169,67,68,-208,125,-209,221,-163,214,116,-128,163,-30,216,-223,-172,-25,-219,-75,360,270,90,90,90,270,90,270,360,90,360,,,,,,,,,,,879.7172,879.7176,,0,108,108,108,1,10,novel,,,,,,,,,,,,,,,,,,,,,,,,,,,,,,,,,,,,,,,,,,,,,,,,,
,,2,11,${e://Field/PROLIFIC_PID,M,21,2023-11-02_08h18.00.310,MouseEye_CC,2023.2.2,Win32,60.7681089,1.273801398,,,1366,768,50.785000000000004,4,"425.17, 424.43, 35.16, 22.46, 427.26, 429.17, 442.3",684.16,8.864554724,35.4582189,27.83653633,Passed,118.7850333,,,,,,,,,,,,,,,,,,,,training,7,14,180,right,s,,,,,879.7189,879.8302,35.66643914,-1,-3,1,0,0,0.1111,fixationPoint,879.8305,879.9301,879.9302,882.08,35.66643914,10190.41118,613.9722738,s,1,2.1337,,882.0802,882.2677,,,,,,,,72,-169,-126,222,223,165,171,28,68,-128,28,-72,215,-114,176,219,-72,27,-216,68,-211,-172,-25,-209,-208,90,180,270,180,270,360,360,360,270,90,360,,,,,,,,,,,882.2679,882.2686,,0,109,109,109,1,6,repeated,,,,,,,,,,,,,,,,,,,,,,,,,,,,,,,,,,,,,,,,,,,,,,,,,
,,2,11,${e://Field/PROLIFIC_PID,M,21,2023-11-02_08h18.00.310,MouseEye_CC,2023.2.2,Win32,60.7681089,1.273801398,,,1366,768,50.785000000000004,4,"425.17, 424.43, 35.16, 22.46, 427.26, 429.17, 442.3",684.16,8.864554724,35.4582189,27.83653633,Passed,118.7850333,,,,,,,,,,,,,,,,,,,,training,7,15,180,right,s,,,,,882.2704,882.3028,35.66643914,-1,-3,1,0,0,0.0322,fixationPoint,882.303,882.4012,882.4014,884.8175,35.66643914,10190.41118,613.9722738,s,1,2.3992,,884.8177,885.0137,,,,,,,,25,-17,112,165,171,16,210,220,122,-73,-112,-170,-212,-120,-117,219,-72,118,-31,165,-212,-18,32,-209,221,270,90,180,180,90,90,90,270,270,180,90,,,,,,,,,,,885.014,885.0153,,0,110,110,110,1,4,repeated,,,,,,,,,,,,,,,,,,,,,,,,,,,,,,,,,,,,,,,,,,,,,,,,,
,,2,11,${e://Field/PROLIFIC_PID,M,21,2023-11-02_08h18.00.310,MouseEye_CC,2023.2.2,Win32,60.7681089,1.273801398,,,1366,768,50.785000000000004,4,"425.17, 424.43, 35.16, 22.46, 427.26, 429.17, 442.3",684.16,8.864554724,35.4582189,27.83653633,Passed,118.7850333,,,,,,,,,,,,,,,,,,,,training,7,16,0,left,a,,,,,885.0167,885.0719,35.66643914,-1,-3,1,0,0,0.055,fixationPoint,885.0721,885.1677,885.1678,886.3521,35.66643914,10190.41118,613.9722738,a,1,1.1676,,886.3524,886.5508,,,,,,,,13,-114,176,164,30,125,32,169,68,-116,-68,-219,-75,-72,-29,32,-28,211,-165,116,-128,-169,117,-128,28,180,270,180,180,360,360,270,360,180,90,360,,,,,,,,,,,886.5511,888.3201,space,0,111,111,111,1,3,repeated,1.7448,,,,,,,,,,,,,,,,,,,,,,,,,,,,,,,,,,,,,,,,,,,,,,,,
