InstrStartPage.started,InstrStartPage.stopped,participant,designid,prolificid,Gender,Age,date,expName,psychopyVersion,OS,frameRate,ratio_monitor2CRT,VirtualChinrest.started,VirtualChinrest.stopped,xRes,yRes,viewingdistance_cm,pixeldensity_px2mm,BallPos,squarePos,mm2degree,px2degree,CRT_px2degree,PassVirtualChinrest,foveaRadius_inPixel,InstrRedo.started,InstrRedo.stopped,VirtualChinrest_Redo.started,VirtualChinrest_Redo.stopped,Redo_virtualChinrest,Instruction1.started,Instruction1.stopped,keyPractice.started,keyPractice.stopped,key_keyprac.keys,key_keyprac.corr,key_keyprac.rt,key_keyprac.duration,keyPracFeedback.started,keyPracFeedback.stopped,keyPracLoop.thisRepN,keyPracLoop.thisTrialN,keyPracLoop.thisN,keyPracLoop.thisIndex,keyPracLoop.ran,phase,block,trial,targOrientdeg,targOrient,corrAnswer,Instruction2.started,Instruction2.stopped,Instruction3.started,Instruction3.stopped,fixation.started,fixation.stopped,fixationSize,mouseintial.x,mouseintial.y,mouseintial.leftButton,mouseintial.midButton,mouseintial.rightButton,mouseintial.time,mouseintial.clicked_name,greenFixation.started,greenFixation.stopped,trial.started,trial.stopped,letterSize,apertureSize,searchsize,key_respMain.keys,key_respMain.corr,key_respMain.rt,key_respMain.duration,trialFeedback.started,trialFeedback.stopped,trialsPractice.thisRepN,trialsPractice.thisTrialN,trialsPractice.thisN,trialsPractice.thisIndex,trialsPractice.ran,targetQuad,Tcondition,targcell,tlocx,tlocy,d1x,d1y,d2x,d2y,d3x,d3y,d4x,d4y,d5x,d5y,d6x,d6y,d7x,d7y,d8x,d8y,d9x,d9y,d10x,d10y,d11x,d11y,d1Orient,d2Orient,d3Orient,d4Orient,d5Orient,d6Orient,d7Orient,d8Orient,d9Orient,d10Orient,d11Orient,CheckInstr.started,CheckInstr.stopped,key_checkInstr.keys,key_checkInstr.corr,key_checkInstr.rt,key_checkInstr.duration,CheckInstr_FB.started,CheckInstr_FB.stopped,Instruction_MainExp.started,Instruction_MainExp.stopped,TakeABreak.started,TakeABreak.stopped,key_respBreak.keys,trials.thisRepN,trials.thisTrialN,trials.thisN,trials.thisIndex,trials.ran,configurationNumber,CCCondition,key_respBreak.rt,key_respBreak.duration,displayTestingPhase.started,displayTestingPhase.stopped,key_respTesting.keys,key_respTesting.corr,key_respTesting.rt,key_respTesting.duration,TakeABreak2.started,TakeABreak2.stopped,key_RespBreak.keys,Testingtrials.thisRepN,Testingtrials.thisTrialN,Testingtrials.thisN,Testingtrials.thisIndex,Testingtrials.ran,key_RespBreak.rt,key_RespBreak.duration,RecogQuestion.started,RecogQuestion.stopped,key_AnswerQues.keys,key_AnswerQues.rt,key_AnswerQues.duration,Disclose.started,Disclose.stopped,InstrRT.started,InstrRT.stopped,fixation_RT.started,fixation_RT.stopped,mouseInitial.x,mouseInitial.y,mouseInitial.leftButton,mouseInitial.midButton,mouseInitial.rightButton,mouseInitial.time,mouseInitial.clicked_name,displayRT.started,displayRT.stopped,key_respRT.keys,key_respRT.corr,key_respRT.rt,key_respRT.duration,RTtrials.thisRepN,RTtrials.thisTrialN,RTtrials.thisN,RTtrials.thisIndex,RTtrials.ran,EndOfExperiment.started,EndOfExperiment.stopped
0.0001,12.4833,30,2,${e://Field/PROLIFIC_PID,F,18,2023-11-09_02h18.01.910,MouseEye_CC,2023.2.2,Win32,165.6726309,1,,,,,,,,,,,,,,,,,,,,,,,,,,,,,,,,,,,,,,,,,,,,,,,,,,,,,,,,,,,,,,,,,,,,,,,,,,,,,,,,,,,,,,,,,,,,,,,,,,,,,,,,,,,,,,,,,,,,,,,,,,,,,,,,,,,,,,,,,,,,,,,,,,,,,,,,,,,,,,,,,,,,,,,,,,,,,,,,,,
,,30,2,${e://Field/PROLIFIC_PID,F,18,2023-11-09_02h18.01.910,MouseEye_CC,2023.2.2,Win32,165.6726309,1.267845872,12.4835,163.8791,1920,1080,54.943,3.68,"146.32, 112.94, 131.39, 132.24, 181.3, 140.99, 158.87",627.38,9.590336324,35.29243767,27.83653633,Passed,118.2296662,,,,,,,,,,,,,,,,,,,,,,,,,,,,,,,,,,,,,,,,,,,,,,,,,,,,,,,,,,,,,,,,,,,,,,,,,,,,,,,,,,,,,,,,,,,,,,,,,,,,,,,,,,,,,,,,,,,,,,,,,,,,,,,,,,,,,,,,,,,,,,,,,,,,,,,,,,,,,,,,,,,,,
,,30,2,${e://Field/PROLIFIC_PID,F,18,2023-11-09_02h18.01.910,MouseEye_CC,2023.2.2,Win32,165.6726309,1.267845872,,,1920,1080,54.943,3.68,"146.32, 112.94, 131.39, 132.24, 181.3, 140.99, 158.87",627.38,9.590336324,35.29243767,27.83653633,Passed,118.2296662,163.8793,163.8809,,,,,,,,,,,,,,,,,,,,,,,,,,,,,,,,,,,,,,,,,,,,,,,,,,,,,,,,,,,,,,,,,,,,,,,,,,,,,,,,,,,,,,,,,,,,,,,,,,,,,,,,,,,,,,,,,,,,,,,,,,,,,,,,,,,,,,,,,,,,,,,,,,,,,,,,,,,,,,,,,,,
,,30,2,${e://Field/PROLIFIC_PID,F,18,2023-11-09_02h18.01.910,MouseEye_CC,2023.2.2,Win32,165.6726309,1.28,,,1920,1080,57.355,3.68,"146.32, 112.94, 131.39, 132.24, 181.3, 140.99, 158.87",627.38,10.01135249,36.84177716,27.83653633,Passed,123.4199535,,,163.881,264.7027,failed,,,,,,,,,,,,,,,,,,,,,,,,,,,,,,,,,,,,,,,,,,,,,,,,,,,,,,,,,,,,,,,,,,,,,,,,,,,,,,,,,,,,,,,,,,,,,,,,,,,,,,,,,,,,,,,,,,,,,,,,,,,,,,,,,,,,,,,,,,,,,,,,,,,,,,,,,,,,,,,,
,,30,2,${e://Field/PROLIFIC_PID,F,18,2023-11-09_02h18.01.910,MouseEye_CC,2023.2.2,Win32,165.6726309,1.28,,,1920,1080,57.355,3.68,"146.32, 112.94, 131.39, 132.24, 181.3, 140.99, 158.87",627.38,10.01135249,36.84177716,27.83653633,Passed,123.4199535,,,,,,264.7029,277.0115,,,,,,,,,,,,,,,,,,,,,,,,,,,,,,,,,,,,,,,,,,,,,,,,,,,,,,,,,,,,,,,,,,,,,,,,,,,,,,,,,,,,,,,,,,,,,,,,,,,,,,,,,,,,,,,,,,,,,,,,,,,,,,,,,,,,,,,,,,,,,,,,,,,,,,,,,,,,,,
,,30,2,${e://Field/PROLIFIC_PID,F,18,2023-11-09_02h18.01.910,MouseEye_CC,2023.2.2,Win32,165.6726309,1.28,,,1920,1080,57.355,3.68,"146.32, 112.94, 131.39, 132.24, 181.3, 140.99, 158.87",627.38,10.01135249,36.84177716,27.83653633,Passed,123.4199535,,,,,,,,277.0224,278.0533,a,1,0.5202,,278.0534,278.5504,0,0,0,0,1,practice,1,1,0,left,a,,,,,,,,,,,,,,,,,,,,,,,,,,,,,,,,,,,,,,,,,,,,,,,,,,,,,,,,,,,,,,,,,,,,,,,,,,,,,,,,,,,,,,,,,,,,,,,,,,,,,,,,,,,,,,,,,,,,,,,,,,,,,,,,,,,,,,,,,,,
,,30,2,${e://Field/PROLIFIC_PID,F,18,2023-11-09_02h18.01.910,MouseEye_CC,2023.2.2,Win32,165.6726309,1.28,,,1920,1080,57.355,3.68,"146.32, 112.94, 131.39, 132.24, 181.3, 140.99, 158.87",627.38,10.01135249,36.84177716,27.83653633,Passed,123.4199535,,,,,,,,278.5507,279.5625,a,1,0.5036,,279.5625,280.0594,0,1,1,1,1,practice,1,2,0,left,a,,,,,,,,,,,,,,,,,,,,,,,,,,,,,,,,,,,,,,,,,,,,,,,,,,,,,,,,,,,,,,,,,,,,,,,,,,,,,,,,,,,,,,,,,,,,,,,,,,,,,,,,,,,,,,,,,,,,,,,,,,,,,,,,,,,,,,,,,,,
,,30,2,${e://Field/PROLIFIC_PID,F,18,2023-11-09_02h18.01.910,MouseEye_CC,2023.2.2,Win32,165.6726309,1.28,,,1920,1080,57.355,3.68,"146.32, 112.94, 131.39, 132.24, 181.3, 140.99, 158.87",627.38,10.01135249,36.84177716,27.83653633,Passed,123.4199535,,,,,,,,280.0596,280.938,a,1,0.3707,,280.9381,281.4359,0,2,2,2,1,practice,1,3,0,left,a,,,,,,,,,,,,,,,,,,,,,,,,,,,,,,,,,,,,,,,,,,,,,,,,,,,,,,,,,,,,,,,,,,,,,,,,,,,,,,,,,,,,,,,,,,,,,,,,,,,,,,,,,,,,,,,,,,,,,,,,,,,,,,,,,,,,,,,,,,,
,,30,2,${e://Field/PROLIFIC_PID,F,18,2023-11-09_02h18.01.910,MouseEye_CC,2023.2.2,Win32,165.6726309,1.28,,,1920,1080,57.355,3.68,"146.32, 112.94, 131.39, 132.24, 181.3, 140.99, 158.87",627.38,10.01135249,36.84177716,27.83653633,Passed,123.4199535,,,,,,,,281.4366,282.3441,s,1,0.4003,,282.3441,282.8412,0,3,3,3,1,practice,1,4,180,right,s,,,,,,,,,,,,,,,,,,,,,,,,,,,,,,,,,,,,,,,,,,,,,,,,,,,,,,,,,,,,,,,,,,,,,,,,,,,,,,,,,,,,,,,,,,,,,,,,,,,,,,,,,,,,,,,,,,,,,,,,,,,,,,,,,,,,,,,,,,,
,,30,2,${e://Field/PROLIFIC_PID,F,18,2023-11-09_02h18.01.910,MouseEye_CC,2023.2.2,Win32,165.6726309,1.28,,,1920,1080,57.355,3.68,"146.32, 112.94, 131.39, 132.24, 181.3, 140.99, 158.87",627.38,10.01135249,36.84177716,27.83653633,Passed,123.4199535,,,,,,,,282.8414,283.7379,s,1,0.3901,,283.738,284.2353,0,4,4,4,1,practice,1,5,180,right,s,,,,,,,,,,,,,,,,,,,,,,,,,,,,,,,,,,,,,,,,,,,,,,,,,,,,,,,,,,,,,,,,,,,,,,,,,,,,,,,,,,,,,,,,,,,,,,,,,,,,,,,,,,,,,,,,,,,,,,,,,,,,,,,,,,,,,,,,,,,
,,30,2,${e://Field/PROLIFIC_PID,F,18,2023-11-09_02h18.01.910,MouseEye_CC,2023.2.2,Win32,165.6726309,1.28,,,1920,1080,57.355,3.68,"146.32, 112.94, 131.39, 132.24, 181.3, 140.99, 158.87",627.38,10.01135249,36.84177716,27.83653633,Passed,123.4199535,,,,,,,,284.2356,285.1322,a,1,0.3883,,285.1322,285.6291,0,5,5,5,1,practice,1,6,0,left,a,,,,,,,,,,,,,,,,,,,,,,,,,,,,,,,,,,,,,,,,,,,,,,,,,,,,,,,,,,,,,,,,,,,,,,,,,,,,,,,,,,,,,,,,,,,,,,,,,,,,,,,,,,,,,,,,,,,,,,,,,,,,,,,,,,,,,,,,,,,
,,30,2,${e://Field/PROLIFIC_PID,F,18,2023-11-09_02h18.01.910,MouseEye_CC,2023.2.2,Win32,165.6726309,1.28,,,1920,1080,57.355,3.68,"146.32, 112.94, 131.39, 132.24, 181.3, 140.99, 158.87",627.38,10.01135249,36.84177716,27.83653633,Passed,123.4199535,,,,,,,,,,,,,,,,,,,,,,,,,,,285.6297,294.4295,,,,,,,,,,,,,,,,,,,,,,,,,,,,,,,,,,,,,,,,,,,,,,,,,,,,,,,,,,,,,,,,,,,,,,,,,,,,,,,,,,,,,,,,,,,,,,,,,,,,,,,,,,,,,,,,,,,,,,,,,,,,,,,,,,,,,,,,,
,,30,2,${e://Field/PROLIFIC_PID,F,18,2023-11-09_02h18.01.910,MouseEye_CC,2023.2.2,Win32,165.6726309,1.28,,,1920,1080,57.355,3.68,"146.32, 112.94, 131.39, 132.24, 181.3, 140.99, 158.87",627.38,10.01135249,36.84177716,27.83653633,Passed,123.4199535,,,,,,,,,,,,,,,,,,,,,,,,,,,,,294.4296,305.0564,,,,,,,,,,,,,,,,,,,,,,,,,,,,,,,,,,,,,,,,,,,,,,,,,,,,,,,,,,,,,,,,,,,,,,,,,,,,,,,,,,,,,,,,,,,,,,,,,,,,,,,,,,,,,,,,,,,,,,,,,,,,,,,,,,,,,,,
,,30,2,${e://Field/PROLIFIC_PID,F,18,2023-11-09_02h18.01.910,MouseEye_CC,2023.2.2,Win32,165.6726309,1.28,,,1920,1080,57.355,3.68,"146.32, 112.94, 131.39, 132.24, 181.3, 140.99, 158.87",627.38,10.01135249,36.84177716,27.83653633,Passed,123.4199535,,,,,,,,,,,,,,,,,,,,,practice,0,1,0,left,a,,,,,305.0736,306.6353,35.84,0,1,1,0,0,1.5616,fixationPoint,306.6354,306.7321,306.7324,309.9325,35.84,10240,616.96,a,1,3.1829,,309.9326,310.1295,0,0,0,0,1,4,sparse,90,217,-164,68,123,222,26,214,216,-218,159,-120,223,-110,82,-115,-130,-224,-120,-68,-219,79,-175,19,-128,90,270,360,90,270,270,180,90,90,90,270,,,,,,,,,,,,,,,,,,,,,,,,,,,,,,,,,,,,,,,,,,,,,,,,,,,,,,,,,,,,,,,,,,,,,
,,30,2,${e://Field/PROLIFIC_PID,F,18,2023-11-09_02h18.01.910,MouseEye_CC,2023.2.2,Win32,165.6726309,1.28,,,1920,1080,57.355,3.68,"146.32, 112.94, 131.39, 132.24, 181.3, 140.99, 158.87",627.38,10.01135249,36.84177716,27.83653633,Passed,123.4199535,,,,,,,,,,,,,,,,,,,,,practice,0,2,0,left,a,,,,,310.1303,311.0195,35.84,0,1,1,0,0,0.8891,fixationPoint,311.0195,311.1227,311.1227,313.332,35.84,10240,616.96,a,1,2.2031,,313.332,313.532,0,1,1,1,1,1,rich,39,169,66,-126,125,-169,169,-130,19,-169,-116,-125,-167,-224,-216,218,-129,171,-218,18,-208,166,26,17,170,180,90,360,270,90,90,90,270,180,180,270,,,,,,,,,,,,,,,,,,,,,,,,,,,,,,,,,,,,,,,,,,,,,,,,,,,,,,,,,,,,,,,,,,,,,
,,30,2,${e://Field/PROLIFIC_PID,F,18,2023-11-09_02h18.01.910,MouseEye_CC,2023.2.2,Win32,165.6726309,1.28,,,1920,1080,57.355,3.68,"146.32, 112.94, 131.39, 132.24, 181.3, 140.99, 158.87",627.38,10.01135249,36.84177716,27.83653633,Passed,123.4199535,,,,,,,,,,,,,,,,,,,,,practice,0,3,0,left,a,,,,,313.5323,314.1382,35.84,0,1,1,0,0,0.6058,fixationPoint,314.1383,314.2351,314.2351,316.1625,35.84,10240,616.96,a,1,1.9216,,316.1625,316.3625,0,2,2,2,1,2,sparse,22,-162,126,222,26,17,170,126,172,-25,-117,-175,-206,-224,-216,116,-19,130,-174,217,-164,-218,159,-21,162,90,90,180,360,360,270,360,360,360,360,180,,,,,,,,,,,,,,,,,,,,,,,,,,,,,,,,,,,,,,,,,,,,,,,,,,,,,,,,,,,,,,,,,,,,,
,,30,2,${e://Field/PROLIFIC_PID,F,18,2023-11-09_02h18.01.910,MouseEye_CC,2023.2.2,Win32,165.6726309,1.28,,,1920,1080,57.355,3.68,"146.32, 112.94, 131.39, 132.24, 181.3, 140.99, 158.87",627.38,10.01135249,36.84177716,27.83653633,Passed,123.4199535,,,,,,,,,,,,,,,,,,,,,practice,0,4,180,right,s,,,,,316.3627,316.7565,35.84,0,1,1,0,0,0.3937,fixationPoint,316.7565,316.8534,316.8534,320.3868,35.84,10240,616.96,s,1,3.5292,,320.3868,320.5866,0,3,3,3,1,4,sparse,76,19,-128,159,121,214,216,219,165,-218,159,-162,126,-219,119,-169,-116,-111,-31,-175,-206,18,-208,81,-114,90,270,180,180,270,180,360,360,360,270,360,,,,,,,,,,,,,,,,,,,,,,,,,,,,,,,,,,,,,,,,,,,,,,,,,,,,,,,,,,,,,,,,,,,,,
,,30,2,${e://Field/PROLIFIC_PID,F,18,2023-11-09_02h18.01.910,MouseEye_CC,2023.2.2,Win32,165.6726309,1.28,,,1920,1080,57.355,3.68,"146.32, 112.94, 131.39, 132.24, 181.3, 140.99, 158.87",627.38,10.01135249,36.84177716,27.83653633,Passed,123.4199535,,,,,,,,,,,,,,,,,,,,,practice,0,5,180,right,s,,,,,320.5869,321.0474,35.84,0,1,1,0,0,0.4604,fixationPoint,321.0474,321.1442,321.1442,321.811,35.84,10240,616.96,s,1,0.6619,,321.8111,322.0109,0,4,4,4,1,3,sparse,85,-19,-173,219,165,68,123,214,216,-160,68,-64,120,-226,34,162,-21,224,-216,167,-163,-167,-74,-224,-216,360,360,360,90,180,270,90,360,270,270,360,,,,,,,,,,,,,,,,,,,,,,,,,,,,,,,,,,,,,,,,,,,,,,,,,,,,,,,,,,,,,,,,,,,,,
,,30,2,${e://Field/PROLIFIC_PID,F,18,2023-11-09_02h18.01.910,MouseEye_CC,2023.2.2,Win32,165.6726309,1.28,,,1920,1080,57.355,3.68,"146.32, 112.94, 131.39, 132.24, 181.3, 140.99, 158.87",627.38,10.01135249,36.84177716,27.83653633,Passed,123.4199535,,,,,,,,,,,,,,,,,,,,,practice,0,6,180,right,s,,,,,322.0112,322.4411,35.84,0,1,1,0,0,0.4298,fixationPoint,322.4412,322.5383,322.5383,331.4412,35.84,10240,616.96,s,1,8.897,,331.4412,331.6413,0,5,5,5,1,3,sparse,95,-21,-224,126,172,219,165,166,26,-166,207,-223,206,-219,119,169,-75,18,-208,224,-216,-72,-121,-115,-130,180,180,360,180,360,180,270,180,90,180,360,,,,,,,,,,,,,,,,,,,,,,,,,,,,,,,,,,,,,,,,,,,,,,,,,,,,,,,,,,,,,,,,,,,,,
,,30,2,${e://Field/PROLIFIC_PID,F,18,2023-11-09_02h18.01.910,MouseEye_CC,2023.2.2,Win32,165.6726309,1.28,,,1920,1080,57.355,3.68,"146.32, 112.94, 131.39, 132.24, 181.3, 140.99, 158.87",627.38,10.01135249,36.84177716,27.83653633,Passed,123.4199535,,,,,,,,,,,,,,,,,,,,,practice,0,7,0,left,a,,,,,331.6415,332.0835,35.84,-11,6,1,0,0,0.4419,fixationPoint,332.0835,332.1807,332.1808,335.0958,35.84,10240,616.96,a,1,2.9125,,335.0958,335.2958,0,6,6,6,1,1,rich,7,62,223,-166,207,-226,34,-162,126,-169,-116,-168,-160,-161,-27,15,-162,162,-21,79,-175,219,165,219,129,180,180,360,180,270,360,180,360,270,180,360,,,,,,,,,,,,,,,,,,,,,,,,,,,,,,,,,,,,,,,,,,,,,,,,,,,,,,,,,,,,,,,,,,,,,
,,30,2,${e://Field/PROLIFIC_PID,F,18,2023-11-09_02h18.01.910,MouseEye_CC,2023.2.2,Win32,165.6726309,1.28,,,1920,1080,57.355,3.68,"146.32, 112.94, 131.39, 132.24, 181.3, 140.99, 158.87",627.38,10.01135249,36.84177716,27.83653633,Passed,123.4199535,,,,,,,,,,,,,,,,,,,,,practice,0,8,180,right,s,,,,,335.2961,335.617,35.84,-10,6,1,0,0,0.3209,fixationPoint,335.617,335.714,335.7141,338.4048,35.84,10240,616.96,s,1,2.6875,,338.4048,338.6049,0,7,7,7,1,2,sparse,24,-64,120,18,215,126,172,33,121,-206,-170,-64,-162,-218,-78,130,-174,211,-74,168,-130,-164,32,-21,162,90,180,270,360,180,90,180,180,180,360,270,,,,,,,,,,,,,,,,,,,,,,,,,,,,,,,,,,,,,,,,,,,,,,,,,,,,,,,,,,,,,,,,,,,,,
,,30,2,${e://Field/PROLIFIC_PID,F,18,2023-11-09_02h18.01.910,MouseEye_CC,2023.2.2,Win32,165.6726309,1.28,,,1920,1080,57.355,3.68,"146.32, 112.94, 131.39, 132.24, 181.3, 140.99, 158.87",627.38,10.01135249,36.84177716,27.83653633,Passed,123.4199535,,,,,,,,,,,,,,,,,,,,,practice,0,9,180,right,s,,,,,338.6051,338.9141,35.84,-10,6,1,0,0,0.3089,fixationPoint,338.9141,339.0109,339.0109,345.7444,35.84,10240,616.96,s,1,6.7281,,345.7445,345.9442,0,8,8,8,1,3,sparse,85,-19,-173,127,30,62,223,217,67,-110,82,-21,162,-80,218,167,-163,126,-79,130,-174,-125,-167,-68,-219,360,360,360,180,360,360,180,270,90,360,180,,,,,,,,,,,,,,,,,,,,,,,,,,,,,,,,,,,,,,,,,,,,,,,,,,,,,,,,,,,,,,,,,,,,,
,,30,2,${e://Field/PROLIFIC_PID,F,18,2023-11-09_02h18.01.910,MouseEye_CC,2023.2.2,Win32,165.6726309,1.28,,,1920,1080,57.355,3.68,"146.32, 112.94, 131.39, 132.24, 181.3, 140.99, 158.87",627.38,10.01135249,36.84177716,27.83653633,Passed,123.4199535,,,,,,,,,,,,,,,,,,,,,practice,0,10,180,right,s,,,,,345.9445,346.2654,35.84,-10,6,1,0,0,0.3209,fixationPoint,346.2654,346.3625,346.3625,349.2715,35.84,10240,616.96,s,1,2.9034,,349.2715,349.4714,0,9,9,9,1,1,rich,9,160,209,-166,207,-226,34,-120,223,-224,-120,-118,-217,-218,-78,112,-209,126,-113,169,-75,178,160,110,129,180,90,90,270,360,270,360,180,360,180,360,,,,,,,,,,,,,,,,,,,,,,,,,,,,,,,,,,,,,,,,,,,,,,,,,,,,,,,,,,,,,,,,,,,,,
,,30,2,${e://Field/PROLIFIC_PID,F,18,2023-11-09_02h18.01.910,MouseEye_CC,2023.2.2,Win32,165.6726309,1.28,,,1920,1080,57.355,3.68,"146.32, 112.94, 131.39, 132.24, 181.3, 140.99, 158.87",627.38,10.01135249,36.84177716,27.83653633,Passed,123.4199535,,,,,,,,,,,,,,,,,,,,,practice,0,11,180,right,s,,,,,349.4718,349.7626,35.84,-10,6,1,0,0,0.2907,fixationPoint,349.7626,349.8593,349.8594,350.9019,35.84,10240,616.96,s,1,1.0372,,350.902,351.1019,0,10,10,10,1,4,sparse,80,218,-129,62,223,159,121,110,129,-218,159,-223,206,-75,173,-169,-116,-118,-217,-125,-167,217,-164,169,-75,360,270,360,180,360,180,180,270,360,180,90,,,,,,,,,,,,,,,,,,,,,,,,,,,,,,,,,,,,,,,,,,,,,,,,,,,,,,,,,,,,,,,,,,,,,
,,30,2,${e://Field/PROLIFIC_PID,F,18,2023-11-09_02h18.01.910,MouseEye_CC,2023.2.2,Win32,165.6726309,1.28,,,1920,1080,57.355,3.68,"146.32, 112.94, 131.39, 132.24, 181.3, 140.99, 158.87",627.38,10.01135249,36.84177716,27.83653633,Passed,123.4199535,,,,,,,,,,,,,,,,,,,,,practice,0,12,0,left,a,,,,,351.1022,351.3443,35.84,-10,6,1,0,0,0.242,fixationPoint,351.3444,351.4413,351.4413,353.2835,35.84,10240,616.96,a,1,1.8383,,353.2837,353.4837,0,11,11,11,1,3,sparse,75,-25,-117,110,129,125,63,214,216,-164,32,-27,117,-126,125,171,-218,126,-113,167,-163,-21,-224,-212,-21,270,180,180,360,180,270,360,270,360,180,270,,,,,,,,,,,,,,,,,,,,,,,,,,,,,,,,,,,,,,,,,,,,,,,,,,,,,,,,,,,,,,,,,,,,,
,,30,2,${e://Field/PROLIFIC_PID,F,18,2023-11-09_02h18.01.910,MouseEye_CC,2023.2.2,Win32,165.6726309,1.28,,,1920,1080,57.355,3.68,"146.32, 112.94, 131.39, 132.24, 181.3, 140.99, 158.87",627.38,10.01135249,36.84177716,27.83653633,Passed,123.4199535,,,,,,,,,,,,,,,,,,,,,,,,,,,,,,,,,,,,,,,,,,,,,,,,,,,,,,,,,,,,,,,,,,,,,,,,,,,,,,,,,,,,,,,,,,,,,,,,,353.4842,358.0901,a,1,4.599,,,,,,,,,,,,,,,,,,,,,,,,,,,,,,,,,,,,,,,,,,,,,,,,,,,,,,,,,,,,,,,,
,,30,2,${e://Field/PROLIFIC_PID,F,18,2023-11-09_02h18.01.910,MouseEye_CC,2023.2.2,Win32,165.6726309,1.28,,,1920,1080,57.355,3.68,"146.32, 112.94, 131.39, 132.24, 181.3, 140.99, 158.87",627.38,10.01135249,36.84177716,27.83653633,Passed,123.4199535,,,,,,,,,,,,,,,,,,,,,,,,,,,,,,,,,,,,,,,,,,,,,,,,,,,,,,,,,,,,,,,,,,,,,,,,,,,,,,,,,,,,,,,,,,,,,,,,,,,,,,,358.0901,361.1141,,,,,,,,,,,,,,,,,,,,,,,,,,,,,,,,,,,,,,,,,,,,,,,,,,,,,,,,,,,,,
,,30,2,${e://Field/PROLIFIC_PID,F,18,2023-11-09_02h18.01.910,MouseEye_CC,2023.2.2,Win32,165.6726309,1.28,,,1920,1080,57.355,3.68,"146.32, 112.94, 131.39, 132.24, 181.3, 140.99, 158.87",627.38,10.01135249,36.84177716,27.83653633,Passed,123.4199535,,,,,,,,,,,,,,,,,,,,,,,,,,,,,,,,,,,,,,,,,,,,,,,,,,,,,,,,,,,,,,,,,,,,,,,,,,,,,,,,,,,,,,,,,,,,,,,,,,,,,,,,,361.1142,381.8658,,,,,,,,,,,,,,,,,,,,,,,,,,,,,,,,,,,,,,,,,,,,,,,,,,,,,,,,,,,
,,30,2,${e://Field/PROLIFIC_PID,F,18,2023-11-09_02h18.01.910,MouseEye_CC,2023.2.2,Win32,165.6726309,1.28,,,1920,1080,57.355,3.68,"146.32, 112.94, 131.39, 132.24, 181.3, 140.99, 158.87",627.38,10.01135249,36.84177716,27.83653633,Passed,123.4199535,,,,,,,,,,,,,,,,,,,,,training,1,1,0,left,a,,,,,381.9307,382.6716,35.84,0,3,1,0,0,0.7408,fixationPoint,382.6716,382.7684,382.7685,384.838,35.84,10240,616.96,a,1,2.0602,,384.838,385.0352,,,,,,,,52,-172,-25,176,169,28,125,218,208,-16,168,-128,119,-27,209,174,-28,73,-168,67,-216,-28,-23,-70,-128,270,180,270,270,270,90,270,90,360,90,270,,,,,,,,,,,385.0353,385.0371,,0,0,0,0,1,9,novel,,,,,,,,,,,,,,,,,,,,,,,,,,,,,,,,,,,,,,,,,,,,,,,,,
,,30,2,${e://Field/PROLIFIC_PID,F,18,2023-11-09_02h18.01.910,MouseEye_CC,2023.2.2,Win32,165.6726309,1.28,,,1920,1080,57.355,3.68,"146.32, 112.94, 131.39, 132.24, 181.3, 140.99, 158.87",627.38,10.01135249,36.84177716,27.83653633,Passed,123.4199535,,,,,,,,,,,,,,,,,,,,,training,1,2,180,right,s,,,,,385.0373,385.5045,35.84,0,3,1,0,0,0.4671,fixationPoint,385.5045,385.605,385.605,387.011,35.84,10240,616.96,s,1,1.3941,,387.0111,387.211,,,,,,,,23,-128,119,218,208,126,215,160,17,-172,-25,-69,-174,-70,-128,27,-28,121,-163,24,-171,-113,169,-67,174,360,90,360,360,360,180,180,90,360,270,180,,,,,,,,,,,387.2111,387.2112,,0,1,1,1,1,15,novel,,,,,,,,,,,,,,,,,,,,,,,,,,,,,,,,,,,,,,,,,,,,,,,,,
,,30,2,${e://Field/PROLIFIC_PID,F,18,2023-11-09_02h18.01.910,MouseEye_CC,2023.2.2,Win32,165.6726309,1.28,,,1920,1080,57.355,3.68,"146.32, 112.94, 131.39, 132.24, 181.3, 140.99, 158.87",627.38,10.01135249,36.84177716,27.83653633,Passed,123.4199535,,,,,,,,,,,,,,,,,,,,,training,1,3,180,right,s,,,,,387.2114,387.4354,35.84,0,3,1,0,0,0.2239,fixationPoint,387.4354,387.5322,387.5322,389.2837,35.84,10240,616.96,s,1,1.7451,,389.2837,389.4838,,,,,,,,16,23,172,-224,220,-128,215,-73,208,-72,-29,-112,-219,-120,-20,80,-30,68,-79,164,-128,77,220,176,169,270,180,360,180,90,90,90,360,270,90,360,,,,,,,,,,,389.4838,389.4839,,0,2,2,2,1,13,novel,,,,,,,,,,,,,,,,,,,,,,,,,,,,,,,,,,,,,,,,,,,,,,,,,
,,30,2,${e://Field/PROLIFIC_PID,F,18,2023-11-09_02h18.01.910,MouseEye_CC,2023.2.2,Win32,165.6726309,1.28,,,1920,1080,57.355,3.68,"146.32, 112.94, 131.39, 132.24, 181.3, 140.99, 158.87",627.38,10.01135249,36.84177716,27.83653633,Passed,123.4199535,,,,,,,,,,,,,,,,,,,,,training,1,4,0,left,a,,,,,389.4841,389.7044,35.84,0,3,1,0,0,0.2202,fixationPoint,389.7044,389.8075,389.8075,392.8417,35.84,10240,616.96,a,1,3.0277,,392.8417,393.0412,,,,,,,,49,160,17,-27,209,-216,168,-224,220,-30,-160,-172,-25,-169,-70,166,-160,116,-19,17,-72,212,166,176,169,180,270,360,270,180,90,360,180,270,270,270,,,,,,,,,,,393.0413,393.0413,,0,3,3,3,1,1,repeated,,,,,,,,,,,,,,,,,,,,,,,,,,,,,,,,,,,,,,,,,,,,,,,,,
,,30,2,${e://Field/PROLIFIC_PID,F,18,2023-11-09_02h18.01.910,MouseEye_CC,2023.2.2,Win32,165.6726309,1.28,,,1920,1080,57.355,3.68,"146.32, 112.94, 131.39, 132.24, 181.3, 140.99, 158.87",627.38,10.01135249,36.84177716,27.83653633,Passed,123.4199535,,,,,,,,,,,,,,,,,,,,,training,1,5,180,right,s,,,,,393.0416,393.2414,35.84,0,3,1,0,0,0.1997,fixationPoint,393.2414,393.3383,393.3383,396.3868,35.84,10240,616.96,s,1,3.036,,396.3869,396.5867,,,,,,,,32,-176,74,17,74,124,168,113,67,-70,-128,-72,-29,-209,-208,17,-72,167,-216,80,-30,-165,223,-78,20,180,90,360,270,180,360,270,90,90,270,270,,,,,,,,,,,396.5868,396.5869,,0,4,4,4,1,3,repeated,,,,,,,,,,,,,,,,,,,,,,,,,,,,,,,,,,,,,,,,,,,,,,,,,
,,30,2,${e://Field/PROLIFIC_PID,F,18,2023-11-09_02h18.01.910,MouseEye_CC,2023.2.2,Win32,165.6726309,1.28,,,1920,1080,57.355,3.68,"146.32, 112.94, 131.39, 132.24, 181.3, 140.99, 158.87",627.38,10.01135249,36.84177716,27.83653633,Passed,123.4199535,,,,,,,,,,,,,,,,,,,,,training,1,6,180,right,s,,,,,396.5871,396.7868,35.84,0,3,1,0,0,0.1995,fixationPoint,396.7868,396.8837,396.8837,399.2533,35.84,10240,616.96,s,1,2.3642,,399.2535,399.4535,,,,,,,,75,-27,-120,218,208,172,223,217,70,-216,29,-21,24,-161,172,118,-114,68,-79,121,-163,-72,-29,-114,-171,270,270,270,180,270,360,180,180,180,270,270,,,,,,,,,,,399.4535,399.4536,,0,5,5,5,1,6,repeated,,,,,,,,,,,,,,,,,,,,,,,,,,,,,,,,,,,,,,,,,,,,,,,,,
,,30,2,${e://Field/PROLIFIC_PID,F,18,2023-11-09_02h18.01.910,MouseEye_CC,2023.2.2,Win32,165.6726309,1.28,,,1920,1080,57.355,3.68,"146.32, 112.94, 131.39, 132.24, 181.3, 140.99, 158.87",627.38,10.01135249,36.84177716,27.83653633,Passed,123.4199535,,,,,,,,,,,,,,,,,,,,,training,1,7,0,left,a,,,,,399.4538,399.514,35.84,0,3,1,0,0,0.06,fixationPoint,399.514,399.6109,399.611,401.1443,35.84,10240,616.96,a,1,1.5254,,401.1443,401.3443,,,,,,,,68,124,-80,220,116,160,17,172,223,-165,32,-32,67,-216,75,-120,-122,-169,-70,-167,-126,17,-72,174,-78,360,180,270,360,360,360,270,360,360,90,270,,,,,,,,,,,401.3443,401.3446,,0,6,6,6,1,12,novel,,,,,,,,,,,,,,,,,,,,,,,,,,,,,,,,,,,,,,,,,,,,,,,,,
,,30,2,${e://Field/PROLIFIC_PID,F,18,2023-11-09_02h18.01.910,MouseEye_CC,2023.2.2,Win32,165.6726309,1.28,,,1920,1080,57.355,3.68,"146.32, 112.94, 131.39, 132.24, 181.3, 140.99, 158.87",627.38,10.01135249,36.84177716,27.83653633,Passed,123.4199535,,,,,,,,,,,,,,,,,,,,,training,1,8,0,left,a,,,,,401.3447,401.5626,35.84,0,3,1,0,0,0.2179,fixationPoint,401.5626,401.6595,401.6595,403.2111,35.84,10240,616.96,a,1,1.5461,,403.2111,403.4111,,,,,,,,3,-128,215,68,161,126,215,17,74,-120,-122,-209,-208,-112,-219,70,-118,20,-117,174,-28,-16,168,-216,29,360,180,180,270,180,270,90,360,90,360,90,,,,,,,,,,,403.4111,403.4113,,0,7,7,7,1,16,novel,,,,,,,,,,,,,,,,,,,,,,,,,,,,,,,,,,,,,,,,,,,,,,,,,
,,30,2,${e://Field/PROLIFIC_PID,F,18,2023-11-09_02h18.01.910,MouseEye_CC,2023.2.2,Win32,165.6726309,1.28,,,1920,1080,57.355,3.68,"146.32, 112.94, 131.39, 132.24, 181.3, 140.99, 158.87",627.38,10.01135249,36.84177716,27.83653633,Passed,123.4199535,,,,,,,,,,,,,,,,,,,,,training,1,9,0,left,a,,,,,403.4115,403.7746,35.84,0,3,1,0,0,0.3631,fixationPoint,403.7747,403.8715,403.8715,406.2171,35.84,10240,616.96,a,1,2.34,,406.2172,406.417,,,,,,,,98,125,-212,65,112,28,125,28,208,-216,75,-32,67,-216,29,-216,-17,-68,-213,-70,-128,118,-114,212,-76,360,180,90,360,90,270,180,360,360,360,270,,,,,,,,,,,406.4171,406.4171,,0,8,8,8,1,8,repeated,,,,,,,,,,,,,,,,,,,,,,,,,,,,,,,,,,,,,,,,,,,,,,,,,
,,30,2,${e://Field/PROLIFIC_PID,F,18,2023-11-09_02h18.01.910,MouseEye_CC,2023.2.2,Win32,165.6726309,1.28,,,1920,1080,57.355,3.68,"146.32, 112.94, 131.39, 132.24, 181.3, 140.99, 158.87",627.38,10.01135249,36.84177716,27.83653633,Passed,123.4199535,,,,,,,,,,,,,,,,,,,,,training,1,10,180,right,s,,,,,406.4174,406.4898,35.84,0,3,1,0,0,0.0724,fixationPoint,406.4898,406.5868,406.5869,407.5988,35.84,10240,616.96,s,1,1.0054,,407.5989,407.7988,,,,,,,,33,-125,65,212,166,176,169,65,112,-27,-120,-30,-160,-19,-219,17,-72,125,-212,167,-216,-16,168,-27,209,360,90,270,360,360,180,180,270,360,180,360,,,,,,,,,,,407.7988,407.799,,0,9,9,9,1,4,repeated,,,,,,,,,,,,,,,,,,,,,,,,,,,,,,,,,,,,,,,,,,,,,,,,,
,,30,2,${e://Field/PROLIFIC_PID,F,18,2023-11-09_02h18.01.910,MouseEye_CC,2023.2.2,Win32,165.6726309,1.28,,,1920,1080,57.355,3.68,"146.32, 112.94, 131.39, 132.24, 181.3, 140.99, 158.87",627.38,10.01135249,36.84177716,27.83653633,Passed,123.4199535,,,,,,,,,,,,,,,,,,,,,training,1,11,180,right,s,,,,,407.7992,408.0053,35.84,0,3,1,0,0,0.2059,fixationPoint,408.0053,408.1019,408.1019,409.211,35.84,10240,616.96,s,1,1.1036,,409.211,409.411,,,,,,,,85,-30,-160,223,16,160,17,120,28,-68,73,-118,29,-125,65,164,-128,167,-216,70,-118,-72,-29,-216,-17,270,360,360,90,270,270,90,180,180,360,270,,,,,,,,,,,409.411,409.4112,,0,10,10,10,1,5,repeated,,,,,,,,,,,,,,,,,,,,,,,,,,,,,,,,,,,,,,,,,,,,,,,,,
,,30,2,${e://Field/PROLIFIC_PID,F,18,2023-11-09_02h18.01.910,MouseEye_CC,2023.2.2,Win32,165.6726309,1.28,,,1920,1080,57.355,3.68,"146.32, 112.94, 131.39, 132.24, 181.3, 140.99, 158.87",627.38,10.01135249,36.84177716,27.83653633,Passed,123.4199535,,,,,,,,,,,,,,,,,,,,,training,1,12,180,right,s,,,,,409.4114,409.4964,35.84,0,3,1,0,0,0.0849,fixationPoint,409.4965,409.5928,409.5928,411.8839,35.84,10240,616.96,s,1,2.2857,,411.8839,412.0843,,,,,,,,39,165,68,-165,223,-27,209,-125,65,-112,-219,-128,-80,-224,-172,213,-25,67,-216,17,-72,17,74,212,166,360,90,270,90,90,90,360,180,360,360,90,,,,,,,,,,,412.0845,412.0852,,0,11,11,11,1,2,repeated,,,,,,,,,,,,,,,,,,,,,,,,,,,,,,,,,,,,,,,,,,,,,,,,,
,,30,2,${e://Field/PROLIFIC_PID,F,18,2023-11-09_02h18.01.910,MouseEye_CC,2023.2.2,Win32,165.6726309,1.28,,,1920,1080,57.355,3.68,"146.32, 112.94, 131.39, 132.24, 181.3, 140.99, 158.87",627.38,10.01135249,36.84177716,27.83653633,Passed,123.4199535,,,,,,,,,,,,,,,,,,,,,training,1,13,0,left,a,,,,,412.0861,412.3021,35.84,0,3,1,0,0,0.2158,fixationPoint,412.3021,412.3991,412.3991,414.9565,35.84,10240,616.96,a,1,2.5518,,414.9566,415.1565,,,,,,,,78,118,-114,220,116,17,74,165,118,-67,174,-216,29,-113,169,-19,-219,-224,-172,-209,-65,212,-76,80,-30,90,360,180,180,180,180,180,90,90,360,270,,,,,,,,,,,415.1565,415.1566,,0,12,12,12,1,7,repeated,,,,,,,,,,,,,,,,,,,,,,,,,,,,,,,,,,,,,,,,,,,,,,,,,
,,30,2,${e://Field/PROLIFIC_PID,F,18,2023-11-09_02h18.01.910,MouseEye_CC,2023.2.2,Win32,165.6726309,1.28,,,1920,1080,57.355,3.68,"146.32, 112.94, 131.39, 132.24, 181.3, 140.99, 158.87",627.38,10.01135249,36.84177716,27.83653633,Passed,123.4199535,,,,,,,,,,,,,,,,,,,,,training,1,14,0,left,a,,,,,415.1568,415.3687,35.84,0,3,1,0,0,0.2117,fixationPoint,415.3687,415.4656,415.4656,417.4413,35.84,10240,616.96,a,1,1.9705,,417.4413,417.6414,,,,,,,,69,174,-78,80,64,19,31,176,169,-32,67,-16,168,-216,168,-216,-17,-167,-126,-169,-70,121,-163,167,-216,90,360,180,360,360,360,180,360,360,360,270,,,,,,,,,,,417.6414,417.6415,,0,13,13,13,1,11,novel,,,,,,,,,,,,,,,,,,,,,,,,,,,,,,,,,,,,,,,,,,,,,,,,,
,,30,2,${e://Field/PROLIFIC_PID,F,18,2023-11-09_02h18.01.910,MouseEye_CC,2023.2.2,Win32,165.6726309,1.28,,,1920,1080,57.355,3.68,"146.32, 112.94, 131.39, 132.24, 181.3, 140.99, 158.87",627.38,10.01135249,36.84177716,27.83653633,Passed,123.4199535,,,,,,,,,,,,,,,,,,,,,training,1,15,180,right,s,,,,,417.6417,417.8594,35.84,0,3,1,0,0,0.2177,fixationPoint,417.8595,417.9565,417.9565,421.2605,35.84,10240,616.96,s,1,3.2967,,421.2606,421.4595,,,,,,,,62,-169,-70,65,112,28,208,165,118,-16,168,-221,115,-166,126,166,-160,213,-25,174,-78,-30,-160,-209,-65,270,270,90,270,180,270,90,360,180,180,180,,,,,,,,,,,421.4596,421.4596,,0,14,14,14,1,10,novel,,,,,,,,,,,,,,,,,,,,,,,,,,,,,,,,,,,,,,,,,,,,,,,,,
,,30,2,${e://Field/PROLIFIC_PID,F,18,2023-11-09_02h18.01.910,MouseEye_CC,2023.2.2,Win32,165.6726309,1.28,,,1920,1080,57.355,3.68,"146.32, 112.94, 131.39, 132.24, 181.3, 140.99, 158.87",627.38,10.01135249,36.84177716,27.83653633,Passed,123.4199535,,,,,,,,,,,,,,,,,,,,,training,1,16,0,left,a,,,,,421.4598,421.7047,35.84,0,3,1,0,0,0.2448,fixationPoint,421.7047,421.8011,421.8011,423.108,35.84,10240,616.96,a,1,1.2968,,423.108,423.308,,,,,,,,26,28,125,-78,114,-68,73,-166,126,-30,-69,-209,-208,-30,-160,166,-160,73,-168,80,-30,217,70,17,74,90,360,270,90,270,90,90,270,180,360,360,,,,,,,,,,,423.308,432.7263,space,0,15,15,15,1,14,novel,9.4052,,,,,,,,,,,,,,,,,,,,,,,,,,,,,,,,,,,,,,,,,,,,,,,,
,,30,2,${e://Field/PROLIFIC_PID,F,18,2023-11-09_02h18.01.910,MouseEye_CC,2023.2.2,Win32,165.6726309,1.28,,,1920,1080,57.355,3.68,"146.32, 112.94, 131.39, 132.24, 181.3, 140.99, 158.87",627.38,10.01135249,36.84177716,27.83653633,Passed,123.4199535,,,,,,,,,,,,,,,,,,,,,training,2,1,0,left,a,,,,,432.7327,433.4413,35.84,1,4,1,0,0,0.7085,fixationPoint,433.4413,433.5383,433.5383,435.9867,35.84,10240,616.96,a,1,2.4438,,435.9867,436.1868,,,,,,,,32,-176,74,17,74,124,168,113,67,-70,-128,-72,-29,-209,-208,17,-72,167,-216,80,-30,-165,223,-78,20,270,90,270,90,90,180,180,90,360,360,270,,,,,,,,,,,436.1868,436.1892,,0,16,16,16,1,3,repeated,,,,,,,,,,,,,,,,,,,,,,,,,,,,,,,,,,,,,,,,,,,,,,,,,
,,30,2,${e://Field/PROLIFIC_PID,F,18,2023-11-09_02h18.01.910,MouseEye_CC,2023.2.2,Win32,165.6726309,1.28,,,1920,1080,57.355,3.68,"146.32, 112.94, 131.39, 132.24, 181.3, 140.99, 158.87",627.38,10.01135249,36.84177716,27.83653633,Passed,123.4199535,,,,,,,,,,,,,,,,,,,,,training,2,2,180,right,s,,,,,436.1894,436.4414,35.84,1,4,1,0,0,0.252,fixationPoint,436.4414,436.5383,436.5383,438.9747,35.84,10240,616.96,s,1,2.43,,438.9747,439.1709,,,,,,,,98,125,-212,65,112,28,125,28,208,-216,75,-32,67,-216,29,-216,-17,-68,-213,-70,-128,118,-114,212,-76,360,270,360,270,180,90,180,180,90,270,90,,,,,,,,,,,439.171,439.171,,0,17,17,17,1,8,repeated,,,,,,,,,,,,,,,,,,,,,,,,,,,,,,,,,,,,,,,,,,,,,,,,,
,,30,2,${e://Field/PROLIFIC_PID,F,18,2023-11-09_02h18.01.910,MouseEye_CC,2023.2.2,Win32,165.6726309,1.28,,,1920,1080,57.355,3.68,"146.32, 112.94, 131.39, 132.24, 181.3, 140.99, 158.87",627.38,10.01135249,36.84177716,27.83653633,Passed,123.4199535,,,,,,,,,,,,,,,,,,,,,training,2,3,180,right,s,,,,,439.1713,439.314,35.84,1,4,1,0,0,0.1427,fixationPoint,439.314,439.4138,439.4138,442.9144,35.84,10240,616.96,s,1,3.4907,,442.9144,443.1142,,,,,,,,16,23,172,-32,67,-224,220,-161,172,-224,-172,-27,-120,-167,-126,68,-79,118,-114,174,-78,65,112,165,118,180,90,360,180,270,180,90,270,180,270,180,,,,,,,,,,,443.1142,443.1142,,0,18,18,18,1,13,novel,,,,,,,,,,,,,,,,,,,,,,,,,,,,,,,,,,,,,,,,,,,,,,,,,
,,30,2,${e://Field/PROLIFIC_PID,F,18,2023-11-09_02h18.01.910,MouseEye_CC,2023.2.2,Win32,165.6726309,1.28,,,1920,1080,57.355,3.68,"146.32, 112.94, 131.39, 132.24, 181.3, 140.99, 158.87",627.38,10.01135249,36.84177716,27.83653633,Passed,123.4199535,,,,,,,,,,,,,,,,,,,,,training,2,4,180,right,s,,,,,443.1145,443.2656,35.84,1,4,1,0,0,0.151,fixationPoint,443.2656,443.3651,443.3651,446.6778,35.84,10240,616.96,s,1,3.3036,,446.6778,446.8778,,,,,,,,62,-169,-70,160,17,17,74,223,16,-161,172,-68,73,-165,32,212,-212,27,-28,167,-216,-68,-70,-216,-17,270,180,270,180,360,270,360,90,90,360,270,,,,,,,,,,,446.8778,446.8779,,0,19,19,19,1,10,novel,,,,,,,,,,,,,,,,,,,,,,,,,,,,,,,,,,,,,,,,,,,,,,,,,
,,30,2,${e://Field/PROLIFIC_PID,F,18,2023-11-09_02h18.01.910,MouseEye_CC,2023.2.2,Win32,165.6726309,1.28,,,1920,1080,57.355,3.68,"146.32, 112.94, 131.39, 132.24, 181.3, 140.99, 158.87",627.38,10.01135249,36.84177716,27.83653633,Passed,123.4199535,,,,,,,,,,,,,,,,,,,,,training,2,5,0,left,a,,,,,446.8781,446.9322,35.84,1,4,1,0,0,0.0541,fixationPoint,446.9322,447.0294,447.0294,448.6959,35.84,10240,616.96,a,1,1.6609,,448.696,448.8959,,,,,,,,3,-128,215,160,17,120,28,176,169,-209,-208,-167,-126,-72,-29,68,-79,24,-171,25,-220,-73,208,-16,168,90,180,90,360,90,180,360,270,360,360,360,,,,,,,,,,,448.896,448.896,,0,20,20,20,1,16,novel,,,,,,,,,,,,,,,,,,,,,,,,,,,,,,,,,,,,,,,,,,,,,,,,,
,,30,2,${e://Field/PROLIFIC_PID,F,18,2023-11-09_02h18.01.910,MouseEye_CC,2023.2.2,Win32,165.6726309,1.28,,,1920,1080,57.355,3.68,"146.32, 112.94, 131.39, 132.24, 181.3, 140.99, 158.87",627.38,10.01135249,36.84177716,27.83653633,Passed,123.4199535,,,,,,,,,,,,,,,,,,,,,training,2,6,180,right,s,,,,,448.8962,449.102,35.84,1,4,1,0,0,0.2057,fixationPoint,449.102,449.1989,449.199,450.0171,35.84,10240,616.96,s,1,0.8126,,450.0172,450.2171,,,,,,,,52,-172,-25,165,118,77,220,220,116,-29,115,-32,67,-216,29,213,-25,118,-114,121,-163,-120,-20,-68,-70,270,90,270,90,180,90,270,90,180,90,360,,,,,,,,,,,450.2171,450.2173,,0,21,21,21,1,9,novel,,,,,,,,,,,,,,,,,,,,,,,,,,,,,,,,,,,,,,,,,,,,,,,,,
,,30,2,${e://Field/PROLIFIC_PID,F,18,2023-11-09_02h18.01.910,MouseEye_CC,2023.2.2,Win32,165.6726309,1.28,,,1920,1080,57.355,3.68,"146.32, 112.94, 131.39, 132.24, 181.3, 140.99, 158.87",627.38,10.01135249,36.84177716,27.83653633,Passed,123.4199535,,,,,,,,,,,,,,,,,,,,,training,2,7,0,left,a,,,,,450.2176,450.4353,35.84,1,4,1,0,0,0.2177,fixationPoint,450.4354,450.5323,450.5323,452.2171,35.84,10240,616.96,a,1,1.6822,,452.2171,452.4172,,,,,,,,26,28,125,-27,209,-166,126,-78,20,-224,-172,-30,-160,-30,-69,80,-30,174,-78,166,-160,165,118,76,22,270,180,90,360,90,180,360,360,180,90,270,,,,,,,,,,,452.4172,452.4172,,0,22,22,22,1,14,novel,,,,,,,,,,,,,,,,,,,,,,,,,,,,,,,,,,,,,,,,,,,,,,,,,
,,30,2,${e://Field/PROLIFIC_PID,F,18,2023-11-09_02h18.01.910,MouseEye_CC,2023.2.2,Win32,165.6726309,1.28,,,1920,1080,57.355,3.68,"146.32, 112.94, 131.39, 132.24, 181.3, 140.99, 158.87",627.38,10.01135249,36.84177716,27.83653633,Passed,123.4199535,,,,,,,,,,,,,,,,,,,,,training,2,8,0,left,a,,,,,452.4174,452.5626,35.84,1,4,1,0,0,0.1451,fixationPoint,452.5627,452.6596,452.6597,455.2474,35.84,10240,616.96,a,1,2.5834,,455.2474,455.4474,,,,,,,,49,160,17,-27,209,-216,168,-224,220,-30,-160,-172,-25,-169,-70,166,-160,116,-19,17,-72,212,166,176,169,90,90,270,180,180,270,90,270,360,270,90,,,,,,,,,,,455.4474,455.4476,,0,23,23,23,1,1,repeated,,,,,,,,,,,,,,,,,,,,,,,,,,,,,,,,,,,,,,,,,,,,,,,,,
,,30,2,${e://Field/PROLIFIC_PID,F,18,2023-11-09_02h18.01.910,MouseEye_CC,2023.2.2,Win32,165.6726309,1.28,,,1920,1080,57.355,3.68,"146.32, 112.94, 131.39, 132.24, 181.3, 140.99, 158.87",627.38,10.01135249,36.84177716,27.83653633,Passed,123.4199535,,,,,,,,,,,,,,,,,,,,,training,2,9,0,left,a,,,,,455.4478,455.5262,35.84,1,4,1,0,0,0.0783,fixationPoint,455.5262,455.6232,455.6232,458.2411,35.84,10240,616.96,a,1,2.6152,,458.2412,458.4432,,,,,,,,78,118,-114,220,116,17,74,165,118,-67,174,-216,29,-113,169,-19,-219,-224,-172,-209,-65,212,-76,80,-30,270,360,270,180,270,270,90,90,360,360,360,,,,,,,,,,,458.4432,458.4433,,0,24,24,24,1,7,repeated,,,,,,,,,,,,,,,,,,,,,,,,,,,,,,,,,,,,,,,,,,,,,,,,,
,,30,2,${e://Field/PROLIFIC_PID,F,18,2023-11-09_02h18.01.910,MouseEye_CC,2023.2.2,Win32,165.6726309,1.28,,,1920,1080,57.355,3.68,"146.32, 112.94, 131.39, 132.24, 181.3, 140.99, 158.87",627.38,10.01135249,36.84177716,27.83653633,Passed,123.4199535,,,,,,,,,,,,,,,,,,,,,training,2,10,0,left,a,,,,,458.4435,458.5445,35.84,1,4,1,0,0,0.101,fixationPoint,458.5445,458.6414,458.6414,459.502,35.84,10240,616.96,a,1,0.8506,,459.502,459.7021,,,,,,,,33,-125,65,212,166,176,169,65,112,-27,-120,-30,-160,-19,-219,17,-72,125,-212,167,-216,-16,168,-27,209,90,90,270,360,180,360,180,270,360,180,90,,,,,,,,,,,459.7022,459.7022,,0,25,25,25,1,4,repeated,,,,,,,,,,,,,,,,,,,,,,,,,,,,,,,,,,,,,,,,,,,,,,,,,
,,30,2,${e://Field/PROLIFIC_PID,F,18,2023-11-09_02h18.01.910,MouseEye_CC,2023.2.2,Win32,165.6726309,1.28,,,1920,1080,57.355,3.68,"146.32, 112.94, 131.39, 132.24, 181.3, 140.99, 158.87",627.38,10.01135249,36.84177716,27.83653633,Passed,123.4199535,,,,,,,,,,,,,,,,,,,,,training,2,11,180,right,s,,,,,459.7024,459.8899,35.84,1,4,1,0,0,0.1875,fixationPoint,459.8899,459.9868,459.9869,462.9445,35.84,10240,616.96,s,1,2.953,,462.9446,463.1445,,,,,,,,23,-128,119,220,116,119,117,120,28,-224,-172,-120,-122,-209,-65,118,-114,24,-171,166,-160,-165,32,-125,65,180,180,90,270,360,180,360,180,90,270,270,,,,,,,,,,,463.1445,463.1446,,0,26,26,26,1,15,novel,,,,,,,,,,,,,,,,,,,,,,,,,,,,,,,,,,,,,,,,,,,,,,,,,
,,30,2,${e://Field/PROLIFIC_PID,F,18,2023-11-09_02h18.01.910,MouseEye_CC,2023.2.2,Win32,165.6726309,1.28,,,1920,1080,57.355,3.68,"146.32, 112.94, 131.39, 132.24, 181.3, 140.99, 158.87",627.38,10.01135249,36.84177716,27.83653633,Passed,123.4199535,,,,,,,,,,,,,,,,,,,,,training,2,12,180,right,s,,,,,463.1449,463.3627,35.84,1,4,1,0,0,0.2177,fixationPoint,463.3627,463.4596,463.4596,465.1202,35.84,10240,616.96,s,1,1.6547,,465.1204,465.3203,,,,,,,,85,-30,-160,223,16,160,17,120,28,-68,73,-118,29,-125,65,164,-128,167,-216,70,-118,-72,-29,-216,-17,270,180,270,360,90,180,180,90,360,360,90,,,,,,,,,,,465.3203,465.3204,,0,27,27,27,1,5,repeated,,,,,,,,,,,,,,,,,,,,,,,,,,,,,,,,,,,,,,,,,,,,,,,,,
,,30,2,${e://Field/PROLIFIC_PID,F,18,2023-11-09_02h18.01.910,MouseEye_CC,2023.2.2,Win32,165.6726309,1.28,,,1920,1080,57.355,3.68,"146.32, 112.94, 131.39, 132.24, 181.3, 140.99, 158.87",627.38,10.01135249,36.84177716,27.83653633,Passed,123.4199535,,,,,,,,,,,,,,,,,,,,,training,2,13,180,right,s,,,,,465.3206,465.3808,35.84,1,4,1,0,0,0.0601,fixationPoint,465.3808,465.4777,465.4777,468.0595,35.84,10240,616.96,s,1,2.5756,,468.0596,468.256,,,,,,,,69,174,-78,212,166,160,17,113,67,-161,172,-21,24,-78,20,-209,-65,-120,-122,-30,-69,68,-79,213,-25,180,180,360,90,180,360,270,90,180,180,180,,,,,,,,,,,468.256,468.2561,,0,28,28,28,1,11,novel,,,,,,,,,,,,,,,,,,,,,,,,,,,,,,,,,,,,,,,,,,,,,,,,,
,,30,2,${e://Field/PROLIFIC_PID,F,18,2023-11-09_02h18.01.910,MouseEye_CC,2023.2.2,Win32,165.6726309,1.28,,,1920,1080,57.355,3.68,"146.32, 112.94, 131.39, 132.24, 181.3, 140.99, 158.87",627.38,10.01135249,36.84177716,27.83653633,Passed,123.4199535,,,,,,,,,,,,,,,,,,,,,training,2,14,0,left,a,,,,,468.2563,468.3262,35.84,1,4,1,0,0,0.0699,fixationPoint,468.3262,468.4233,468.4233,470.0233,35.84,10240,616.96,a,1,1.5899,,470.0233,470.2232,,,,,,,,75,-27,-120,218,208,172,223,217,70,-216,29,-21,24,-161,172,118,-114,68,-79,121,-163,-72,-29,-114,-171,180,90,90,270,180,270,180,180,360,180,360,,,,,,,,,,,470.2232,470.2233,,0,29,29,29,1,6,repeated,,,,,,,,,,,,,,,,,,,,,,,,,,,,,,,,,,,,,,,,,,,,,,,,,
,,30,2,${e://Field/PROLIFIC_PID,F,18,2023-11-09_02h18.01.910,MouseEye_CC,2023.2.2,Win32,165.6726309,1.28,,,1920,1080,57.355,3.68,"146.32, 112.94, 131.39, 132.24, 181.3, 140.99, 158.87",627.38,10.01135249,36.84177716,27.83653633,Passed,123.4199535,,,,,,,,,,,,,,,,,,,,,training,2,15,180,right,s,,,,,470.2235,470.3142,35.84,1,4,1,0,0,0.0906,fixationPoint,470.3142,470.4112,470.4112,472.6414,35.84,10240,616.96,s,1,2.2214,,472.6414,472.8415,,,,,,,,39,165,68,-165,223,-27,209,-125,65,-112,-219,-128,-80,-224,-172,213,-25,67,-216,17,-72,17,74,212,166,270,90,90,180,270,270,90,270,90,90,270,,,,,,,,,,,472.8415,472.8416,,0,30,30,30,1,2,repeated,,,,,,,,,,,,,,,,,,,,,,,,,,,,,,,,,,,,,,,,,,,,,,,,,
,,30,2,${e://Field/PROLIFIC_PID,F,18,2023-11-09_02h18.01.910,MouseEye_CC,2023.2.2,Win32,165.6726309,1.28,,,1920,1080,57.355,3.68,"146.32, 112.94, 131.39, 132.24, 181.3, 140.99, 158.87",627.38,10.01135249,36.84177716,27.83653633,Passed,123.4199535,,,,,,,,,,,,,,,,,,,,,training,2,16,0,left,a,,,,,472.8419,472.8718,35.84,1,4,1,0,0,0.0297,fixationPoint,472.8718,472.9687,472.9688,478.7408,35.84,10240,616.96,a,1,5.7695,,478.7408,478.9384,,,,,,,,68,124,-80,28,125,212,166,77,220,-113,169,-128,215,-216,29,-120,-20,-68,-70,-209,-208,166,-160,167,-216,360,270,360,270,360,180,360,270,270,360,360,,,,,,,,,,,478.9385,482.5505,space,0,31,31,31,1,12,novel,3.6004,,,,,,,,,,,,,,,,,,,,,,,,,,,,,,,,,,,,,,,,,,,,,,,,
,,30,2,${e://Field/PROLIFIC_PID,F,18,2023-11-09_02h18.01.910,MouseEye_CC,2023.2.2,Win32,165.6726309,1.28,,,1920,1080,57.355,3.68,"146.32, 112.94, 131.39, 132.24, 181.3, 140.99, 158.87",627.38,10.01135249,36.84177716,27.83653633,Passed,123.4199535,,,,,,,,,,,,,,,,,,,,,training,3,1,180,right,s,,,,,482.5508,483.3869,35.84,-8,1,1,0,0,0.836,fixationPoint,483.387,483.4838,483.4839,484.5087,35.84,10240,616.96,s,1,1.0214,,484.5088,484.7083,,,,,,,,75,-27,-120,218,208,172,223,217,70,-216,29,-21,24,-161,172,118,-114,68,-79,121,-163,-72,-29,-114,-171,90,90,180,270,360,270,270,360,180,90,360,,,,,,,,,,,484.7083,484.7108,,0,32,32,32,1,6,repeated,,,,,,,,,,,,,,,,,,,,,,,,,,,,,,,,,,,,,,,,,,,,,,,,,
,,30,2,${e://Field/PROLIFIC_PID,F,18,2023-11-09_02h18.01.910,MouseEye_CC,2023.2.2,Win32,165.6726309,1.28,,,1920,1080,57.355,3.68,"146.32, 112.94, 131.39, 132.24, 181.3, 140.99, 158.87",627.38,10.01135249,36.84177716,27.83653633,Passed,123.4199535,,,,,,,,,,,,,,,,,,,,,training,3,2,0,left,a,,,,,484.7109,484.902,35.84,-12,-10,1,0,0,0.1911,fixationPoint,484.9021,484.9991,484.9991,486.6778,35.84,10240,616.96,a,1,1.6741,,486.6778,486.8778,,,,,,,,78,118,-114,220,116,17,74,165,118,-67,174,-216,29,-113,169,-19,-219,-224,-172,-209,-65,212,-76,80,-30,180,90,90,90,360,180,270,90,180,180,270,,,,,,,,,,,486.8778,486.8779,,0,33,33,33,1,7,repeated,,,,,,,,,,,,,,,,,,,,,,,,,,,,,,,,,,,,,,,,,,,,,,,,,
,,30,2,${e://Field/PROLIFIC_PID,F,18,2023-11-09_02h18.01.910,MouseEye_CC,2023.2.2,Win32,165.6726309,1.28,,,1920,1080,57.355,3.68,"146.32, 112.94, 131.39, 132.24, 181.3, 140.99, 158.87",627.38,10.01135249,36.84177716,27.83653633,Passed,123.4199535,,,,,,,,,,,,,,,,,,,,,training,3,3,180,right,s,,,,,486.8781,486.9689,35.84,-14,-10,1,0,0,0.0907,fixationPoint,486.9689,487.0658,487.0658,488.7445,35.84,10240,616.96,s,1,1.6732,,488.7445,488.9445,,,,,,,,26,28,125,-67,174,-113,169,-176,74,-68,-70,-216,-17,-224,-172,116,-19,73,-168,124,-80,119,117,120,28,270,180,90,360,180,270,90,180,180,180,270,,,,,,,,,,,488.9445,488.9446,,0,34,34,34,1,14,novel,,,,,,,,,,,,,,,,,,,,,,,,,,,,,,,,,,,,,,,,,,,,,,,,,
,,30,2,${e://Field/PROLIFIC_PID,F,18,2023-11-09_02h18.01.910,MouseEye_CC,2023.2.2,Win32,165.6726309,1.28,,,1920,1080,57.355,3.68,"146.32, 112.94, 131.39, 132.24, 181.3, 140.99, 158.87",627.38,10.01135249,36.84177716,27.83653633,Passed,123.4199535,,,,,,,,,,,,,,,,,,,,,training,3,4,180,right,s,,,,,488.9448,488.993,35.84,-14,-10,1,0,0,0.0481,fixationPoint,488.993,489.09,489.09,492.0626,35.84,10240,616.96,s,1,2.9699,,492.0626,492.262,,,,,,,,33,-125,65,212,166,176,169,65,112,-27,-120,-30,-160,-19,-219,17,-72,125,-212,167,-216,-16,168,-27,209,180,90,90,270,90,360,360,360,90,360,90,,,,,,,,,,,492.262,492.2621,,0,35,35,35,1,4,repeated,,,,,,,,,,,,,,,,,,,,,,,,,,,,,,,,,,,,,,,,,,,,,,,,,
,,30,2,${e://Field/PROLIFIC_PID,F,18,2023-11-09_02h18.01.910,MouseEye_CC,2023.2.2,Win32,165.6726309,1.28,,,1920,1080,57.355,3.68,"146.32, 112.94, 131.39, 132.24, 181.3, 140.99, 158.87",627.38,10.01135249,36.84177716,27.83653633,Passed,123.4199535,,,,,,,,,,,,,,,,,,,,,training,3,5,0,left,a,,,,,492.2624,492.3991,35.84,-14,-10,1,0,0,0.1366,fixationPoint,492.3992,492.4961,492.4961,493.9264,35.84,10240,616.96,a,1,1.4264,,493.9264,494.1263,,,,,,,,49,160,17,-27,209,-216,168,-224,220,-30,-160,-172,-25,-169,-70,166,-160,116,-19,17,-72,212,166,176,169,270,180,360,270,90,180,180,180,90,360,360,,,,,,,,,,,494.1263,494.1264,,0,36,36,36,1,1,repeated,,,,,,,,,,,,,,,,,,,,,,,,,,,,,,,,,,,,,,,,,,,,,,,,,
,,30,2,${e://Field/PROLIFIC_PID,F,18,2023-11-09_02h18.01.910,MouseEye_CC,2023.2.2,Win32,165.6726309,1.28,,,1920,1080,57.355,3.68,"146.32, 112.94, 131.39, 132.24, 181.3, 140.99, 158.87",627.38,10.01135249,36.84177716,27.83653633,Passed,123.4199535,,,,,,,,,,,,,,,,,,,,,training,3,6,0,left,a,,,,,494.1267,494.2901,35.84,-16,-10,1,0,0,0.1634,fixationPoint,494.2901,494.3869,494.387,495.4657,35.84,10240,616.96,a,1,1.0754,,495.4657,495.6658,,,,,,,,23,-128,119,19,31,28,208,218,208,-209,-65,-120,-122,-30,-160,118,-114,17,-72,212,-212,-78,20,-161,172,90,270,270,90,90,270,180,180,270,360,360,,,,,,,,,,,495.6658,495.6659,,0,37,37,37,1,15,novel,,,,,,,,,,,,,,,,,,,,,,,,,,,,,,,,,,,,,,,,,,,,,,,,,
,,30,2,${e://Field/PROLIFIC_PID,F,18,2023-11-09_02h18.01.910,MouseEye_CC,2023.2.2,Win32,165.6726309,1.28,,,1920,1080,57.355,3.68,"146.32, 112.94, 131.39, 132.24, 181.3, 140.99, 158.87",627.38,10.01135249,36.84177716,27.83653633,Passed,123.4199535,,,,,,,,,,,,,,,,,,,,,training,3,7,180,right,s,,,,,495.6662,495.902,35.84,0,-4,1,0,0,0.2357,fixationPoint,495.902,495.999,495.999,498.8416,35.84,10240,616.96,s,1,2.8347,,498.8416,499.0415,,,,,,,,3,-128,215,165,118,212,166,120,28,-175,-212,-27,-120,-209,-208,164,-128,221,-160,17,-72,-216,75,-73,208,180,90,180,180,360,180,180,360,270,270,360,,,,,,,,,,,499.0415,499.0416,,0,38,38,38,1,16,novel,,,,,,,,,,,,,,,,,,,,,,,,,,,,,,,,,,,,,,,,,,,,,,,,,
,,30,2,${e://Field/PROLIFIC_PID,F,18,2023-11-09_02h18.01.910,MouseEye_CC,2023.2.2,Win32,165.6726309,1.28,,,1920,1080,57.355,3.68,"146.32, 112.94, 131.39, 132.24, 181.3, 140.99, 158.87",627.38,10.01135249,36.84177716,27.83653633,Passed,123.4199535,,,,,,,,,,,,,,,,,,,,,training,3,8,0,left,a,,,,,499.0418,499.1506,35.84,-6,-4,1,0,0,0.1088,fixationPoint,499.1507,499.2475,499.2475,501.2475,35.84,10240,616.96,a,1,1.9942,,501.2475,501.4475,,,,,,,,69,174,-78,223,16,80,64,77,220,-78,20,-165,223,-16,168,-224,-172,-120,-20,-170,-172,213,-25,70,-118,270,270,90,270,360,360,270,180,180,180,360,,,,,,,,,,,501.4475,501.4476,,0,39,39,39,1,11,novel,,,,,,,,,,,,,,,,,,,,,,,,,,,,,,,,,,,,,,,,,,,,,,,,,
,,30,2,${e://Field/PROLIFIC_PID,F,18,2023-11-09_02h18.01.910,MouseEye_CC,2023.2.2,Win32,165.6726309,1.28,,,1920,1080,57.355,3.68,"146.32, 112.94, 131.39, 132.24, 181.3, 140.99, 158.87",627.38,10.01135249,36.84177716,27.83653633,Passed,123.4199535,,,,,,,,,,,,,,,,,,,,,training,3,9,0,left,a,,,,,501.4479,501.5386,35.84,-8,-5,1,0,0,0.0907,fixationPoint,501.5386,501.6352,501.6352,502.9383,35.84,10240,616.96,a,1,1.2998,,502.9384,503.1385,,,,,,,,52,-172,-25,65,112,28,125,68,161,-216,29,-21,24,-73,208,116,-19,27,-28,212,-76,-30,-69,-120,-20,180,90,180,90,360,90,360,180,360,180,90,,,,,,,,,,,503.1385,503.1386,,0,40,40,40,1,9,novel,,,,,,,,,,,,,,,,,,,,,,,,,,,,,,,,,,,,,,,,,,,,,,,,,
,,30,2,${e://Field/PROLIFIC_PID,F,18,2023-11-09_02h18.01.910,MouseEye_CC,2023.2.2,Win32,165.6726309,1.28,,,1920,1080,57.355,3.68,"146.32, 112.94, 131.39, 132.24, 181.3, 140.99, 158.87",627.38,10.01135249,36.84177716,27.83653633,Passed,123.4199535,,,,,,,,,,,,,,,,,,,,,training,3,10,180,right,s,,,,,503.1389,503.3203,35.84,-8,-5,1,0,0,0.1813,fixationPoint,503.3204,503.4172,503.4172,505.1108,35.84,10240,616.96,s,1,1.6891,,505.1108,505.3081,,,,,,,,85,-30,-160,223,16,160,17,120,28,-68,73,-118,29,-125,65,164,-128,167,-216,70,-118,-72,-29,-216,-17,180,270,270,360,360,90,180,360,270,180,360,,,,,,,,,,,505.3081,505.3081,,0,41,41,41,1,5,repeated,,,,,,,,,,,,,,,,,,,,,,,,,,,,,,,,,,,,,,,,,,,,,,,,,
,,30,2,${e://Field/PROLIFIC_PID,F,18,2023-11-09_02h18.01.910,MouseEye_CC,2023.2.2,Win32,165.6726309,1.28,,,1920,1080,57.355,3.68,"146.32, 112.94, 131.39, 132.24, 181.3, 140.99, 158.87",627.38,10.01135249,36.84177716,27.83653633,Passed,123.4199535,,,,,,,,,,,,,,,,,,,,,training,3,11,180,right,s,,,,,505.3083,505.3868,35.84,-8,-5,1,0,0,0.0785,fixationPoint,505.3869,505.4838,505.4838,510.2294,35.84,10240,616.96,s,1,4.7349,,510.2294,510.4294,,,,,,,,62,-169,-70,28,125,28,208,126,215,-128,215,-68,73,-113,169,27,-28,121,-163,125,-212,-167,-126,-114,-171,180,360,180,90,90,90,270,90,180,270,90,,,,,,,,,,,510.4294,510.4295,,0,42,42,42,1,10,novel,,,,,,,,,,,,,,,,,,,,,,,,,,,,,,,,,,,,,,,,,,,,,,,,,
,,30,2,${e://Field/PROLIFIC_PID,F,18,2023-11-09_02h18.01.910,MouseEye_CC,2023.2.2,Win32,165.6726309,1.28,,,1920,1080,57.355,3.68,"146.32, 112.94, 131.39, 132.24, 181.3, 140.99, 158.87",627.38,10.01135249,36.84177716,27.83653633,Passed,123.4199535,,,,,,,,,,,,,,,,,,,,,training,3,12,0,left,a,,,,,510.4297,510.5567,35.84,-8,-5,1,0,0,0.1269,fixationPoint,510.5567,510.6537,510.6537,512.9991,35.84,10240,616.96,a,1,2.3397,,512.9991,513.199,,,,,,,,68,124,-80,80,64,28,208,126,215,-27,209,-165,223,-176,74,-27,-120,-210,-124,-209,-65,67,-216,70,-118,270,90,270,270,90,270,180,180,180,270,360,,,,,,,,,,,513.199,513.1991,,0,43,43,43,1,12,novel,,,,,,,,,,,,,,,,,,,,,,,,,,,,,,,,,,,,,,,,,,,,,,,,,
,,30,2,${e://Field/PROLIFIC_PID,F,18,2023-11-09_02h18.01.910,MouseEye_CC,2023.2.2,Win32,165.6726309,1.28,,,1920,1080,57.355,3.68,"146.32, 112.94, 131.39, 132.24, 181.3, 140.99, 158.87",627.38,10.01135249,36.84177716,27.83653633,Passed,123.4199535,,,,,,,,,,,,,,,,,,,,,training,3,13,0,left,a,,,,,513.1993,513.3627,35.84,-8,-5,1,0,0,0.1633,fixationPoint,513.3627,513.4595,513.4595,515.1688,35.84,10240,616.96,a,1,1.705,,515.1688,515.3687,,,,,,,,39,165,68,-165,223,-27,209,-125,65,-112,-219,-128,-80,-224,-172,213,-25,67,-216,17,-72,17,74,212,166,270,180,180,270,90,360,360,360,90,90,360,,,,,,,,,,,515.3689,515.3689,,0,44,44,44,1,2,repeated,,,,,,,,,,,,,,,,,,,,,,,,,,,,,,,,,,,,,,,,,,,,,,,,,
,,30,2,${e://Field/PROLIFIC_PID,F,18,2023-11-09_02h18.01.910,MouseEye_CC,2023.2.2,Win32,165.6726309,1.28,,,1920,1080,57.355,3.68,"146.32, 112.94, 131.39, 132.24, 181.3, 140.99, 158.87",627.38,10.01135249,36.84177716,27.83653633,Passed,123.4199535,,,,,,,,,,,,,,,,,,,,,training,3,14,180,right,s,,,,,515.3692,515.593,35.84,-8,-5,1,0,0,0.2237,fixationPoint,515.593,515.6899,515.6899,518.6414,35.84,10240,616.96,s,1,2.9484,,518.6414,518.8415,,,,,,,,32,-176,74,17,74,124,168,113,67,-70,-128,-72,-29,-209,-208,17,-72,167,-216,80,-30,-165,223,-78,20,360,360,360,180,180,180,360,360,90,360,360,,,,,,,,,,,518.8415,518.8416,,0,45,45,45,1,3,repeated,,,,,,,,,,,,,,,,,,,,,,,,,,,,,,,,,,,,,,,,,,,,,,,,,
,,30,2,${e://Field/PROLIFIC_PID,F,18,2023-11-09_02h18.01.910,MouseEye_CC,2023.2.2,Win32,165.6726309,1.28,,,1920,1080,57.355,3.68,"146.32, 112.94, 131.39, 132.24, 181.3, 140.99, 158.87",627.38,10.01135249,36.84177716,27.83653633,Passed,123.4199535,,,,,,,,,,,,,,,,,,,,,training,3,15,180,right,s,,,,,518.8418,519.0536,35.84,-8,-5,1,0,0,0.2117,fixationPoint,519.0536,519.1505,519.1505,521.393,35.84,10240,616.96,s,1,2.2373,,521.393,521.593,,,,,,,,16,23,172,-67,174,-128,119,-78,114,-128,-80,-224,-172,-120,-20,27,-28,20,-117,118,-114,28,125,68,161,180,360,180,270,360,270,90,180,180,360,90,,,,,,,,,,,521.593,521.5931,,0,46,46,46,1,13,novel,,,,,,,,,,,,,,,,,,,,,,,,,,,,,,,,,,,,,,,,,,,,,,,,,
,,30,2,${e://Field/PROLIFIC_PID,F,18,2023-11-09_02h18.01.910,MouseEye_CC,2023.2.2,Win32,165.6726309,1.28,,,1920,1080,57.355,3.68,"146.32, 112.94, 131.39, 132.24, 181.3, 140.99, 158.87",627.38,10.01135249,36.84177716,27.83653633,Passed,123.4199535,,,,,,,,,,,,,,,,,,,,,training,3,16,0,left,a,,,,,521.5933,521.7112,35.84,-8,-5,1,0,0,0.1177,fixationPoint,521.7112,521.8112,521.8112,524.702,35.84,10240,616.96,a,1,2.878,,524.7021,524.9022,,,,,,,,98,125,-212,65,112,28,125,28,208,-216,75,-32,67,-216,29,-216,-17,-68,-213,-70,-128,118,-114,212,-76,270,270,360,90,90,360,270,90,270,360,270,,,,,,,,,,,524.9022,528.193,space,0,47,47,47,1,8,repeated,3.2798,,,,,,,,,,,,,,,,,,,,,,,,,,,,,,,,,,,,,,,,,,,,,,,,
,,30,2,${e://Field/PROLIFIC_PID,F,18,2023-11-09_02h18.01.910,MouseEye_CC,2023.2.2,Win32,165.6726309,1.28,,,1920,1080,57.355,3.68,"146.32, 112.94, 131.39, 132.24, 181.3, 140.99, 158.87",627.38,10.01135249,36.84177716,27.83653633,Passed,123.4199535,,,,,,,,,,,,,,,,,,,,,training,4,1,0,left,a,,,,,528.1932,529.4656,35.84,-1,2,1,0,0,1.2722,fixationPoint,529.4656,529.5628,529.5628,532.1264,35.84,10240,616.96,a,1,2.5579,,532.1264,532.3263,,,,,,,,78,118,-114,220,116,17,74,165,118,-67,174,-216,29,-113,169,-19,-219,-224,-172,-209,-65,212,-76,80,-30,180,360,270,360,90,180,270,90,360,270,360,,,,,,,,,,,532.3263,532.329,,0,48,48,48,1,7,repeated,,,,,,,,,,,,,,,,,,,,,,,,,,,,,,,,,,,,,,,,,,,,,,,,,
,,30,2,${e://Field/PROLIFIC_PID,F,18,2023-11-09_02h18.01.910,MouseEye_CC,2023.2.2,Win32,165.6726309,1.28,,,1920,1080,57.355,3.68,"146.32, 112.94, 131.39, 132.24, 181.3, 140.99, 158.87",627.38,10.01135249,36.84177716,27.83653633,Passed,123.4199535,,,,,,,,,,,,,,,,,,,,,training,4,2,180,right,s,,,,,532.3292,532.5567,35.84,-3,13,1,0,0,0.2274,fixationPoint,532.5568,532.6535,532.6536,534.605,35.84,10240,616.96,s,1,1.945,,534.605,534.8052,,,,,,,,16,23,172,-68,73,-78,114,-166,126,-128,-80,-210,-124,-112,-219,124,-80,212,-76,17,-72,76,22,28,125,180,90,270,90,360,270,180,270,90,90,90,,,,,,,,,,,534.8052,534.8052,,0,49,49,49,1,13,novel,,,,,,,,,,,,,,,,,,,,,,,,,,,,,,,,,,,,,,,,,,,,,,,,,
,,30,2,${e://Field/PROLIFIC_PID,F,18,2023-11-09_02h18.01.910,MouseEye_CC,2023.2.2,Win32,165.6726309,1.28,,,1920,1080,57.355,3.68,"146.32, 112.94, 131.39, 132.24, 181.3, 140.99, 158.87",627.38,10.01135249,36.84177716,27.83653633,Passed,123.4199535,,,,,,,,,,,,,,,,,,,,,training,4,3,180,right,s,,,,,534.8055,535.284,35.84,-2,9,1,0,0,0.4785,fixationPoint,535.284,535.3808,535.3808,537.7567,35.84,10240,616.96,s,1,2.3706,,537.7568,537.9567,,,,,,,,52,-172,-25,160,17,172,223,65,112,-68,73,-73,208,-21,24,213,-25,68,-79,208,-120,-28,-23,-30,-160,360,90,270,360,180,90,90,360,360,90,270,,,,,,,,,,,537.9567,537.9568,,0,50,50,50,1,9,novel,,,,,,,,,,,,,,,,,,,,,,,,,,,,,,,,,,,,,,,,,,,,,,,,,
,,30,2,${e://Field/PROLIFIC_PID,F,18,2023-11-09_02h18.01.910,MouseEye_CC,2023.2.2,Win32,165.6726309,1.28,,,1920,1080,57.355,3.68,"146.32, 112.94, 131.39, 132.24, 181.3, 140.99, 158.87",627.38,10.01135249,36.84177716,27.83653633,Passed,123.4199535,,,,,,,,,,,,,,,,,,,,,training,4,4,180,right,s,,,,,537.957,538.1688,35.84,2,0,1,0,0,0.2118,fixationPoint,538.1688,538.2658,538.2658,540.0295,35.84,10240,616.96,s,1,1.7579,,540.0295,540.2294,,,,,,,,98,125,-212,65,112,28,125,28,208,-216,75,-32,67,-216,29,-216,-17,-68,-213,-70,-128,118,-114,212,-76,90,360,180,180,180,270,360,90,270,90,90,,,,,,,,,,,540.2294,540.2295,,0,51,51,51,1,8,repeated,,,,,,,,,,,,,,,,,,,,,,,,,,,,,,,,,,,,,,,,,,,,,,,,,
,,30,2,${e://Field/PROLIFIC_PID,F,18,2023-11-09_02h18.01.910,MouseEye_CC,2023.2.2,Win32,165.6726309,1.28,,,1920,1080,57.355,3.68,"146.32, 112.94, 131.39, 132.24, 181.3, 140.99, 158.87",627.38,10.01135249,36.84177716,27.83653633,Passed,123.4199535,,,,,,,,,,,,,,,,,,,,,training,4,5,180,right,s,,,,,540.2297,540.5148,35.84,2,0,1,0,0,0.2849,fixationPoint,540.5148,540.6112,540.6113,544.181,35.84,10240,616.96,s,1,3.5609,,544.181,544.3809,,,,,,,,32,-176,74,17,74,124,168,113,67,-70,-128,-72,-29,-209,-208,17,-72,167,-216,80,-30,-165,223,-78,20,180,270,270,180,90,270,270,90,180,180,90,,,,,,,,,,,544.3809,544.381,,0,52,52,52,1,3,repeated,,,,,,,,,,,,,,,,,,,,,,,,,,,,,,,,,,,,,,,,,,,,,,,,,
,,30,2,${e://Field/PROLIFIC_PID,F,18,2023-11-09_02h18.01.910,MouseEye_CC,2023.2.2,Win32,165.6726309,1.28,,,1920,1080,57.355,3.68,"146.32, 112.94, 131.39, 132.24, 181.3, 140.99, 158.87",627.38,10.01135249,36.84177716,27.83653633,Passed,123.4199535,,,,,,,,,,,,,,,,,,,,,training,4,6,180,right,s,,,,,544.3813,544.4476,35.84,2,0,1,0,0,0.0663,fixationPoint,544.4476,544.5445,544.5446,547.4839,35.84,10240,616.96,s,1,2.9342,,547.4839,547.6809,,,,,,,,49,160,17,-27,209,-216,168,-224,220,-30,-160,-172,-25,-169,-70,166,-160,116,-19,17,-72,212,166,176,169,360,270,90,270,360,90,270,90,360,360,360,,,,,,,,,,,547.6809,547.681,,0,53,53,53,1,1,repeated,,,,,,,,,,,,,,,,,,,,,,,,,,,,,,,,,,,,,,,,,,,,,,,,,
,,30,2,${e://Field/PROLIFIC_PID,F,18,2023-11-09_02h18.01.910,MouseEye_CC,2023.2.2,Win32,165.6726309,1.28,,,1920,1080,57.355,3.68,"146.32, 112.94, 131.39, 132.24, 181.3, 140.99, 158.87",627.38,10.01135249,36.84177716,27.83653633,Passed,123.4199535,,,,,,,,,,,,,,,,,,,,,training,4,7,0,left,a,,,,,547.6812,548.0354,35.84,2,0,1,0,0,0.3541,fixationPoint,548.0354,548.1352,548.1352,549.5444,35.84,10240,616.96,a,1,1.4006,,549.5445,549.7446,,,,,,,,23,-128,119,65,112,124,168,23,172,-210,-124,-19,-219,-70,-128,212,-212,17,-72,24,-171,-224,220,-128,215,90,360,360,90,180,90,180,180,360,270,90,,,,,,,,,,,549.7446,549.7447,,0,54,54,54,1,15,novel,,,,,,,,,,,,,,,,,,,,,,,,,,,,,,,,,,,,,,,,,,,,,,,,,
,,30,2,${e://Field/PROLIFIC_PID,F,18,2023-11-09_02h18.01.910,MouseEye_CC,2023.2.2,Win32,165.6726309,1.28,,,1920,1080,57.355,3.68,"146.32, 112.94, 131.39, 132.24, 181.3, 140.99, 158.87",627.38,10.01135249,36.84177716,27.83653633,Passed,123.4199535,,,,,,,,,,,,,,,,,,,,,training,4,8,0,left,a,,,,,549.7449,549.8779,35.84,2,0,1,0,0,0.1329,fixationPoint,549.878,549.975,549.9751,552.9445,35.84,10240,616.96,a,1,2.9635,,552.9446,553.1446,,,,,,,,69,174,-78,77,220,19,31,165,68,-161,172,-216,75,-125,65,-68,-70,-72,-29,-209,-65,125,-212,73,-168,360,90,270,180,90,180,360,180,360,180,180,,,,,,,,,,,553.1446,553.1449,,0,55,55,55,1,11,novel,,,,,,,,,,,,,,,,,,,,,,,,,,,,,,,,,,,,,,,,,,,,,,,,,
,,30,2,${e://Field/PROLIFIC_PID,F,18,2023-11-09_02h18.01.910,MouseEye_CC,2023.2.2,Win32,165.6726309,1.28,,,1920,1080,57.355,3.68,"146.32, 112.94, 131.39, 132.24, 181.3, 140.99, 158.87",627.38,10.01135249,36.84177716,27.83653633,Passed,123.4199535,,,,,,,,,,,,,,,,,,,,,training,4,9,0,left,a,,,,,553.145,553.2053,35.84,2,0,1,0,0,0.0602,fixationPoint,553.2053,553.3022,553.3022,554.5932,35.84,10240,616.96,a,1,1.2864,,554.5932,554.793,,,,,,,,62,-169,-70,212,166,176,169,165,118,-125,65,-73,208,-118,29,164,-128,121,-163,25,-220,-170,-172,-19,-219,180,360,180,270,360,270,270,360,90,90,90,,,,,,,,,,,554.7931,554.7931,,0,56,56,56,1,10,novel,,,,,,,,,,,,,,,,,,,,,,,,,,,,,,,,,,,,,,,,,,,,,,,,,
,,30,2,${e://Field/PROLIFIC_PID,F,18,2023-11-09_02h18.01.910,MouseEye_CC,2023.2.2,Win32,165.6726309,1.28,,,1920,1080,57.355,3.68,"146.32, 112.94, 131.39, 132.24, 181.3, 140.99, 158.87",627.38,10.01135249,36.84177716,27.83653633,Passed,123.4199535,,,,,,,,,,,,,,,,,,,,,training,4,10,180,right,s,,,,,554.7933,554.9448,35.84,2,0,1,0,0,0.1513,fixationPoint,554.9448,555.0415,555.0415,556.5567,35.84,10240,616.96,s,1,1.5072,,556.5568,556.7567,,,,,,,,26,28,125,-67,174,-128,215,-161,172,-216,-17,-70,-128,-209,-208,17,-72,213,-25,25,-220,77,220,212,166,90,90,360,360,180,360,270,90,270,90,360,,,,,,,,,,,556.7567,556.7568,,0,57,57,57,1,14,novel,,,,,,,,,,,,,,,,,,,,,,,,,,,,,,,,,,,,,,,,,,,,,,,,,
,,30,2,${e://Field/PROLIFIC_PID,F,18,2023-11-09_02h18.01.910,MouseEye_CC,2023.2.2,Win32,165.6726309,1.28,,,1920,1080,57.355,3.68,"146.32, 112.94, 131.39, 132.24, 181.3, 140.99, 158.87",627.38,10.01135249,36.84177716,27.83653633,Passed,123.4199535,,,,,,,,,,,,,,,,,,,,,training,4,11,0,left,a,,,,,556.7571,556.781,35.84,2,0,1,0,0,0.0239,fixationPoint,556.781,556.8779,556.8779,557.9715,35.84,10240,616.96,a,1,1.0905,,557.9715,558.1712,,,,,,,,33,-125,65,212,166,176,169,65,112,-27,-120,-30,-160,-19,-219,17,-72,125,-212,167,-216,-16,168,-27,209,360,270,180,180,180,90,270,180,270,360,180,,,,,,,,,,,558.1712,558.1713,,0,58,58,58,1,4,repeated,,,,,,,,,,,,,,,,,,,,,,,,,,,,,,,,,,,,,,,,,,,,,,,,,
,,30,2,${e://Field/PROLIFIC_PID,F,18,2023-11-09_02h18.01.910,MouseEye_CC,2023.2.2,Win32,165.6726309,1.28,,,1920,1080,57.355,3.68,"146.32, 112.94, 131.39, 132.24, 181.3, 140.99, 158.87",627.38,10.01135249,36.84177716,27.83653633,Passed,123.4199535,,,,,,,,,,,,,,,,,,,,,training,4,12,0,left,a,,,,,558.1716,558.3353,35.84,2,0,1,0,0,0.1636,fixationPoint,558.3353,558.4321,558.4322,559.7021,35.84,10240,616.96,a,1,1.2627,,559.7022,559.9022,,,,,,,,68,124,-80,113,67,76,22,220,116,-128,215,-78,114,-128,119,-209,-208,-224,-172,-72,-29,164,-128,212,-212,270,270,270,90,90,180,90,90,360,90,180,,,,,,,,,,,559.9022,559.9023,,0,59,59,59,1,12,novel,,,,,,,,,,,,,,,,,,,,,,,,,,,,,,,,,,,,,,,,,,,,,,,,,
,,30,2,${e://Field/PROLIFIC_PID,F,18,2023-11-09_02h18.01.910,MouseEye_CC,2023.2.2,Win32,165.6726309,1.28,,,1920,1080,57.355,3.68,"146.32, 112.94, 131.39, 132.24, 181.3, 140.99, 158.87",627.38,10.01135249,36.84177716,27.83653633,Passed,123.4199535,,,,,,,,,,,,,,,,,,,,,training,4,13,0,left,a,,,,,559.9026,559.981,35.84,2,0,1,0,0,0.0783,fixationPoint,559.981,560.0778,560.0779,561.9143,35.84,10240,616.96,a,1,1.8308,,561.9143,562.1142,,,,,,,,39,165,68,-165,223,-27,209,-125,65,-112,-219,-128,-80,-224,-172,213,-25,67,-216,17,-72,17,74,212,166,180,270,90,180,180,360,180,360,270,90,360,,,,,,,,,,,562.1142,562.1143,,0,60,60,60,1,2,repeated,,,,,,,,,,,,,,,,,,,,,,,,,,,,,,,,,,,,,,,,,,,,,,,,,
,,30,2,${e://Field/PROLIFIC_PID,F,18,2023-11-09_02h18.01.910,MouseEye_CC,2023.2.2,Win32,165.6726309,1.28,,,1920,1080,57.355,3.68,"146.32, 112.94, 131.39, 132.24, 181.3, 140.99, 158.87",627.38,10.01135249,36.84177716,27.83653633,Passed,123.4199535,,,,,,,,,,,,,,,,,,,,,training,4,14,180,right,s,,,,,562.1145,562.2658,35.84,2,0,1,0,0,0.1511,fixationPoint,562.2658,562.3627,562.3627,563.5263,35.84,10240,616.96,s,1,1.1558,,563.5263,563.7264,,,,,,,,85,-30,-160,223,16,160,17,120,28,-68,73,-118,29,-125,65,164,-128,167,-216,70,-118,-72,-29,-216,-17,270,90,90,90,90,180,360,360,360,180,270,,,,,,,,,,,563.7265,563.7265,,0,61,61,61,1,5,repeated,,,,,,,,,,,,,,,,,,,,,,,,,,,,,,,,,,,,,,,,,,,,,,,,,
,,30,2,${e://Field/PROLIFIC_PID,F,18,2023-11-09_02h18.01.910,MouseEye_CC,2023.2.2,Win32,165.6726309,1.28,,,1920,1080,57.355,3.68,"146.32, 112.94, 131.39, 132.24, 181.3, 140.99, 158.87",627.38,10.01135249,36.84177716,27.83653633,Passed,123.4199535,,,,,,,,,,,,,,,,,,,,,training,4,15,0,left,a,,,,,563.7268,563.8598,35.84,2,0,1,0,0,0.133,fixationPoint,563.8598,563.9567,563.9567,566.1021,35.84,10240,616.96,a,1,2.1412,,566.1022,566.3022,,,,,,,,3,-128,215,165,68,212,166,19,31,-128,-80,-170,-172,-120,-122,118,-114,221,-160,20,-117,-125,65,-161,172,270,360,180,90,270,270,270,270,180,180,360,,,,,,,,,,,566.3022,566.3023,,0,62,62,62,1,16,novel,,,,,,,,,,,,,,,,,,,,,,,,,,,,,,,,,,,,,,,,,,,,,,,,,
,,30,2,${e://Field/PROLIFIC_PID,F,18,2023-11-09_02h18.01.910,MouseEye_CC,2023.2.2,Win32,165.6726309,1.28,,,1920,1080,57.355,3.68,"146.32, 112.94, 131.39, 132.24, 181.3, 140.99, 158.87",627.38,10.01135249,36.84177716,27.83653633,Passed,123.4199535,,,,,,,,,,,,,,,,,,,,,training,4,16,180,right,s,,,,,566.3025,566.4294,35.84,2,0,1,0,0,0.1269,fixationPoint,566.4295,566.5263,566.5263,568.0719,35.84,10240,616.96,s,1,1.5398,,568.0719,568.2718,,,,,,,,75,-27,-120,218,208,172,223,217,70,-216,29,-21,24,-161,172,118,-114,68,-79,121,-163,-72,-29,-114,-171,180,270,270,90,180,90,360,180,360,180,270,,,,,,,,,,,568.2718,575.4718,space,0,63,63,63,1,6,repeated,7.1916,,,,,,,,,,,,,,,,,,,,,,,,,,,,,,,,,,,,,,,,,,,,,,,,
,,30,2,${e://Field/PROLIFIC_PID,F,18,2023-11-09_02h18.01.910,MouseEye_CC,2023.2.2,Win32,165.6726309,1.28,,,1920,1080,57.355,3.68,"146.32, 112.94, 131.39, 132.24, 181.3, 140.99, 158.87",627.38,10.01135249,36.84177716,27.83653633,Passed,123.4199535,,,,,,,,,,,,,,,,,,,,,training,5,1,180,right,s,,,,,575.4781,576.6537,35.84,7,1,1,0,0,1.1755,fixationPoint,576.6537,576.7508,576.7508,577.6113,35.84,10240,616.96,s,1,0.8567,,577.6113,577.8112,,,,,,,,62,-169,-70,19,31,65,112,124,168,-165,223,-78,20,-128,119,124,-80,164,-128,208,-120,-30,-160,-216,-17,90,90,180,360,360,90,270,360,360,90,90,,,,,,,,,,,577.8113,577.8142,,0,64,64,64,1,10,novel,,,,,,,,,,,,,,,,,,,,,,,,,,,,,,,,,,,,,,,,,,,,,,,,,
,,30,2,${e://Field/PROLIFIC_PID,F,18,2023-11-09_02h18.01.910,MouseEye_CC,2023.2.2,Win32,165.6726309,1.28,,,1920,1080,57.355,3.68,"146.32, 112.94, 131.39, 132.24, 181.3, 140.99, 158.87",627.38,10.01135249,36.84177716,27.83653633,Passed,123.4199535,,,,,,,,,,,,,,,,,,,,,training,5,2,0,left,a,,,,,577.8144,578.0354,35.84,-1,-4,1,0,0,0.2209,fixationPoint,578.0354,578.1325,578.1325,581.5507,35.84,10240,616.96,a,1,3.4122,,581.5507,581.7506,,,,,,,,68,124,-80,120,28,218,208,124,168,-67,174,-68,73,-27,209,-120,-20,-216,-17,-209,-208,121,-163,68,-79,180,90,270,360,360,270,90,270,90,90,270,,,,,,,,,,,581.7507,581.7508,,0,65,65,65,1,12,novel,,,,,,,,,,,,,,,,,,,,,,,,,,,,,,,,,,,,,,,,,,,,,,,,,
,,30,2,${e://Field/PROLIFIC_PID,F,18,2023-11-09_02h18.01.910,MouseEye_CC,2023.2.2,Win32,165.6726309,1.28,,,1920,1080,57.355,3.68,"146.32, 112.94, 131.39, 132.24, 181.3, 140.99, 158.87",627.38,10.01135249,36.84177716,27.83653633,Passed,123.4199535,,,,,,,,,,,,,,,,,,,,,training,5,3,0,left,a,,,,,581.751,581.8597,35.84,-8,-8,1,0,0,0.1087,fixationPoint,581.8598,581.9567,581.9567,583.0416,35.84,10240,616.96,a,1,1.0773,,583.0416,583.2416,,,,,,,,85,-30,-160,223,16,160,17,120,28,-68,73,-118,29,-125,65,164,-128,167,-216,70,-118,-72,-29,-216,-17,90,180,360,270,360,180,360,360,90,180,90,,,,,,,,,,,583.2417,583.2417,,0,66,66,66,1,5,repeated,,,,,,,,,,,,,,,,,,,,,,,,,,,,,,,,,,,,,,,,,,,,,,,,,
,,30,2,${e://Field/PROLIFIC_PID,F,18,2023-11-09_02h18.01.910,MouseEye_CC,2023.2.2,Win32,165.6726309,1.28,,,1920,1080,57.355,3.68,"146.32, 112.94, 131.39, 132.24, 181.3, 140.99, 158.87",627.38,10.01135249,36.84177716,27.83653633,Passed,123.4199535,,,,,,,,,,,,,,,,,,,,,training,5,4,0,left,a,,,,,583.2423,583.4355,35.84,-8,-8,1,0,0,0.1931,fixationPoint,583.4355,583.5325,583.5325,585.4053,35.84,10240,616.96,a,1,1.867,,585.4053,585.6052,,,,,,,,26,28,125,-27,209,-165,32,-224,220,-172,-25,-68,-213,-30,-160,25,-220,208,-120,166,-160,160,17,80,64,90,180,180,270,180,180,90,180,90,270,180,,,,,,,,,,,585.6053,585.6053,,0,67,67,67,1,14,novel,,,,,,,,,,,,,,,,,,,,,,,,,,,,,,,,,,,,,,,,,,,,,,,,,
,,30,2,${e://Field/PROLIFIC_PID,F,18,2023-11-09_02h18.01.910,MouseEye_CC,2023.2.2,Win32,165.6726309,1.28,,,1920,1080,57.355,3.68,"146.32, 112.94, 131.39, 132.24, 181.3, 140.99, 158.87",627.38,10.01135249,36.84177716,27.83653633,Passed,123.4199535,,,,,,,,,,,,,,,,,,,,,training,5,5,0,left,a,,,,,585.6056,585.7325,35.84,-9,-9,1,0,0,0.1269,fixationPoint,585.7326,585.8295,585.8295,589.3202,35.84,10240,616.96,a,1,3.4879,,589.3203,589.5204,,,,,,,,32,-176,74,17,74,124,168,113,67,-70,-128,-72,-29,-209,-208,17,-72,167,-216,80,-30,-165,223,-78,20,270,180,180,180,270,90,90,180,270,90,90,,,,,,,,,,,589.5204,589.5205,,0,68,68,68,1,3,repeated,,,,,,,,,,,,,,,,,,,,,,,,,,,,,,,,,,,,,,,,,,,,,,,,,
,,30,2,${e://Field/PROLIFIC_PID,F,18,2023-11-09_02h18.01.910,MouseEye_CC,2023.2.2,Win32,165.6726309,1.28,,,1920,1080,57.355,3.68,"146.32, 112.94, 131.39, 132.24, 181.3, 140.99, 158.87",627.38,10.01135249,36.84177716,27.83653633,Passed,123.4199535,,,,,,,,,,,,,,,,,,,,,training,5,6,180,right,s,,,,,589.5207,589.7203,35.84,-10,-12,1,0,0,0.1996,fixationPoint,589.7203,589.8175,589.8175,592.8719,35.84,10240,616.96,s,1,3.0495,,592.8719,593.0719,,,,,,,,98,125,-212,65,112,28,125,28,208,-216,75,-32,67,-216,29,-216,-17,-68,-213,-70,-128,118,-114,212,-76,360,90,180,90,90,360,270,270,270,180,360,,,,,,,,,,,593.072,593.072,,0,69,69,69,1,8,repeated,,,,,,,,,,,,,,,,,,,,,,,,,,,,,,,,,,,,,,,,,,,,,,,,,
,,30,2,${e://Field/PROLIFIC_PID,F,18,2023-11-09_02h18.01.910,MouseEye_CC,2023.2.2,Win32,165.6726309,1.28,,,1920,1080,57.355,3.68,"146.32, 112.94, 131.39, 132.24, 181.3, 140.99, 158.87",627.38,10.01135249,36.84177716,27.83653633,Passed,123.4199535,,,,,,,,,,,,,,,,,,,,,training,5,7,0,left,a,,,,,593.0723,593.2841,35.84,-13,-13,1,0,0,0.2117,fixationPoint,593.2841,593.381,593.381,594.4961,35.84,10240,616.96,a,1,1.1122,,594.4961,594.6962,,,,,,,,52,-172,-25,223,16,218,208,19,31,-216,29,-113,169,-165,32,221,-160,25,-220,27,-28,-224,-172,-209,-65,270,90,270,270,270,90,180,180,180,360,90,,,,,,,,,,,594.6962,594.6962,,0,70,70,70,1,9,novel,,,,,,,,,,,,,,,,,,,,,,,,,,,,,,,,,,,,,,,,,,,,,,,,,
,,30,2,${e://Field/PROLIFIC_PID,F,18,2023-11-09_02h18.01.910,MouseEye_CC,2023.2.2,Win32,165.6726309,1.28,,,1920,1080,57.355,3.68,"146.32, 112.94, 131.39, 132.24, 181.3, 140.99, 158.87",627.38,10.01135249,36.84177716,27.83653633,Passed,123.4199535,,,,,,,,,,,,,,,,,,,,,training,5,8,180,right,s,,,,,594.6965,594.8961,35.84,-14,-14,1,0,0,0.1994,fixationPoint,594.8961,594.9932,594.9932,595.9871,35.84,10240,616.96,s,1,0.9881,,595.9871,596.1871,,,,,,,,78,118,-114,220,116,17,74,165,118,-67,174,-216,29,-113,169,-19,-219,-224,-172,-209,-65,212,-76,80,-30,270,180,180,360,360,90,90,90,180,90,360,,,,,,,,,,,596.1871,596.1873,,0,71,71,71,1,7,repeated,,,,,,,,,,,,,,,,,,,,,,,,,,,,,,,,,,,,,,,,,,,,,,,,,
,,30,2,${e://Field/PROLIFIC_PID,F,18,2023-11-09_02h18.01.910,MouseEye_CC,2023.2.2,Win32,165.6726309,1.28,,,1920,1080,57.355,3.68,"146.32, 112.94, 131.39, 132.24, 181.3, 140.99, 158.87",627.38,10.01135249,36.84177716,27.83653633,Passed,123.4199535,,,,,,,,,,,,,,,,,,,,,training,5,9,180,right,s,,,,,596.1875,596.3386,35.84,3,-10,1,0,0,0.1511,fixationPoint,596.3386,596.4356,596.4356,598.499,35.84,10240,616.96,s,1,2.061,,598.499,598.6988,,,,,,,,39,165,68,-165,223,-27,209,-125,65,-112,-219,-128,-80,-224,-172,213,-25,67,-216,17,-72,17,74,212,166,180,90,270,90,270,360,360,90,180,270,90,,,,,,,,,,,598.6988,598.6989,,0,72,72,72,1,2,repeated,,,,,,,,,,,,,,,,,,,,,,,,,,,,,,,,,,,,,,,,,,,,,,,,,
,,30,2,${e://Field/PROLIFIC_PID,F,18,2023-11-09_02h18.01.910,MouseEye_CC,2023.2.2,Win32,165.6726309,1.28,,,1920,1080,57.355,3.68,"146.32, 112.94, 131.39, 132.24, 181.3, 140.99, 158.87",627.38,10.01135249,36.84177716,27.83653633,Passed,123.4199535,,,,,,,,,,,,,,,,,,,,,training,5,10,180,right,s,,,,,598.699,598.8745,35.84,3,-10,1,0,0,0.1754,fixationPoint,598.8745,598.9775,598.9776,600.9751,35.84,10240,616.96,s,1,1.9891,,600.9751,601.175,,,,,,,,69,174,-78,165,68,217,70,68,161,-165,223,-224,220,-27,209,-167,-126,-170,-172,-68,-70,221,-160,17,-72,180,90,360,180,360,180,180,180,360,270,180,,,,,,,,,,,601.1751,601.1751,,0,73,73,73,1,11,novel,,,,,,,,,,,,,,,,,,,,,,,,,,,,,,,,,,,,,,,,,,,,,,,,,
,,30,2,${e://Field/PROLIFIC_PID,F,18,2023-11-09_02h18.01.910,MouseEye_CC,2023.2.2,Win32,165.6726309,1.28,,,1920,1080,57.355,3.68,"146.32, 112.94, 131.39, 132.24, 181.3, 140.99, 158.87",627.38,10.01135249,36.84177716,27.83653633,Passed,123.4199535,,,,,,,,,,,,,,,,,,,,,training,5,11,180,right,s,,,,,601.1754,601.3325,35.84,1,-11,1,0,0,0.157,fixationPoint,601.3325,601.4294,601.4294,602.3022,35.84,10240,616.96,s,1,0.8671,,602.3023,602.5023,,,,,,,,75,-27,-120,218,208,172,223,217,70,-216,29,-21,24,-161,172,118,-114,68,-79,121,-163,-72,-29,-114,-171,360,90,360,180,180,180,180,180,180,270,270,,,,,,,,,,,602.5023,602.5023,,0,74,74,74,1,6,repeated,,,,,,,,,,,,,,,,,,,,,,,,,,,,,,,,,,,,,,,,,,,,,,,,,
,,30,2,${e://Field/PROLIFIC_PID,F,18,2023-11-09_02h18.01.910,MouseEye_CC,2023.2.2,Win32,165.6726309,1.28,,,1920,1080,57.355,3.68,"146.32, 112.94, 131.39, 132.24, 181.3, 140.99, 158.87",627.38,10.01135249,36.84177716,27.83653633,Passed,123.4199535,,,,,,,,,,,,,,,,,,,,,training,5,12,180,right,s,,,,,602.5026,602.7143,35.84,1,-11,1,0,0,0.2117,fixationPoint,602.7144,602.8113,602.8113,604.5991,35.84,10240,616.96,s,1,1.7834,,604.5991,604.7991,,,,,,,,49,160,17,-27,209,-216,168,-224,220,-30,-160,-172,-25,-169,-70,166,-160,116,-19,17,-72,212,166,176,169,270,270,360,90,180,90,180,270,90,360,180,,,,,,,,,,,604.7992,604.7993,,0,75,75,75,1,1,repeated,,,,,,,,,,,,,,,,,,,,,,,,,,,,,,,,,,,,,,,,,,,,,,,,,
,,30,2,${e://Field/PROLIFIC_PID,F,18,2023-11-09_02h18.01.910,MouseEye_CC,2023.2.2,Win32,165.6726309,1.28,,,1920,1080,57.355,3.68,"146.32, 112.94, 131.39, 132.24, 181.3, 140.99, 158.87",627.38,10.01135249,36.84177716,27.83653633,Passed,123.4199535,,,,,,,,,,,,,,,,,,,,,training,5,13,0,left,a,,,,,604.7994,604.8658,35.84,1,-11,1,0,0,0.0664,fixationPoint,604.8658,604.9627,604.9627,606.0719,35.84,10240,616.96,a,1,1.0995,,606.072,606.2719,,,,,,,,23,-128,119,113,67,119,117,212,166,-19,-219,-120,-20,-216,-17,118,-114,80,-30,125,-212,-78,20,-21,24,270,90,90,90,270,270,360,180,90,270,90,,,,,,,,,,,606.2719,606.2721,,0,76,76,76,1,15,novel,,,,,,,,,,,,,,,,,,,,,,,,,,,,,,,,,,,,,,,,,,,,,,,,,
,,30,2,${e://Field/PROLIFIC_PID,F,18,2023-11-09_02h18.01.910,MouseEye_CC,2023.2.2,Win32,165.6726309,1.28,,,1920,1080,57.355,3.68,"146.32, 112.94, 131.39, 132.24, 181.3, 140.99, 158.87",627.38,10.01135249,36.84177716,27.83653633,Passed,123.4199535,,,,,,,,,,,,,,,,,,,,,training,5,14,0,left,a,,,,,606.2722,606.478,35.84,1,-11,1,0,0,0.2057,fixationPoint,606.478,606.5749,606.575,607.7264,35.84,10240,616.96,a,1,1.1458,,607.7266,607.9265,,,,,,,,16,23,172,-32,67,-68,73,-16,168,-167,-126,-30,-160,-28,-23,118,-114,221,-160,166,-160,68,161,65,112,90,90,270,180,180,90,270,90,180,360,360,,,,,,,,,,,607.9265,607.9266,,0,77,77,77,1,13,novel,,,,,,,,,,,,,,,,,,,,,,,,,,,,,,,,,,,,,,,,,,,,,,,,,
,,30,2,${e://Field/PROLIFIC_PID,F,18,2023-11-09_02h18.01.910,MouseEye_CC,2023.2.2,Win32,165.6726309,1.28,,,1920,1080,57.355,3.68,"146.32, 112.94, 131.39, 132.24, 181.3, 140.99, 158.87",627.38,10.01135249,36.84177716,27.83653633,Passed,123.4199535,,,,,,,,,,,,,,,,,,,,,training,5,15,180,right,s,,,,,607.9268,608.0234,35.84,1,-11,1,0,0,0.0964,fixationPoint,608.0234,608.1204,608.1204,611.1603,35.84,10240,616.96,s,1,3.0373,,611.1603,611.3562,,,,,,,,3,-128,215,80,64,65,112,217,70,-210,-124,-27,-120,-120,-20,125,-212,80,-30,67,-216,-67,174,-118,29,270,180,360,90,90,270,90,360,270,360,180,,,,,,,,,,,611.3562,611.3563,,0,78,78,78,1,16,novel,,,,,,,,,,,,,,,,,,,,,,,,,,,,,,,,,,,,,,,,,,,,,,,,,
,,30,2,${e://Field/PROLIFIC_PID,F,18,2023-11-09_02h18.01.910,MouseEye_CC,2023.2.2,Win32,165.6726309,1.28,,,1920,1080,57.355,3.68,"146.32, 112.94, 131.39, 132.24, 181.3, 140.99, 158.87",627.38,10.01135249,36.84177716,27.83653633,Passed,123.4199535,,,,,,,,,,,,,,,,,,,,,training,5,16,0,left,a,,,,,611.3565,611.496,35.84,1,-11,1,0,0,0.1394,fixationPoint,611.496,611.593,611.593,612.5812,35.84,10240,616.96,a,1,0.9822,,612.5812,612.7811,,,,,,,,33,-125,65,212,166,176,169,65,112,-27,-120,-30,-160,-19,-219,17,-72,125,-212,167,-216,-16,168,-27,209,270,180,180,90,360,270,360,180,180,360,180,,,,,,,,,,,612.7811,616.0174,space,0,79,79,79,1,4,repeated,3.2249,,,,,,,,,,,,,,,,,,,,,,,,,,,,,,,,,,,,,,,,,,,,,,,,
,,30,2,${e://Field/PROLIFIC_PID,F,18,2023-11-09_02h18.01.910,MouseEye_CC,2023.2.2,Win32,165.6726309,1.28,,,1920,1080,57.355,3.68,"146.32, 112.94, 131.39, 132.24, 181.3, 140.99, 158.87",627.38,10.01135249,36.84177716,27.83653633,Passed,123.4199535,,,,,,,,,,,,,,,,,,,,,training,6,1,180,right,s,,,,,616.0233,617.0234,35.84,0,-8,1,0,0,0.9999,fixationPoint,617.0234,617.1205,617.1205,618.4416,35.84,10240,616.96,s,1,1.3163,,618.4416,618.6416,,,,,,,,75,-27,-120,218,208,172,223,217,70,-216,29,-21,24,-161,172,118,-114,68,-79,121,-163,-72,-29,-114,-171,180,180,90,180,90,270,180,270,180,270,360,,,,,,,,,,,618.6417,618.6446,,0,80,80,80,1,6,repeated,,,,,,,,,,,,,,,,,,,,,,,,,,,,,,,,,,,,,,,,,,,,,,,,,
,,30,2,${e://Field/PROLIFIC_PID,F,18,2023-11-09_02h18.01.910,MouseEye_CC,2023.2.2,Win32,165.6726309,1.28,,,1920,1080,57.355,3.68,"146.32, 112.94, 131.39, 132.24, 181.3, 140.99, 158.87",627.38,10.01135249,36.84177716,27.83653633,Passed,123.4199535,,,,,,,,,,,,,,,,,,,,,training,6,2,0,left,a,,,,,618.6448,618.7082,35.84,0,-8,1,0,0,0.0633,fixationPoint,618.7082,618.8077,618.8077,620.8477,35.84,10240,616.96,a,1,2.0314,,620.8477,621.0475,,,,,,,,3,-128,215,113,67,212,166,119,117,-120,-122,-30,-69,-209,-208,118,-114,24,-171,125,-212,-78,114,-128,119,90,90,270,360,180,270,180,360,270,180,360,,,,,,,,,,,621.0476,621.0477,,0,81,81,81,1,16,novel,,,,,,,,,,,,,,,,,,,,,,,,,,,,,,,,,,,,,,,,,,,,,,,,,
,,30,2,${e://Field/PROLIFIC_PID,F,18,2023-11-09_02h18.01.910,MouseEye_CC,2023.2.2,Win32,165.6726309,1.28,,,1920,1080,57.355,3.68,"146.32, 112.94, 131.39, 132.24, 181.3, 140.99, 158.87",627.38,10.01135249,36.84177716,27.83653633,Passed,123.4199535,,,,,,,,,,,,,,,,,,,,,training,6,3,180,right,s,,,,,621.0479,621.2234,35.84,0,-8,1,0,0,0.1755,fixationPoint,621.2234,621.3204,621.3204,622.4174,35.84,10240,616.96,s,1,1.0851,,622.4174,622.6173,,,,,,,,32,-176,74,17,74,124,168,113,67,-70,-128,-72,-29,-209,-208,17,-72,167,-216,80,-30,-165,223,-78,20,270,270,90,180,90,90,180,180,360,180,360,,,,,,,,,,,622.6173,622.6174,,0,82,82,82,1,3,repeated,,,,,,,,,,,,,,,,,,,,,,,,,,,,,,,,,,,,,,,,,,,,,,,,,
,,30,2,${e://Field/PROLIFIC_PID,F,18,2023-11-09_02h18.01.910,MouseEye_CC,2023.2.2,Win32,165.6726309,1.28,,,1920,1080,57.355,3.68,"146.32, 112.94, 131.39, 132.24, 181.3, 140.99, 158.87",627.38,10.01135249,36.84177716,27.83653633,Passed,123.4199535,,,,,,,,,,,,,,,,,,,,,training,6,4,0,left,a,,,,,622.6176,622.6779,35.84,0,-8,1,0,0,0.0603,fixationPoint,622.678,622.7749,622.7749,623.575,35.84,10240,616.96,a,1,0.7942,,623.5751,623.775,,,,,,,,52,-172,-25,120,28,160,17,68,161,-16,168,-166,126,-29,115,174,-28,17,-72,73,-168,-68,-213,-120,-122,180,180,180,90,270,90,270,180,360,90,270,,,,,,,,,,,623.775,623.7751,,0,83,83,83,1,9,novel,,,,,,,,,,,,,,,,,,,,,,,,,,,,,,,,,,,,,,,,,,,,,,,,,
,,30,2,${e://Field/PROLIFIC_PID,F,18,2023-11-09_02h18.01.910,MouseEye_CC,2023.2.2,Win32,165.6726309,1.28,,,1920,1080,57.355,3.68,"146.32, 112.94, 131.39, 132.24, 181.3, 140.99, 158.87",627.38,10.01135249,36.84177716,27.83653633,Passed,123.4199535,,,,,,,,,,,,,,,,,,,,,training,6,5,180,right,s,,,,,623.7753,623.9022,35.84,0,-8,1,0,0,0.1269,fixationPoint,623.9023,623.9992,623.9993,624.6658,35.84,10240,616.96,s,1,0.6609,,624.6659,624.8658,,,,,,,,33,-125,65,212,166,176,169,65,112,-27,-120,-30,-160,-19,-219,17,-72,125,-212,167,-216,-16,168,-27,209,90,270,270,360,180,270,270,360,360,180,270,,,,,,,,,,,624.8659,624.8659,,0,84,84,84,1,4,repeated,,,,,,,,,,,,,,,,,,,,,,,,,,,,,,,,,,,,,,,,,,,,,,,,,
,,30,2,${e://Field/PROLIFIC_PID,F,18,2023-11-09_02h18.01.910,MouseEye_CC,2023.2.2,Win32,165.6726309,1.28,,,1920,1080,57.355,3.68,"146.32, 112.94, 131.39, 132.24, 181.3, 140.99, 158.87",627.38,10.01135249,36.84177716,27.83653633,Passed,123.4199535,,,,,,,,,,,,,,,,,,,,,training,6,6,0,left,a,,,,,624.8662,624.9568,35.84,0,-8,1,0,0,0.0906,fixationPoint,624.9569,625.0538,625.0538,627.1021,35.84,10240,616.96,a,1,2.0434,,627.1021,627.3022,,,,,,,,62,-169,-70,165,118,218,208,113,67,-216,29,-166,126,-176,74,17,-72,20,-117,73,-168,-70,-128,-172,-25,180,360,90,270,180,360,90,180,270,180,90,,,,,,,,,,,627.3022,627.3023,,0,85,85,85,1,10,novel,,,,,,,,,,,,,,,,,,,,,,,,,,,,,,,,,,,,,,,,,,,,,,,,,
,,30,2,${e://Field/PROLIFIC_PID,F,18,2023-11-09_02h18.01.910,MouseEye_CC,2023.2.2,Win32,165.6726309,1.28,,,1920,1080,57.355,3.68,"146.32, 112.94, 131.39, 132.24, 181.3, 140.99, 158.87",627.38,10.01135249,36.84177716,27.83653633,Passed,123.4199535,,,,,,,,,,,,,,,,,,,,,training,6,7,0,left,a,,,,,627.3026,627.3629,35.84,0,-8,1,0,0,0.0603,fixationPoint,627.363,627.4598,627.4598,628.9689,35.84,10240,616.96,a,1,1.5026,,628.969,629.1688,,,,,,,,68,124,-80,113,67,77,220,124,168,-32,67,-113,169,-161,172,-216,-17,-210,-124,-167,-126,213,-25,68,-79,270,90,180,270,360,90,180,180,180,90,270,,,,,,,,,,,629.1689,629.169,,0,86,86,86,1,12,novel,,,,,,,,,,,,,,,,,,,,,,,,,,,,,,,,,,,,,,,,,,,,,,,,,
,,30,2,${e://Field/PROLIFIC_PID,F,18,2023-11-09_02h18.01.910,MouseEye_CC,2023.2.2,Win32,165.6726309,1.28,,,1920,1080,57.355,3.68,"146.32, 112.94, 131.39, 132.24, 181.3, 140.99, 158.87",627.38,10.01135249,36.84177716,27.83653633,Passed,123.4199535,,,,,,,,,,,,,,,,,,,,,training,6,8,0,left,a,,,,,629.1692,629.2598,35.84,0,-8,1,0,0,0.0905,fixationPoint,629.2598,629.3568,629.3569,631.2538,35.84,10240,616.96,a,1,1.8856,,631.2538,631.4538,,,,,,,,49,160,17,-27,209,-216,168,-224,220,-30,-160,-172,-25,-169,-70,166,-160,116,-19,17,-72,212,166,176,169,360,90,90,360,90,180,180,180,270,360,90,,,,,,,,,,,631.4538,631.4539,,0,87,87,87,1,1,repeated,,,,,,,,,,,,,,,,,,,,,,,,,,,,,,,,,,,,,,,,,,,,,,,,,
,,30,2,${e://Field/PROLIFIC_PID,F,18,2023-11-09_02h18.01.910,MouseEye_CC,2023.2.2,Win32,165.6726309,1.28,,,1920,1080,57.355,3.68,"146.32, 112.94, 131.39, 132.24, 181.3, 140.99, 158.87",627.38,10.01135249,36.84177716,27.83653633,Passed,123.4199535,,,,,,,,,,,,,,,,,,,,,training,6,9,180,right,s,,,,,631.4541,631.4848,35.84,0,-8,1,0,0,0.0306,fixationPoint,631.4848,631.581,631.5811,633.0033,35.84,10240,616.96,s,1,1.4139,,633.0033,633.1994,,,,,,,,23,-128,119,217,70,80,64,124,168,-170,-172,-120,-122,-128,-80,121,-163,212,-76,27,-28,-67,174,-113,169,360,180,270,360,270,90,180,360,180,270,360,,,,,,,,,,,633.1994,633.1995,,0,88,88,88,1,15,novel,,,,,,,,,,,,,,,,,,,,,,,,,,,,,,,,,,,,,,,,,,,,,,,,,
,,30,2,${e://Field/PROLIFIC_PID,F,18,2023-11-09_02h18.01.910,MouseEye_CC,2023.2.2,Win32,165.6726309,1.28,,,1920,1080,57.355,3.68,"146.32, 112.94, 131.39, 132.24, 181.3, 140.99, 158.87",627.38,10.01135249,36.84177716,27.83653633,Passed,123.4199535,,,,,,,,,,,,,,,,,,,,,training,6,10,180,right,s,,,,,633.1999,633.2422,35.84,0,-8,1,0,0,0.0422,fixationPoint,633.2422,633.3387,633.3387,634.8745,35.84,10240,616.96,s,1,1.5326,,634.8745,635.0741,,,,,,,,69,174,-78,28,208,28,125,218,208,-27,209,-16,168,-21,24,-216,-17,-114,-171,-167,-126,118,-114,121,-163,360,180,360,180,360,180,270,180,90,180,180,,,,,,,,,,,635.0742,635.0743,,0,89,89,89,1,11,novel,,,,,,,,,,,,,,,,,,,,,,,,,,,,,,,,,,,,,,,,,,,,,,,,,
,,30,2,${e://Field/PROLIFIC_PID,F,18,2023-11-09_02h18.01.910,MouseEye_CC,2023.2.2,Win32,165.6726309,1.28,,,1920,1080,57.355,3.68,"146.32, 112.94, 131.39, 132.24, 181.3, 140.99, 158.87",627.38,10.01135249,36.84177716,27.83653633,Passed,123.4199535,,,,,,,,,,,,,,,,,,,,,training,6,11,0,left,a,,,,,635.0745,635.1231,35.84,0,-8,1,0,0,0.0485,fixationPoint,635.1232,635.2199,635.2199,636.7083,35.84,10240,616.96,s,0,1.4761,,636.7083,640.7084,,,,,,,,16,23,172,-67,174,-27,209,-224,220,-69,-174,-172,-25,-68,-70,17,-72,27,-28,67,-216,77,220,120,28,180,180,270,90,90,90,90,180,360,90,180,,,,,,,,,,,640.7084,640.7142,,0,90,90,90,1,13,novel,,,,,,,,,,,,,,,,,,,,,,,,,,,,,,,,,,,,,,,,,,,,,,,,,
,,30,2,${e://Field/PROLIFIC_PID,F,18,2023-11-09_02h18.01.910,MouseEye_CC,2023.2.2,Win32,165.6726309,1.28,,,1920,1080,57.355,3.68,"146.32, 112.94, 131.39, 132.24, 181.3, 140.99, 158.87",627.38,10.01135249,36.84177716,27.83653633,Passed,123.4199535,,,,,,,,,,,,,,,,,,,,,training,6,12,180,right,s,,,,,640.7144,640.7449,35.84,0,-8,1,0,0,0.0303,fixationPoint,640.745,640.8417,640.8417,643.987,35.84,10240,616.96,s,1,3.1421,,643.9871,644.1863,,,,,,,,85,-30,-160,223,16,160,17,120,28,-68,73,-118,29,-125,65,164,-128,167,-216,70,-118,-72,-29,-216,-17,360,180,90,360,90,180,360,90,360,360,270,,,,,,,,,,,644.1864,644.1865,,0,91,91,91,1,5,repeated,,,,,,,,,,,,,,,,,,,,,,,,,,,,,,,,,,,,,,,,,,,,,,,,,
,,30,2,${e://Field/PROLIFIC_PID,F,18,2023-11-09_02h18.01.910,MouseEye_CC,2023.2.2,Win32,165.6726309,1.28,,,1920,1080,57.355,3.68,"146.32, 112.94, 131.39, 132.24, 181.3, 140.99, 158.87",627.38,10.01135249,36.84177716,27.83653633,Passed,123.4199535,,,,,,,,,,,,,,,,,,,,,training,6,13,0,left,a,,,,,644.1866,644.2657,35.84,0,-8,1,0,0,0.079,fixationPoint,644.2657,644.3629,644.3629,646.8027,35.84,10240,616.96,a,1,2.4313,,646.8027,646.9991,,,,,,,,98,125,-212,65,112,28,125,28,208,-216,75,-32,67,-216,29,-216,-17,-68,-213,-70,-128,118,-114,212,-76,180,360,180,360,180,270,270,90,90,360,270,,,,,,,,,,,646.9991,646.9992,,0,92,92,92,1,8,repeated,,,,,,,,,,,,,,,,,,,,,,,,,,,,,,,,,,,,,,,,,,,,,,,,,
,,30,2,${e://Field/PROLIFIC_PID,F,18,2023-11-09_02h18.01.910,MouseEye_CC,2023.2.2,Win32,165.6726309,1.28,,,1920,1080,57.355,3.68,"146.32, 112.94, 131.39, 132.24, 181.3, 140.99, 158.87",627.38,10.01135249,36.84177716,27.83653633,Passed,123.4199535,,,,,,,,,,,,,,,,,,,,,training,6,14,180,right,s,,,,,646.9994,647.0295,35.84,0,-7,1,0,0,0.03,fixationPoint,647.0295,647.1264,647.1264,649.5265,35.84,10240,616.96,s,1,2.3902,,649.5265,649.7266,,,,,,,,39,165,68,-165,223,-27,209,-125,65,-112,-219,-128,-80,-224,-172,213,-25,67,-216,17,-72,17,74,212,166,270,90,270,180,180,360,180,270,180,360,270,,,,,,,,,,,649.7266,649.7266,,0,93,93,93,1,2,repeated,,,,,,,,,,,,,,,,,,,,,,,,,,,,,,,,,,,,,,,,,,,,,,,,,
,,30,2,${e://Field/PROLIFIC_PID,F,18,2023-11-09_02h18.01.910,MouseEye_CC,2023.2.2,Win32,165.6726309,1.28,,,1920,1080,57.355,3.68,"146.32, 112.94, 131.39, 132.24, 181.3, 140.99, 158.87",627.38,10.01135249,36.84177716,27.83653633,Passed,123.4199535,,,,,,,,,,,,,,,,,,,,,training,6,15,180,right,s,,,,,649.7269,649.8422,35.84,0,-7,1,0,0,0.1152,fixationPoint,649.8422,649.9386,649.9387,650.7569,35.84,10240,616.96,s,1,0.8092,,650.7569,650.9569,,,,,,,,26,28,125,-166,126,-165,32,-78,114,-114,-171,-209,-208,-27,-120,221,-160,121,-163,174,-28,77,220,165,68,360,270,90,360,270,270,90,360,180,360,90,,,,,,,,,,,650.9569,650.9569,,0,94,94,94,1,14,novel,,,,,,,,,,,,,,,,,,,,,,,,,,,,,,,,,,,,,,,,,,,,,,,,,
,,30,2,${e://Field/PROLIFIC_PID,F,18,2023-11-09_02h18.01.910,MouseEye_CC,2023.2.2,Win32,165.6726309,1.28,,,1920,1080,57.355,3.68,"146.32, 112.94, 131.39, 132.24, 181.3, 140.99, 158.87",627.38,10.01135249,36.84177716,27.83653633,Passed,123.4199535,,,,,,,,,,,,,,,,,,,,,training,6,16,0,left,a,,,,,650.9572,651.1567,35.84,0,-7,1,0,0,0.1994,fixationPoint,651.1567,651.2538,651.2539,653.7145,35.84,10240,616.96,a,1,2.4541,,653.7145,653.9144,,,,,,,,78,118,-114,220,116,17,74,165,118,-67,174,-216,29,-113,169,-19,-219,-224,-172,-209,-65,212,-76,80,-30,270,360,180,180,90,270,360,90,180,360,180,,,,,,,,,,,653.9144,656.2962,space,0,95,95,95,1,7,repeated,2.3707,,,,,,,,,,,,,,,,,,,,,,,,,,,,,,,,,,,,,,,,,,,,,,,,
,,30,2,${e://Field/PROLIFIC_PID,F,18,2023-11-09_02h18.01.910,MouseEye_CC,2023.2.2,Win32,165.6726309,1.28,,,1920,1080,57.355,3.68,"146.32, 112.94, 131.39, 132.24, 181.3, 140.99, 158.87",627.38,10.01135249,36.84177716,27.83653633,Passed,123.4199535,,,,,,,,,,,,,,,,,,,,,training,7,1,0,left,a,,,,,656.2964,656.8477,35.84,0,-7,1,0,0,0.5513,fixationPoint,656.8478,656.9447,656.9447,657.9084,35.84,10240,616.96,a,1,0.9596,,657.9084,658.1084,,,,,,,,16,23,172,-73,208,-118,29,-78,114,-19,-219,-170,-172,-120,-122,124,-80,73,-168,25,-220,124,168,120,28,180,270,270,180,90,270,270,90,270,270,180,,,,,,,,,,,658.1084,658.1116,,0,96,96,96,1,13,novel,,,,,,,,,,,,,,,,,,,,,,,,,,,,,,,,,,,,,,,,,,,,,,,,,
,,30,2,${e://Field/PROLIFIC_PID,F,18,2023-11-09_02h18.01.910,MouseEye_CC,2023.2.2,Win32,165.6726309,1.28,,,1920,1080,57.355,3.68,"146.32, 112.94, 131.39, 132.24, 181.3, 140.99, 158.87",627.38,10.01135249,36.84177716,27.83653633,Passed,123.4199535,,,,,,,,,,,,,,,,,,,,,training,7,2,180,right,s,,,,,658.1118,658.272,35.84,0,-7,1,0,0,0.1602,fixationPoint,658.2721,658.369,658.3691,659.9204,35.84,10240,616.96,s,1,1.548,,659.9205,660.1205,,,,,,,,69,174,-78,68,161,77,220,65,112,-73,208,-67,174,-166,126,-120,-122,-70,-128,-68,-213,27,-28,17,-72,360,360,180,270,180,90,360,180,90,270,90,,,,,,,,,,,660.1205,660.1206,,0,97,97,97,1,11,novel,,,,,,,,,,,,,,,,,,,,,,,,,,,,,,,,,,,,,,,,,,,,,,,,,
,,30,2,${e://Field/PROLIFIC_PID,F,18,2023-11-09_02h18.01.910,MouseEye_CC,2023.2.2,Win32,165.6726309,1.28,,,1920,1080,57.355,3.68,"146.32, 112.94, 131.39, 132.24, 181.3, 140.99, 158.87",627.38,10.01135249,36.84177716,27.83653633,Passed,123.4199535,,,,,,,,,,,,,,,,,,,,,training,7,3,180,right,s,,,,,660.1209,660.3265,35.84,0,-7,1,0,0,0.2056,fixationPoint,660.3265,660.4234,660.4234,663.3745,35.84,10240,616.96,s,1,2.9485,,663.3745,663.5741,,,,,,,,75,-27,-120,218,208,172,223,217,70,-216,29,-21,24,-161,172,118,-114,68,-79,121,-163,-72,-29,-114,-171,90,270,270,180,180,270,180,180,90,270,360,,,,,,,,,,,663.5742,663.5742,,0,98,98,98,1,6,repeated,,,,,,,,,,,,,,,,,,,,,,,,,,,,,,,,,,,,,,,,,,,,,,,,,
,,30,2,${e://Field/PROLIFIC_PID,F,18,2023-11-09_02h18.01.910,MouseEye_CC,2023.2.2,Win32,165.6726309,1.28,,,1920,1080,57.355,3.68,"146.32, 112.94, 131.39, 132.24, 181.3, 140.99, 158.87",627.38,10.01135249,36.84177716,27.83653633,Passed,123.4199535,,,,,,,,,,,,,,,,,,,,,training,7,4,0,left,a,,,,,663.5744,663.608,35.84,0,-7,1,0,0,0.0335,fixationPoint,663.6081,663.7048,663.7048,665.1659,35.84,10240,616.96,a,1,1.4553,,665.1659,665.3628,,,,,,,,26,28,125,-161,172,-166,126,-78,114,-120,-20,-68,-213,-70,-128,212,-76,166,-160,164,-128,17,74,126,215,180,270,270,90,90,180,90,90,360,270,270,,,,,,,,,,,665.3628,665.3629,,0,99,99,99,1,14,novel,,,,,,,,,,,,,,,,,,,,,,,,,,,,,,,,,,,,,,,,,,,,,,,,,
,,30,2,${e://Field/PROLIFIC_PID,F,18,2023-11-09_02h18.01.910,MouseEye_CC,2023.2.2,Win32,165.6726309,1.28,,,1920,1080,57.355,3.68,"146.32, 112.94, 131.39, 132.24, 181.3, 140.99, 158.87",627.38,10.01135249,36.84177716,27.83653633,Passed,123.4199535,,,,,,,,,,,,,,,,,,,,,training,7,5,180,right,s,,,,,665.3631,665.469,35.84,0,-7,1,0,0,0.1059,fixationPoint,665.469,665.5689,665.5689,666.9447,35.84,10240,616.96,s,1,1.3639,,666.9447,667.1446,,,,,,,,78,118,-114,220,116,17,74,165,118,-67,174,-216,29,-113,169,-19,-219,-224,-172,-209,-65,212,-76,80,-30,360,270,270,180,90,90,270,180,360,180,360,,,,,,,,,,,667.1447,667.1448,,0,100,100,100,1,7,repeated,,,,,,,,,,,,,,,,,,,,,,,,,,,,,,,,,,,,,,,,,,,,,,,,,
,,30,2,${e://Field/PROLIFIC_PID,F,18,2023-11-09_02h18.01.910,MouseEye_CC,2023.2.2,Win32,165.6726309,1.28,,,1920,1080,57.355,3.68,"146.32, 112.94, 131.39, 132.24, 181.3, 140.99, 158.87",627.38,10.01135249,36.84177716,27.83653633,Passed,123.4199535,,,,,,,,,,,,,,,,,,,,,training,7,6,180,right,s,,,,,667.145,667.175,35.84,0,-7,1,0,0,0.0299,fixationPoint,667.175,667.2719,667.2719,670.2022,35.84,10240,616.96,s,1,2.9216,,670.2022,670.3993,,,,,,,,52,-172,-25,126,215,124,168,80,64,-216,29,-113,169,-27,209,125,-212,27,-28,164,-128,-175,-212,-30,-160,180,270,360,360,180,360,90,360,90,180,360,,,,,,,,,,,670.3993,670.3995,,0,101,101,101,1,9,novel,,,,,,,,,,,,,,,,,,,,,,,,,,,,,,,,,,,,,,,,,,,,,,,,,
,,30,2,${e://Field/PROLIFIC_PID,F,18,2023-11-09_02h18.01.910,MouseEye_CC,2023.2.2,Win32,165.6726309,1.28,,,1920,1080,57.355,3.68,"146.32, 112.94, 131.39, 132.24, 181.3, 140.99, 158.87",627.38,10.01135249,36.84177716,27.83653633,Passed,123.4199535,,,,,,,,,,,,,,,,,,,,,training,7,7,180,right,s,,,,,670.3997,670.4144,35.84,0,-7,1,0,0,0.0146,fixationPoint,670.4144,670.5144,670.5144,671.7507,35.84,10240,616.96,s,1,1.2249,,671.7507,671.9508,,,,,,,,3,-128,215,23,172,80,64,65,112,-68,-70,-19,-219,-28,-23,174,-78,125,-212,80,-30,-27,209,-224,220,270,90,270,90,180,360,270,180,180,270,180,,,,,,,,,,,671.9508,671.9508,,0,102,102,102,1,16,novel,,,,,,,,,,,,,,,,,,,,,,,,,,,,,,,,,,,,,,,,,,,,,,,,,
,,30,2,${e://Field/PROLIFIC_PID,F,18,2023-11-09_02h18.01.910,MouseEye_CC,2023.2.2,Win32,165.6726309,1.28,,,1920,1080,57.355,3.68,"146.32, 112.94, 131.39, 132.24, 181.3, 140.99, 158.87",627.38,10.01135249,36.84177716,27.83653633,Passed,123.4199535,,,,,,,,,,,,,,,,,,,,,training,7,8,0,left,a,,,,,671.9511,672.3691,35.84,0,-7,1,0,0,0.4178,fixationPoint,672.3691,672.466,672.466,674.4141,35.84,10240,616.96,a,1,1.9455,,674.4141,674.6139,,,,,,,,68,124,-80,160,17,217,70,172,223,-176,74,-113,169,-216,168,-70,-128,-120,-20,-112,-219,70,-118,67,-216,180,360,360,180,90,270,270,90,270,90,90,,,,,,,,,,,674.614,674.614,,0,103,103,103,1,12,novel,,,,,,,,,,,,,,,,,,,,,,,,,,,,,,,,,,,,,,,,,,,,,,,,,
,,30,2,${e://Field/PROLIFIC_PID,F,18,2023-11-09_02h18.01.910,MouseEye_CC,2023.2.2,Win32,165.6726309,1.28,,,1920,1080,57.355,3.68,"146.32, 112.94, 131.39, 132.24, 181.3, 140.99, 158.87",627.38,10.01135249,36.84177716,27.83653633,Passed,123.4199535,,,,,,,,,,,,,,,,,,,,,training,7,9,180,right,s,,,,,674.6142,674.6354,35.84,0,-7,1,0,0,0.0212,fixationPoint,674.6355,674.7324,674.7324,676.6295,35.84,10240,616.96,s,1,1.8851,,676.6295,676.8296,,,,,,,,62,-169,-70,160,17,28,208,28,125,-165,223,-128,215,-224,220,212,-212,25,-220,121,-163,-170,-172,-216,-17,90,360,360,90,360,90,270,90,90,90,180,,,,,,,,,,,676.8296,676.8298,,0,104,104,104,1,10,novel,,,,,,,,,,,,,,,,,,,,,,,,,,,,,,,,,,,,,,,,,,,,,,,,,
,,30,2,${e://Field/PROLIFIC_PID,F,18,2023-11-09_02h18.01.910,MouseEye_CC,2023.2.2,Win32,165.6726309,1.28,,,1920,1080,57.355,3.68,"146.32, 112.94, 131.39, 132.24, 181.3, 140.99, 158.87",627.38,10.01135249,36.84177716,27.83653633,Passed,123.4199535,,,,,,,,,,,,,,,,,,,,,training,7,10,180,right,s,,,,,676.83,676.8599,35.84,0,-7,1,0,0,0.0299,fixationPoint,676.86,676.9568,676.9568,679.4418,35.84,10240,616.96,s,1,2.4794,,679.4418,679.6417,,,,,,,,98,125,-212,65,112,28,125,28,208,-216,75,-32,67,-216,29,-216,-17,-68,-213,-70,-128,118,-114,212,-76,90,360,90,360,360,180,180,180,360,360,90,,,,,,,,,,,679.6417,679.6419,,0,105,105,105,1,8,repeated,,,,,,,,,,,,,,,,,,,,,,,,,,,,,,,,,,,,,,,,,,,,,,,,,
,,30,2,${e://Field/PROLIFIC_PID,F,18,2023-11-09_02h18.01.910,MouseEye_CC,2023.2.2,Win32,165.6726309,1.28,,,1920,1080,57.355,3.68,"146.32, 112.94, 131.39, 132.24, 181.3, 140.99, 158.87",627.38,10.01135249,36.84177716,27.83653633,Passed,123.4199535,,,,,,,,,,,,,,,,,,,,,training,7,11,0,left,a,,,,,679.6421,679.7023,35.84,0,-7,1,0,0,0.0602,fixationPoint,679.7024,679.7994,679.7994,681.5205,35.84,10240,616.96,a,1,1.7162,,681.5205,681.7205,,,,,,,,85,-30,-160,223,16,160,17,120,28,-68,73,-118,29,-125,65,164,-128,167,-216,70,-118,-72,-29,-216,-17,270,90,90,90,270,360,360,360,90,180,270,,,,,,,,,,,681.7205,681.7206,,0,106,106,106,1,5,repeated,,,,,,,,,,,,,,,,,,,,,,,,,,,,,,,,,,,,,,,,,,,,,,,,,
,,30,2,${e://Field/PROLIFIC_PID,F,18,2023-11-09_02h18.01.910,MouseEye_CC,2023.2.2,Win32,165.6726309,1.28,,,1920,1080,57.355,3.68,"146.32, 112.94, 131.39, 132.24, 181.3, 140.99, 158.87",627.38,10.01135249,36.84177716,27.83653633,Passed,123.4199535,,,,,,,,,,,,,,,,,,,,,training,7,12,0,left,a,,,,,681.7209,681.7811,35.84,0,-7,1,0,0,0.0601,fixationPoint,681.7812,681.8781,681.8782,684.8719,35.84,10240,616.96,a,1,2.9911,,684.8719,685.072,,,,,,,,32,-176,74,17,74,124,168,113,67,-70,-128,-72,-29,-209,-208,17,-72,167,-216,80,-30,-165,223,-78,20,180,180,90,360,360,180,90,270,90,180,360,,,,,,,,,,,685.072,685.0721,,0,107,107,107,1,3,repeated,,,,,,,,,,,,,,,,,,,,,,,,,,,,,,,,,,,,,,,,,,,,,,,,,
,,30,2,${e://Field/PROLIFIC_PID,F,18,2023-11-09_02h18.01.910,MouseEye_CC,2023.2.2,Win32,165.6726309,1.28,,,1920,1080,57.355,3.68,"146.32, 112.94, 131.39, 132.24, 181.3, 140.99, 158.87",627.38,10.01135249,36.84177716,27.83653633,Passed,123.4199535,,,,,,,,,,,,,,,,,,,,,training,7,13,0,left,a,,,,,685.0724,685.2417,35.84,-3,-8,1,0,0,0.1692,fixationPoint,685.2417,685.3385,685.3386,686.2842,35.84,10240,616.96,a,1,0.9398,,686.2842,686.4842,,,,,,,,23,-128,119,77,220,28,125,217,70,-210,-124,-114,-171,-27,-120,68,-79,27,-28,118,-114,-165,223,-68,73,180,90,360,90,360,90,180,90,180,270,270,,,,,,,,,,,686.4842,686.4843,,0,108,108,108,1,15,novel,,,,,,,,,,,,,,,,,,,,,,,,,,,,,,,,,,,,,,,,,,,,,,,,,
,,30,2,${e://Field/PROLIFIC_PID,F,18,2023-11-09_02h18.01.910,MouseEye_CC,2023.2.2,Win32,165.6726309,1.28,,,1920,1080,57.355,3.68,"146.32, 112.94, 131.39, 132.24, 181.3, 140.99, 158.87",627.38,10.01135249,36.84177716,27.83653633,Passed,123.4199535,,,,,,,,,,,,,,,,,,,,,training,7,14,0,left,a,,,,,686.4845,686.7145,35.84,-3,-8,1,0,0,0.2299,fixationPoint,686.7145,686.8115,686.8115,688.2781,35.84,10240,616.96,a,1,1.4609,,688.2781,688.4782,,,,,,,,49,160,17,-27,209,-216,168,-224,220,-30,-160,-172,-25,-169,-70,166,-160,116,-19,17,-72,212,166,176,169,180,270,270,180,90,90,360,180,90,360,90,,,,,,,,,,,688.4782,688.4782,,0,109,109,109,1,1,repeated,,,,,,,,,,,,,,,,,,,,,,,,,,,,,,,,,,,,,,,,,,,,,,,,,
,,30,2,${e://Field/PROLIFIC_PID,F,18,2023-11-09_02h18.01.910,MouseEye_CC,2023.2.2,Win32,165.6726309,1.28,,,1920,1080,57.355,3.68,"146.32, 112.94, 131.39, 132.24, 181.3, 140.99, 158.87",627.38,10.01135249,36.84177716,27.83653633,Passed,123.4199535,,,,,,,,,,,,,,,,,,,,,training,7,15,0,left,a,,,,,688.4784,688.6417,35.84,-3,-8,1,0,0,0.1631,fixationPoint,688.6417,688.7387,688.7388,689.4661,35.84,10240,616.96,a,1,0.7222,,689.4662,689.6658,,,,,,,,33,-125,65,212,166,176,169,65,112,-27,-120,-30,-160,-19,-219,17,-72,125,-212,167,-216,-16,168,-27,209,180,360,360,360,180,270,90,180,180,270,360,,,,,,,,,,,689.6659,689.666,,0,110,110,110,1,4,repeated,,,,,,,,,,,,,,,,,,,,,,,,,,,,,,,,,,,,,,,,,,,,,,,,,
,,30,2,${e://Field/PROLIFIC_PID,F,18,2023-11-09_02h18.01.910,MouseEye_CC,2023.2.2,Win32,165.6726309,1.28,,,1920,1080,57.355,3.68,"146.32, 112.94, 131.39, 132.24, 181.3, 140.99, 158.87",627.38,10.01135249,36.84177716,27.83653633,Passed,123.4199535,,,,,,,,,,,,,,,,,,,,,training,7,16,180,right,s,,,,,689.6663,689.7508,35.84,-3,-8,1,0,0,0.0845,fixationPoint,689.7508,689.8478,689.8478,692.0993,35.84,10240,616.96,s,1,2.2488,,692.0993,692.2987,,,,,,,,39,165,68,-165,223,-27,209,-125,65,-112,-219,-128,-80,-224,-172,213,-25,67,-216,17,-72,17,74,212,166,360,180,180,360,90,90,90,90,270,180,180,,,,,,,,,,,692.2987,694.5388,space,0,111,111,111,1,2,repeated,2.2265,,,,,,,,,,,,,,,,,,,,,,,,,,,,,,,,,,,,,,,,,,,,,,,,
,,30,2,${e://Field/PROLIFIC_PID,F,18,2023-11-09_02h18.01.910,MouseEye_CC,2023.2.2,Win32,165.6726309,1.28,,,1920,1080,57.355,3.68,"146.32, 112.94, 131.39, 132.24, 181.3, 140.99, 158.87",627.38,10.01135249,36.84177716,27.83653633,Passed,123.4199535,,,,,,,,,,,,,,,,,,,,,training,8,1,180,right,s,,,,,694.5391,695.163,35.84,2,-7,1,0,0,0.6239,fixationPoint,695.163,695.2599,695.2599,699.3812,35.84,10240,616.96,s,1,4.113,,699.3813,699.5811,,,,,,,,32,-176,74,17,74,124,168,113,67,-70,-128,-72,-29,-209,-208,17,-72,167,-216,80,-30,-165,223,-78,20,360,90,270,180,270,270,180,180,180,90,90,,,,,,,,,,,699.5812,699.5843,,0,112,112,112,1,3,repeated,,,,,,,,,,,,,,,,,,,,,,,,,,,,,,,,,,,,,,,,,,,,,,,,,
,,30,2,${e://Field/PROLIFIC_PID,F,18,2023-11-09_02h18.01.910,MouseEye_CC,2023.2.2,Win32,165.6726309,1.28,,,1920,1080,57.355,3.68,"146.32, 112.94, 131.39, 132.24, 181.3, 140.99, 158.87",627.38,10.01135249,36.84177716,27.83653633,Passed,123.4199535,,,,,,,,,,,,,,,,,,,,,training,8,2,0,left,a,,,,,699.5845,699.6234,35.84,2,-6,1,0,0,0.0389,fixationPoint,699.6234,699.7204,699.7204,700.9024,35.84,10240,616.96,a,1,1.171,,700.9024,701.1024,,,,,,,,39,165,68,-165,223,-27,209,-125,65,-112,-219,-128,-80,-224,-172,213,-25,67,-216,17,-72,17,74,212,166,90,180,180,90,180,270,270,360,270,180,180,,,,,,,,,,,701.1024,701.1024,,0,113,113,113,1,2,repeated,,,,,,,,,,,,,,,,,,,,,,,,,,,,,,,,,,,,,,,,,,,,,,,,,
,,30,2,${e://Field/PROLIFIC_PID,F,18,2023-11-09_02h18.01.910,MouseEye_CC,2023.2.2,Win32,165.6726309,1.28,,,1920,1080,57.355,3.68,"146.32, 112.94, 131.39, 132.24, 181.3, 140.99, 158.87",627.38,10.01135249,36.84177716,27.83653633,Passed,123.4199535,,,,,,,,,,,,,,,,,,,,,training,8,3,0,left,a,,,,,701.1026,701.1267,35.84,2,-6,1,0,0,0.0239,fixationPoint,701.1267,701.2236,701.2236,703.0599,35.84,10240,616.96,a,1,1.8301,,703.06,703.26,,,,,,,,78,118,-114,220,116,17,74,165,118,-67,174,-216,29,-113,169,-19,-219,-224,-172,-209,-65,212,-76,80,-30,180,180,270,90,180,270,270,180,90,90,180,,,,,,,,,,,703.26,703.2601,,0,114,114,114,1,7,repeated,,,,,,,,,,,,,,,,,,,,,,,,,,,,,,,,,,,,,,,,,,,,,,,,,
,,30,2,${e://Field/PROLIFIC_PID,F,18,2023-11-09_02h18.01.910,MouseEye_CC,2023.2.2,Win32,165.6726309,1.28,,,1920,1080,57.355,3.68,"146.32, 112.94, 131.39, 132.24, 181.3, 140.99, 158.87",627.38,10.01135249,36.84177716,27.83653633,Passed,123.4199535,,,,,,,,,,,,,,,,,,,,,training,8,4,180,right,s,,,,,703.2604,703.4843,35.84,2,-6,1,0,0,0.2239,fixationPoint,703.4843,703.5812,703.5812,704.7993,35.84,10240,616.96,s,1,1.212,,704.7993,704.9993,,,,,,,,68,124,-80,176,169,68,161,17,74,-32,67,-68,73,-27,209,-120,-122,-114,-171,-28,-23,221,-160,67,-216,90,360,90,360,360,90,180,180,180,360,90,,,,,,,,,,,704.9994,704.9995,,0,115,115,115,1,12,novel,,,,,,,,,,,,,,,,,,,,,,,,,,,,,,,,,,,,,,,,,,,,,,,,,
,,30,2,${e://Field/PROLIFIC_PID,F,18,2023-11-09_02h18.01.910,MouseEye_CC,2023.2.2,Win32,165.6726309,1.28,,,1920,1080,57.355,3.68,"146.32, 112.94, 131.39, 132.24, 181.3, 140.99, 158.87",627.38,10.01135249,36.84177716,27.83653633,Passed,123.4199535,,,,,,,,,,,,,,,,,,,,,training,8,5,0,left,a,,,,,704.9997,705.1146,35.84,2,-6,1,0,0,0.1148,fixationPoint,705.1146,705.2114,705.2114,706.7508,35.84,10240,616.96,a,1,1.5348,,706.7509,706.9509,,,,,,,,52,-172,-25,126,215,19,31,165,68,-78,114,-216,29,-216,75,121,-163,80,-30,68,-79,-216,-17,-175,-212,180,270,90,270,180,270,270,180,90,90,90,,,,,,,,,,,706.951,706.9511,,0,116,116,116,1,9,novel,,,,,,,,,,,,,,,,,,,,,,,,,,,,,,,,,,,,,,,,,,,,,,,,,
,,30,2,${e://Field/PROLIFIC_PID,F,18,2023-11-09_02h18.01.910,MouseEye_CC,2023.2.2,Win32,165.6726309,1.28,,,1920,1080,57.355,3.68,"146.32, 112.94, 131.39, 132.24, 181.3, 140.99, 158.87",627.38,10.01135249,36.84177716,27.83653633,Passed,123.4199535,,,,,,,,,,,,,,,,,,,,,training,8,6,180,right,s,,,,,706.9512,707.0297,35.84,2,-6,1,0,0,0.0783,fixationPoint,707.0297,707.1266,707.1266,708.0661,35.84,10240,616.96,s,1,0.9343,,708.0661,708.2661,,,,,,,,33,-125,65,212,166,176,169,65,112,-27,-120,-30,-160,-19,-219,17,-72,125,-212,167,-216,-16,168,-27,209,180,270,180,90,90,180,270,360,270,180,270,,,,,,,,,,,708.2661,708.2662,,0,117,117,117,1,4,repeated,,,,,,,,,,,,,,,,,,,,,,,,,,,,,,,,,,,,,,,,,,,,,,,,,
,,30,2,${e://Field/PROLIFIC_PID,F,18,2023-11-09_02h18.01.910,MouseEye_CC,2023.2.2,Win32,165.6726309,1.28,,,1920,1080,57.355,3.68,"146.32, 112.94, 131.39, 132.24, 181.3, 140.99, 158.87",627.38,10.01135249,36.84177716,27.83653633,Passed,123.4199535,,,,,,,,,,,,,,,,,,,,,training,8,7,180,right,s,,,,,708.2664,708.4537,35.84,2,-6,1,0,0,0.1873,fixationPoint,708.4537,708.5507,708.5507,710.4599,35.84,10240,616.96,s,1,1.9036,,710.4599,710.6599,,,,,,,,85,-30,-160,223,16,160,17,120,28,-68,73,-118,29,-125,65,164,-128,167,-216,70,-118,-72,-29,-216,-17,270,270,360,270,90,360,270,180,90,90,270,,,,,,,,,,,710.6599,710.66,,0,118,118,118,1,5,repeated,,,,,,,,,,,,,,,,,,,,,,,,,,,,,,,,,,,,,,,,,,,,,,,,,
