InstrStartPage.started,InstrStartPage.stopped,participant,designid,prolificid,Gender,Age,date,expName,psychopyVersion,OS,frameRate,ratio_monitor2CRT,VirtualChinrest.started,VirtualChinrest.stopped,xRes,yRes,viewingdistance_cm,pixeldensity_px2mm,BallPos,squarePos,mm2degree,px2degree,CRT_px2degree,PassVirtualChinrest,foveaRadius_inPixel,InstrRedo.started,InstrRedo.stopped,VirtualChinrest_Redo.started,VirtualChinrest_Redo.stopped,Instruction1.started,Instruction1.stopped,keyPractice.started,keyPractice.stopped,key_keyprac.keys,key_keyprac.corr,key_keyprac.rt,key_keyprac.duration,keyPracFeedback.started,keyPracFeedback.stopped,keyPracLoop.thisRepN,keyPracLoop.thisTrialN,keyPracLoop.thisN,keyPracLoop.thisIndex,keyPracLoop.ran,phase,block,trial,targOrientdeg,targOrient,corrAnswer,Instruction2.started,Instruction2.stopped,Instruction3.started,Instruction3.stopped,fixation.started,fixation.stopped,fixationSize,mouseintial.x,mouseintial.y,mouseintial.leftButton,mouseintial.midButton,mouseintial.rightButton,mouseintial.time,mouseintial.clicked_name,greenFixation.started,greenFixation.stopped,trial.started,trial.stopped,letterSize,apertureSize,searchsize,key_respMain.keys,key_respMain.corr,key_respMain.rt,key_respMain.duration,trialFeedback.started,trialFeedback.stopped,trialsPractice.thisRepN,trialsPractice.thisTrialN,trialsPractice.thisN,trialsPractice.thisIndex,trialsPractice.ran,targetQuad,Tcondition,targcell,tlocx,tlocy,d1x,d1y,d2x,d2y,d3x,d3y,d4x,d4y,d5x,d5y,d6x,d6y,d7x,d7y,d8x,d8y,d9x,d9y,d10x,d10y,d11x,d11y,d1Orient,d2Orient,d3Orient,d4Orient,d5Orient,d6Orient,d7Orient,d8Orient,d9Orient,d10Orient,d11Orient,CheckInstr.started,CheckInstr.stopped,key_checkInstr.keys,key_checkInstr.corr,key_checkInstr.rt,key_checkInstr.duration,CheckInstr_FB.started,CheckInstr_FB.stopped,Instruction_MainExp.started,Instruction_MainExp.stopped,TakeABreak.started,TakeABreak.stopped,key_respBreak.keys,trials.thisRepN,trials.thisTrialN,trials.thisN,trials.thisIndex,trials.ran,configurationNumber,CCCondition,key_respBreak.rt,key_respBreak.duration,displayTestingPhase.started,displayTestingPhase.stopped,key_respTesting.keys,key_respTesting.corr,key_respTesting.rt,key_respTesting.duration,TakeABreak2.started,TakeABreak2.stopped,key_RespBreak.keys,Testingtrials.thisRepN,Testingtrials.thisTrialN,Testingtrials.thisN,Testingtrials.thisIndex,Testingtrials.ran,key_RespBreak.rt,key_RespBreak.duration,RecogQuestion.started,RecogQuestion.stopped,key_AnswerQues.keys,key_AnswerQues.rt,key_AnswerQues.duration,Disclose.started,Disclose.stopped,InstrRT.started,InstrRT.stopped,fixation_RT.started,fixation_RT.stopped,mouseInitial.x,mouseInitial.y,mouseInitial.leftButton,mouseInitial.midButton,mouseInitial.rightButton,mouseInitial.time,mouseInitial.clicked_name,displayRT.started,displayRT.stopped,key_respRT.keys,key_respRT.corr,key_respRT.rt,key_respRT.duration,RTtrials.thisRepN,RTtrials.thisTrialN,RTtrials.thisN,RTtrials.thisIndex,RTtrials.ran,EndOfExperiment.started,EndOfExperiment.stopped
0.0002,13.4869,3,2,${e://Field/PROLIFIC_PID,F,18,2023-11-02_19h24.14.809,MouseEye_CC,2023.2.2,Win32,144.3001443,1,,,,,,,,,,,,,,,,,,,,,,,,,,,,,,,,,,,,,,,,,,,,,,,,,,,,,,,,,,,,,,,,,,,,,,,,,,,,,,,,,,,,,,,,,,,,,,,,,,,,,,,,,,,,,,,,,,,,,,,,,,,,,,,,,,,,,,,,,,,,,,,,,,,,,,,,,,,,,,,,,,,,,,,,,,,,,,,,,
,,3,2,${e://Field/PROLIFIC_PID,F,18,2023-11-02_19h24.14.809,MouseEye_CC,2023.2.2,Win32,144.3001443,1.025559427,13.487,142.9945,2560,1440,47.132999999999996,3.47,"151.18, 168.58, 207.39, 204.61, 211.67, 210.92, 192.88",589.53,8.227095753,28.54802226,27.83653633,Passed,95.63587458,,,,,,,,,,,,,,,,,,,,,,,,,,,,,,,,,,,,,,,,,,,,,,,,,,,,,,,,,,,,,,,,,,,,,,,,,,,,,,,,,,,,,,,,,,,,,,,,,,,,,,,,,,,,,,,,,,,,,,,,,,,,,,,,,,,,,,,,,,,,,,,,,,,,,,,,,,,,,,,,,,,,
,,3,2,${e://Field/PROLIFIC_PID,F,18,2023-11-02_19h24.14.809,MouseEye_CC,2023.2.2,Win32,144.3001443,1.025559427,,,2560,1440,47.132999999999996,3.47,"151.18, 168.58, 207.39, 204.61, 211.67, 210.92, 192.88",589.53,8.227095753,28.54802226,27.83653633,Passed,95.63587458,142.9946,142.9959,,,,,,,,,,,,,,,,,,,,,,,,,,,,,,,,,,,,,,,,,,,,,,,,,,,,,,,,,,,,,,,,,,,,,,,,,,,,,,,,,,,,,,,,,,,,,,,,,,,,,,,,,,,,,,,,,,,,,,,,,,,,,,,,,,,,,,,,,,,,,,,,,,,,,,,,,,,,,,,,,,
,,3,2,${e://Field/PROLIFIC_PID,F,18,2023-11-02_19h24.14.809,MouseEye_CC,2023.2.2,Win32,144.3001443,1.022343947,,,2560,1440,44.304,3.68,"151.18, 168.58, 207.39, 204.61, 211.67, 210.92, 192.88",589.53,7.733291966,28.45851443,27.83653633,Passed,95.33602335,,,142.996,217.4693,,,,,,,,,,,,,,,,,,,,,,,,,,,,,,,,,,,,,,,,,,,,,,,,,,,,,,,,,,,,,,,,,,,,,,,,,,,,,,,,,,,,,,,,,,,,,,,,,,,,,,,,,,,,,,,,,,,,,,,,,,,,,,,,,,,,,,,,,,,,,,,,,,,,,,,,,,,,,,,,
,,3,2,${e://Field/PROLIFIC_PID,F,18,2023-11-02_19h24.14.809,MouseEye_CC,2023.2.2,Win32,144.3001443,1.022343947,,,2560,1440,44.304,3.68,"151.18, 168.58, 207.39, 204.61, 211.67, 210.92, 192.88",589.53,7.733291966,28.45851443,27.83653633,Passed,95.33602335,,,,,217.4695,233.5384,,,,,,,,,,,,,,,,,,,,,,,,,,,,,,,,,,,,,,,,,,,,,,,,,,,,,,,,,,,,,,,,,,,,,,,,,,,,,,,,,,,,,,,,,,,,,,,,,,,,,,,,,,,,,,,,,,,,,,,,,,,,,,,,,,,,,,,,,,,,,,,,,,,,,,,,,,,,,,
,,3,2,${e://Field/PROLIFIC_PID,F,18,2023-11-02_19h24.14.809,MouseEye_CC,2023.2.2,Win32,144.3001443,1.022343947,,,2560,1440,44.304,3.68,"151.18, 168.58, 207.39, 204.61, 211.67, 210.92, 192.88",589.53,7.733291966,28.45851443,27.83653633,Passed,95.33602335,,,,,,,233.5467,234.652,a,1,0.5955,,234.6521,235.1521,0,0,0,0,1,practice,1,1,0,left,a,,,,,,,,,,,,,,,,,,,,,,,,,,,,,,,,,,,,,,,,,,,,,,,,,,,,,,,,,,,,,,,,,,,,,,,,,,,,,,,,,,,,,,,,,,,,,,,,,,,,,,,,,,,,,,,,,,,,,,,,,,,,,,,,,,,,,,,,,,,
,,3,2,${e://Field/PROLIFIC_PID,F,18,2023-11-02_19h24.14.809,MouseEye_CC,2023.2.2,Win32,144.3001443,1.022343947,,,2560,1440,44.304,3.68,"151.18, 168.58, 207.39, 204.61, 211.67, 210.92, 192.88",589.53,7.733291966,28.45851443,27.83653633,Passed,95.33602335,,,,,,,235.1524,236.1312,a,1,0.4671,,236.1312,236.6311,0,1,1,1,1,practice,1,2,0,left,a,,,,,,,,,,,,,,,,,,,,,,,,,,,,,,,,,,,,,,,,,,,,,,,,,,,,,,,,,,,,,,,,,,,,,,,,,,,,,,,,,,,,,,,,,,,,,,,,,,,,,,,,,,,,,,,,,,,,,,,,,,,,,,,,,,,,,,,,,,,
,,3,2,${e://Field/PROLIFIC_PID,F,18,2023-11-02_19h24.14.809,MouseEye_CC,2023.2.2,Win32,144.3001443,1.022343947,,,2560,1440,44.304,3.68,"151.18, 168.58, 207.39, 204.61, 211.67, 210.92, 192.88",589.53,7.733291966,28.45851443,27.83653633,Passed,95.33602335,,,,,,,236.6313,237.8394,a,1,0.6947,,237.8395,238.3394,0,2,2,2,1,practice,1,3,0,left,a,,,,,,,,,,,,,,,,,,,,,,,,,,,,,,,,,,,,,,,,,,,,,,,,,,,,,,,,,,,,,,,,,,,,,,,,,,,,,,,,,,,,,,,,,,,,,,,,,,,,,,,,,,,,,,,,,,,,,,,,,,,,,,,,,,,,,,,,,,,
,,3,2,${e://Field/PROLIFIC_PID,F,18,2023-11-02_19h24.14.809,MouseEye_CC,2023.2.2,Win32,144.3001443,1.022343947,,,2560,1440,44.304,3.68,"151.18, 168.58, 207.39, 204.61, 211.67, 210.92, 192.88",589.53,7.733291966,28.45851443,27.83653633,Passed,95.33602335,,,,,,,238.3395,239.6381,s,1,0.7825,,239.6381,240.1379,0,3,3,3,1,practice,1,4,180,right,s,,,,,,,,,,,,,,,,,,,,,,,,,,,,,,,,,,,,,,,,,,,,,,,,,,,,,,,,,,,,,,,,,,,,,,,,,,,,,,,,,,,,,,,,,,,,,,,,,,,,,,,,,,,,,,,,,,,,,,,,,,,,,,,,,,,,,,,,,,,
,,3,2,${e://Field/PROLIFIC_PID,F,18,2023-11-02_19h24.14.809,MouseEye_CC,2023.2.2,Win32,144.3001443,1.022343947,,,2560,1440,44.304,3.68,"151.18, 168.58, 207.39, 204.61, 211.67, 210.92, 192.88",589.53,7.733291966,28.45851443,27.83653633,Passed,95.33602335,,,,,,,240.1381,241.1658,s,1,0.516,,241.1658,241.6657,0,4,4,4,1,practice,1,5,180,right,s,,,,,,,,,,,,,,,,,,,,,,,,,,,,,,,,,,,,,,,,,,,,,,,,,,,,,,,,,,,,,,,,,,,,,,,,,,,,,,,,,,,,,,,,,,,,,,,,,,,,,,,,,,,,,,,,,,,,,,,,,,,,,,,,,,,,,,,,,,,
,,3,2,${e://Field/PROLIFIC_PID,F,18,2023-11-02_19h24.14.809,MouseEye_CC,2023.2.2,Win32,144.3001443,1.022343947,,,2560,1440,44.304,3.68,"151.18, 168.58, 207.39, 204.61, 211.67, 210.92, 192.88",589.53,7.733291966,28.45851443,27.83653633,Passed,95.33602335,,,,,,,241.6658,242.6102,a,1,0.4312,,242.6102,243.1102,0,5,5,5,1,practice,1,6,0,left,a,,,,,,,,,,,,,,,,,,,,,,,,,,,,,,,,,,,,,,,,,,,,,,,,,,,,,,,,,,,,,,,,,,,,,,,,,,,,,,,,,,,,,,,,,,,,,,,,,,,,,,,,,,,,,,,,,,,,,,,,,,,,,,,,,,,,,,,,,,,
,,3,2,${e://Field/PROLIFIC_PID,F,18,2023-11-02_19h24.14.809,MouseEye_CC,2023.2.2,Win32,144.3001443,1.022343947,,,2560,1440,44.304,3.68,"151.18, 168.58, 207.39, 204.61, 211.67, 210.92, 192.88",589.53,7.733291966,28.45851443,27.83653633,Passed,95.33602335,,,,,,,,,,,,,,,,,,,,,,,,,,243.1106,252.6658,,,,,,,,,,,,,,,,,,,,,,,,,,,,,,,,,,,,,,,,,,,,,,,,,,,,,,,,,,,,,,,,,,,,,,,,,,,,,,,,,,,,,,,,,,,,,,,,,,,,,,,,,,,,,,,,,,,,,,,,,,,,,,,,,,,,,,,,,
,,3,2,${e://Field/PROLIFIC_PID,F,18,2023-11-02_19h24.14.809,MouseEye_CC,2023.2.2,Win32,144.3001443,1.022343947,,,2560,1440,44.304,3.68,"151.18, 168.58, 207.39, 204.61, 211.67, 210.92, 192.88",589.53,7.733291966,28.45851443,27.83653633,Passed,95.33602335,,,,,,,,,,,,,,,,,,,,,,,,,,,,252.6659,271.7279,,,,,,,,,,,,,,,,,,,,,,,,,,,,,,,,,,,,,,,,,,,,,,,,,,,,,,,,,,,,,,,,,,,,,,,,,,,,,,,,,,,,,,,,,,,,,,,,,,,,,,,,,,,,,,,,,,,,,,,,,,,,,,,,,,,,,,,
,,3,2,${e://Field/PROLIFIC_PID,F,18,2023-11-02_19h24.14.809,MouseEye_CC,2023.2.2,Win32,144.3001443,1.022343947,,,2560,1440,44.304,3.68,"151.18, 168.58, 207.39, 204.61, 211.67, 210.92, 192.88",589.53,7.733291966,28.45851443,27.83653633,Passed,95.33602335,,,,,,,,,,,,,,,,,,,,practice,0,1,0,left,a,,,,,271.7358,273.7209,28.62563053,-0.666625977,1.333312988,1,0,0,1.9849,fixationPoint,273.721,273.818,273.8181,275.6966,28.62563053,8178.751579,492.7697826,a,1,1.8676,,275.6966,275.8943,0,0,0,0,1,4,sparse,90,217,-164,68,123,222,26,214,216,-218,159,-120,223,-110,82,-115,-130,-224,-120,-68,-219,79,-175,19,-128,90,270,360,90,270,270,180,90,90,90,270,,,,,,,,,,,,,,,,,,,,,,,,,,,,,,,,,,,,,,,,,,,,,,,,,,,,,,,,,,,,,,,,,,,,,
,,3,2,${e://Field/PROLIFIC_PID,F,18,2023-11-02_19h24.14.809,MouseEye_CC,2023.2.2,Win32,144.3001443,1.022343947,,,2560,1440,44.304,3.68,"151.18, 168.58, 207.39, 204.61, 211.67, 210.92, 192.88",589.53,7.733291966,28.45851443,27.83653633,Passed,95.33602335,,,,,,,,,,,,,,,,,,,,practice,0,2,0,left,a,,,,,275.8945,277.547,28.62563053,-0.666625977,1.333312988,1,0,0,1.6525,fixationPoint,277.5471,277.6442,277.6442,283.6997,28.62563053,8178.751579,492.7697826,s,0,6.0425,,283.6997,287.6994,0,1,1,1,1,1,rich,39,169,66,-126,125,-169,169,-130,19,-169,-116,-125,-167,-224,-216,218,-129,171,-218,18,-208,166,26,17,170,180,90,360,270,90,90,90,270,180,180,270,,,,,,,,,,,,,,,,,,,,,,,,,,,,,,,,,,,,,,,,,,,,,,,,,,,,,,,,,,,,,,,,,,,,,
,,3,2,${e://Field/PROLIFIC_PID,F,18,2023-11-02_19h24.14.809,MouseEye_CC,2023.2.2,Win32,144.3001443,1.022343947,,,2560,1440,44.304,3.68,"151.18, 168.58, 207.39, 204.61, 211.67, 210.92, 192.88",589.53,7.733291966,28.45851443,27.83653633,Passed,95.33602335,,,,,,,,,,,,,,,,,,,,practice,0,3,0,left,a,,,,,287.6996,288.4218,28.62563053,5.333374023,-3.333374023,1,0,0,0.7221,fixationPoint,288.4218,288.5189,288.519,289.4495,28.62563053,8178.751579,492.7697826,a,1,0.9187,,289.4495,289.6508,0,2,2,2,1,2,sparse,22,-162,126,222,26,17,170,126,172,-25,-117,-175,-206,-224,-216,116,-19,130,-174,217,-164,-218,159,-21,162,90,90,180,360,360,270,360,360,360,360,180,,,,,,,,,,,,,,,,,,,,,,,,,,,,,,,,,,,,,,,,,,,,,,,,,,,,,,,,,,,,,,,,,,,,,
,,3,2,${e://Field/PROLIFIC_PID,F,18,2023-11-02_19h24.14.809,MouseEye_CC,2023.2.2,Win32,144.3001443,1.022343947,,,2560,1440,44.304,3.68,"151.18, 168.58, 207.39, 204.61, 211.67, 210.92, 192.88",589.53,7.733291966,28.45851443,27.83653633,Passed,95.33602335,,,,,,,,,,,,,,,,,,,,practice,0,4,180,right,s,,,,,289.651,290.13,28.62563053,5.333374023,-3.333374023,1,0,0,0.479,fixationPoint,290.13,290.2271,290.2272,292.0328,28.62563053,8178.751579,492.7697826,s,1,1.7912,,292.0329,292.234,0,3,3,3,1,4,sparse,76,19,-128,159,121,214,216,219,165,-218,159,-162,126,-219,119,-169,-116,-111,-31,-175,-206,18,-208,81,-114,90,270,180,180,270,180,360,360,360,270,360,,,,,,,,,,,,,,,,,,,,,,,,,,,,,,,,,,,,,,,,,,,,,,,,,,,,,,,,,,,,,,,,,,,,,
,,3,2,${e://Field/PROLIFIC_PID,F,18,2023-11-02_19h24.14.809,MouseEye_CC,2023.2.2,Win32,144.3001443,1.022343947,,,2560,1440,44.304,3.68,"151.18, 168.58, 207.39, 204.61, 211.67, 210.92, 192.88",589.53,7.733291966,28.45851443,27.83653633,Passed,95.33602335,,,,,,,,,,,,,,,,,,,,practice,0,5,180,right,s,,,,,292.2343,292.6508,28.62563053,5.333374023,-3.333374023,1,0,0,0.4165,fixationPoint,292.6508,292.748,292.7481,293.5952,28.62563053,8178.751579,492.7697826,s,1,0.8347,,293.5952,293.7966,0,4,4,4,1,3,sparse,85,-19,-173,219,165,68,123,214,216,-160,68,-64,120,-226,34,162,-21,224,-216,167,-163,-167,-74,-224,-216,360,360,360,90,180,270,90,360,270,270,360,,,,,,,,,,,,,,,,,,,,,,,,,,,,,,,,,,,,,,,,,,,,,,,,,,,,,,,,,,,,,,,,,,,,,
,,3,2,${e://Field/PROLIFIC_PID,F,18,2023-11-02_19h24.14.809,MouseEye_CC,2023.2.2,Win32,144.3001443,1.022343947,,,2560,1440,44.304,3.68,"151.18, 168.58, 207.39, 204.61, 211.67, 210.92, 192.88",589.53,7.733291966,28.45851443,27.83653633,Passed,95.33602335,,,,,,,,,,,,,,,,,,,,practice,0,6,180,right,s,,,,,293.7968,294.1855,28.62563053,5.333374023,-3.333374023,1,0,0,0.3886,fixationPoint,294.1855,294.2828,294.2828,298.2826,28.62563053,8178.751579,492.7697826,s,1,3.988,,298.2826,298.484,0,5,5,5,1,3,sparse,95,-21,-224,126,172,219,165,166,26,-166,207,-223,206,-219,119,169,-75,18,-208,224,-216,-72,-121,-115,-130,180,180,360,180,360,180,270,180,90,180,360,,,,,,,,,,,,,,,,,,,,,,,,,,,,,,,,,,,,,,,,,,,,,,,,,,,,,,,,,,,,,,,,,,,,,
,,3,2,${e://Field/PROLIFIC_PID,F,18,2023-11-02_19h24.14.809,MouseEye_CC,2023.2.2,Win32,144.3001443,1.022343947,,,2560,1440,44.304,3.68,"151.18, 168.58, 207.39, 204.61, 211.67, 210.92, 192.88",589.53,7.733291966,28.45851443,27.83653633,Passed,95.33602335,,,,,,,,,,,,,,,,,,,,practice,0,7,0,left,a,,,,,298.4842,298.9146,28.62563053,5.333374023,-3.333374023,1,0,0,0.4303,fixationPoint,298.9147,299.0117,299.0118,303.0464,28.62563053,8178.751579,492.7697826,a,1,4.0202,,303.0465,303.2477,0,6,6,6,1,1,rich,7,62,223,-166,207,-226,34,-162,126,-169,-116,-168,-160,-161,-27,15,-162,162,-21,79,-175,219,165,219,129,180,180,360,180,270,360,180,360,270,180,360,,,,,,,,,,,,,,,,,,,,,,,,,,,,,,,,,,,,,,,,,,,,,,,,,,,,,,,,,,,,,,,,,,,,,
,,3,2,${e://Field/PROLIFIC_PID,F,18,2023-11-02_19h24.14.809,MouseEye_CC,2023.2.2,Win32,144.3001443,1.022343947,,,2560,1440,44.304,3.68,"151.18, 168.58, 207.39, 204.61, 211.67, 210.92, 192.88",589.53,7.733291966,28.45851443,27.83653633,Passed,95.33602335,,,,,,,,,,,,,,,,,,,,practice,0,8,180,right,s,,,,,303.2478,304.3241,28.62563053,4.666748047,-16.66668701,1,0,0,0.3886,fixationPoint,304.3242,304.4213,304.4213,308.713,28.62563053,8178.751579,492.7697826,s,1,4.2782,,308.713,308.9144,0,7,7,7,1,2,sparse,24,-64,120,18,215,126,172,33,121,-206,-170,-64,-162,-218,-78,130,-174,211,-74,168,-130,-164,32,-21,162,90,180,270,360,180,90,180,180,180,360,270,,,,,,,,,,,,,,,,,,,,,,,,,,,,,,,,,,,,,,,,,,,,,,,,,,,,,,,,,,,,,,,,,,,,,
,,3,2,${e://Field/PROLIFIC_PID,F,18,2023-11-02_19h24.14.809,MouseEye_CC,2023.2.2,Win32,144.3001443,1.022343947,,,2560,1440,44.304,3.68,"151.18, 168.58, 207.39, 204.61, 211.67, 210.92, 192.88",589.53,7.733291966,28.45851443,27.83653633,Passed,95.33602335,,,,,,,,,,,,,,,,,,,,practice,0,9,180,right,s,,,,,308.9146,309.6574,28.62563053,2.666748047,-2,1,0,0,0.7427,fixationPoint,309.6574,309.7545,309.7545,314.1087,28.62563053,8178.751579,492.7697826,s,1,4.3401,,314.1088,314.31,0,8,8,8,1,3,sparse,85,-19,-173,127,30,62,223,217,67,-110,82,-21,162,-80,218,167,-163,126,-79,130,-174,-125,-167,-68,-219,360,360,360,180,360,360,180,270,90,360,180,,,,,,,,,,,,,,,,,,,,,,,,,,,,,,,,,,,,,,,,,,,,,,,,,,,,,,,,,,,,,,,,,,,,,
,,3,2,${e://Field/PROLIFIC_PID,F,18,2023-11-02_19h24.14.809,MouseEye_CC,2023.2.2,Win32,144.3001443,1.022343947,,,2560,1440,44.304,3.68,"151.18, 168.58, 207.39, 204.61, 211.67, 210.92, 192.88",589.53,7.733291966,28.45851443,27.83653633,Passed,95.33602335,,,,,,,,,,,,,,,,,,,,practice,0,10,180,right,s,,,,,314.3102,315.3795,28.62563053,2.666748047,-2,1,0,0,1.0693,fixationPoint,315.3796,315.4767,315.4767,317.2613,28.62563053,8178.751579,492.7697826,s,1,1.7706,,317.2613,317.4627,0,9,9,9,1,1,rich,9,160,209,-166,207,-226,34,-120,223,-224,-120,-118,-217,-218,-78,112,-209,126,-113,169,-75,178,160,110,129,180,90,90,270,360,270,360,180,360,180,360,,,,,,,,,,,,,,,,,,,,,,,,,,,,,,,,,,,,,,,,,,,,,,,,,,,,,,,,,,,,,,,,,,,,,
,,3,2,${e://Field/PROLIFIC_PID,F,18,2023-11-02_19h24.14.809,MouseEye_CC,2023.2.2,Win32,144.3001443,1.022343947,,,2560,1440,44.304,3.68,"151.18, 168.58, 207.39, 204.61, 211.67, 210.92, 192.88",589.53,7.733291966,28.45851443,27.83653633,Passed,95.33602335,,,,,,,,,,,,,,,,,,,,practice,0,11,180,right,s,,,,,317.4629,318.16,28.62563053,2.666748047,-2,1,0,0,0.697,fixationPoint,318.16,318.2614,318.2614,324.6363,28.62563053,8178.751579,492.7697826,s,1,6.3623,,324.6363,324.8376,0,10,10,10,1,4,sparse,80,218,-129,62,223,159,121,110,129,-218,159,-223,206,-75,173,-169,-116,-118,-217,-125,-167,217,-164,169,-75,360,270,360,180,360,180,180,270,360,180,90,,,,,,,,,,,,,,,,,,,,,,,,,,,,,,,,,,,,,,,,,,,,,,,,,,,,,,,,,,,,,,,,,,,,,
,,3,2,${e://Field/PROLIFIC_PID,F,18,2023-11-02_19h24.14.809,MouseEye_CC,2023.2.2,Win32,144.3001443,1.022343947,,,2560,1440,44.304,3.68,"151.18, 168.58, 207.39, 204.61, 211.67, 210.92, 192.88",589.53,7.733291966,28.45851443,27.83653633,Passed,95.33602335,,,,,,,,,,,,,,,,,,,,practice,0,12,0,left,a,,,,,324.8378,326.0598,28.62563053,2,-2,1,0,0,1.222,fixationPoint,326.0598,326.1571,326.1571,328.8098,28.62563053,8178.751579,492.7697826,a,1,2.6383,,328.8098,329.0111,0,11,11,11,1,3,sparse,75,-25,-117,110,129,125,63,214,216,-164,32,-27,117,-126,125,171,-218,126,-113,167,-163,-21,-224,-212,-21,270,180,180,360,180,270,360,270,360,180,270,,,,,,,,,,,,,,,,,,,,,,,,,,,,,,,,,,,,,,,,,,,,,,,,,,,,,,,,,,,,,,,,,,,,,
,,3,2,${e://Field/PROLIFIC_PID,F,18,2023-11-02_19h24.14.809,MouseEye_CC,2023.2.2,Win32,144.3001443,1.022343947,,,2560,1440,44.304,3.68,"151.18, 168.58, 207.39, 204.61, 211.67, 210.92, 192.88",589.53,7.733291966,28.45851443,27.83653633,Passed,95.33602335,,,,,,,,,,,,,,,,,,,,,,,,,,,,,,,,,,,,,,,,,,,,,,,,,,,,,,,,,,,,,,,,,,,,,,,,,,,,,,,,,,,,,,,,,,,,,,,,329.0115,340.0807,a,1,11.0563,,,,,,,,,,,,,,,,,,,,,,,,,,,,,,,,,,,,,,,,,,,,,,,,,,,,,,,,,,,,,,,,
,,3,2,${e://Field/PROLIFIC_PID,F,18,2023-11-02_19h24.14.809,MouseEye_CC,2023.2.2,Win32,144.3001443,1.022343947,,,2560,1440,44.304,3.68,"151.18, 168.58, 207.39, 204.61, 211.67, 210.92, 192.88",589.53,7.733291966,28.45851443,27.83653633,Passed,95.33602335,,,,,,,,,,,,,,,,,,,,,,,,,,,,,,,,,,,,,,,,,,,,,,,,,,,,,,,,,,,,,,,,,,,,,,,,,,,,,,,,,,,,,,,,,,,,,,,,,,,,,,340.0807,344.4556,,,,,,,,,,,,,,,,,,,,,,,,,,,,,,,,,,,,,,,,,,,,,,,,,,,,,,,,,,,,,
,,3,2,${e://Field/PROLIFIC_PID,F,18,2023-11-02_19h24.14.809,MouseEye_CC,2023.2.2,Win32,144.3001443,1.022343947,,,2560,1440,44.304,3.68,"151.18, 168.58, 207.39, 204.61, 211.67, 210.92, 192.88",589.53,7.733291966,28.45851443,27.83653633,Passed,95.33602335,,,,,,,,,,,,,,,,,,,,,,,,,,,,,,,,,,,,,,,,,,,,,,,,,,,,,,,,,,,,,,,,,,,,,,,,,,,,,,,,,,,,,,,,,,,,,,,,,,,,,,,,344.4556,366.969,,,,,,,,,,,,,,,,,,,,,,,,,,,,,,,,,,,,,,,,,,,,,,,,,,,,,,,,,,,
,,3,2,${e://Field/PROLIFIC_PID,F,18,2023-11-02_19h24.14.809,MouseEye_CC,2023.2.2,Win32,144.3001443,1.022343947,,,2560,1440,44.304,3.68,"151.18, 168.58, 207.39, 204.61, 211.67, 210.92, 192.88",589.53,7.733291966,28.45851443,27.83653633,Passed,95.33602335,,,,,,,,,,,,,,,,,,,,training,1,1,0,left,a,,,,,367.0134,368.2186,28.62563053,-7.333251953,4,1,0,0,1.2052,fixationPoint,368.2186,368.3158,368.3159,372.795,28.62563053,8178.751579,492.7697826,a,1,4.4682,,372.795,372.9927,,,,,,,,52,-172,-25,176,169,28,125,218,208,-16,168,-128,119,-27,209,174,-28,73,-168,67,-216,-28,-23,-70,-128,270,180,270,270,270,90,270,90,360,90,270,,,,,,,,,,,372.9931,372.994,,0,0,0,0,1,9,novel,,,,,,,,,,,,,,,,,,,,,,,,,,,,,,,,,,,,,,,,,,,,,,,,,
,,3,2,${e://Field/PROLIFIC_PID,F,18,2023-11-02_19h24.14.809,MouseEye_CC,2023.2.2,Win32,144.3001443,1.022343947,,,2560,1440,44.304,3.68,"151.18, 168.58, 207.39, 204.61, 211.67, 210.92, 192.88",589.53,7.733291966,28.45851443,27.83653633,Passed,95.33602335,,,,,,,,,,,,,,,,,,,,training,1,2,180,right,s,,,,,372.9942,373.4893,28.62563053,0.666748047,-0.666687012,1,0,0,0.4951,fixationPoint,373.4893,373.5866,373.5866,375.2958,28.62563053,8178.751579,492.7697826,s,1,1.699,,375.2958,375.4962,,,,,,,,23,-128,119,218,208,126,215,160,17,-172,-25,-69,-174,-70,-128,27,-28,121,-163,24,-171,-113,169,-67,174,360,90,360,360,360,180,180,90,360,270,180,,,,,,,,,,,375.4963,375.4963,,0,1,1,1,1,15,novel,,,,,,,,,,,,,,,,,,,,,,,,,,,,,,,,,,,,,,,,,,,,,,,,,
,,3,2,${e://Field/PROLIFIC_PID,F,18,2023-11-02_19h24.14.809,MouseEye_CC,2023.2.2,Win32,144.3001443,1.022343947,,,2560,1440,44.304,3.68,"151.18, 168.58, 207.39, 204.61, 211.67, 210.92, 192.88",589.53,7.733291966,28.45851443,27.83653633,Passed,95.33602335,,,,,,,,,,,,,,,,,,,,training,1,3,180,right,s,,,,,375.4966,375.9841,28.62563053,0,2,1,0,0,0.4875,fixationPoint,375.9842,376.0796,376.0796,377.9476,28.62563053,8178.751579,492.7697826,s,1,1.8579,,377.9476,378.1489,,,,,,,,16,23,172,-224,220,-128,215,-73,208,-72,-29,-112,-219,-120,-20,80,-30,68,-79,164,-128,77,220,176,169,270,180,360,180,90,90,90,360,270,90,360,,,,,,,,,,,378.1489,378.149,,0,2,2,2,1,13,novel,,,,,,,,,,,,,,,,,,,,,,,,,,,,,,,,,,,,,,,,,,,,,,,,,
,,3,2,${e://Field/PROLIFIC_PID,F,18,2023-11-02_19h24.14.809,MouseEye_CC,2023.2.2,Win32,144.3001443,1.022343947,,,2560,1440,44.304,3.68,"151.18, 168.58, 207.39, 204.61, 211.67, 210.92, 192.88",589.53,7.733291966,28.45851443,27.83653633,Passed,95.33602335,,,,,,,,,,,,,,,,,,,,training,1,4,0,left,a,,,,,378.1491,378.7601,28.62563053,-9.333251953,16.66662598,1,0,0,0.3677,fixationPoint,378.7602,378.8573,378.8573,381.9789,28.62563053,8178.751579,492.7697826,a,1,3.1115,,381.9789,382.1765,,,,,,,,49,160,17,-27,209,-216,168,-224,220,-30,-160,-172,-25,-169,-70,166,-160,116,-19,17,-72,212,166,176,169,180,270,360,270,180,90,360,180,270,270,270,,,,,,,,,,,382.1766,382.1767,,0,3,3,3,1,1,repeated,,,,,,,,,,,,,,,,,,,,,,,,,,,,,,,,,,,,,,,,,,,,,,,,,
,,3,2,${e://Field/PROLIFIC_PID,F,18,2023-11-02_19h24.14.809,MouseEye_CC,2023.2.2,Win32,144.3001443,1.022343947,,,2560,1440,44.304,3.68,"151.18, 168.58, 207.39, 204.61, 211.67, 210.92, 192.88",589.53,7.733291966,28.45851443,27.83653633,Passed,95.33602335,,,,,,,,,,,,,,,,,,,,training,1,5,180,right,s,,,,,382.1769,382.6003,28.62563053,-5.333251953,14,1,0,0,0.4233,fixationPoint,382.6003,382.701,382.701,383.871,28.62563053,8178.751579,492.7697826,s,1,1.1631,,383.8711,384.0724,,,,,,,,32,-176,74,17,74,124,168,113,67,-70,-128,-72,-29,-209,-208,17,-72,167,-216,80,-30,-165,223,-78,20,180,90,360,270,180,360,270,90,90,270,270,,,,,,,,,,,384.0725,384.0725,,0,4,4,4,1,3,repeated,,,,,,,,,,,,,,,,,,,,,,,,,,,,,,,,,,,,,,,,,,,,,,,,,
,,3,2,${e://Field/PROLIFIC_PID,F,18,2023-11-02_19h24.14.809,MouseEye_CC,2023.2.2,Win32,144.3001443,1.022343947,,,2560,1440,44.304,3.68,"151.18, 168.58, 207.39, 204.61, 211.67, 210.92, 192.88",589.53,7.733291966,28.45851443,27.83653633,Passed,95.33602335,,,,,,,,,,,,,,,,,,,,training,1,6,180,right,s,,,,,384.0727,384.51,28.62563053,-6.666625977,7.333312988,1,0,0,0.4373,fixationPoint,384.5101,384.6072,384.6073,388.0655,28.62563053,8178.751579,492.7697826,s,1,3.4468,,388.0655,388.2668,,,,,,,,75,-27,-120,218,208,172,223,217,70,-216,29,-21,24,-161,172,118,-114,68,-79,121,-163,-72,-29,-114,-171,270,270,270,180,270,360,180,180,180,270,270,,,,,,,,,,,388.2668,388.2669,,0,5,5,5,1,6,repeated,,,,,,,,,,,,,,,,,,,,,,,,,,,,,,,,,,,,,,,,,,,,,,,,,
,,3,2,${e://Field/PROLIFIC_PID,F,18,2023-11-02_19h24.14.809,MouseEye_CC,2023.2.2,Win32,144.3001443,1.022343947,,,2560,1440,44.304,3.68,"151.18, 168.58, 207.39, 204.61, 211.67, 210.92, 192.88",589.53,7.733291966,28.45851443,27.83653633,Passed,95.33602335,,,,,,,,,,,,,,,,,,,,training,1,7,0,left,a,,,,,388.2671,388.7112,28.62563053,-10,5.333312988,1,0,0,0.4441,fixationPoint,388.7113,388.8085,388.8085,393.0475,28.62563053,8178.751579,492.7697826,a,1,4.229,,393.0476,393.2458,,,,,,,,68,124,-80,220,116,160,17,172,223,-165,32,-32,67,-216,75,-120,-122,-169,-70,-167,-126,17,-72,174,-78,360,180,270,360,360,360,270,360,360,90,270,,,,,,,,,,,393.2458,393.2459,,0,6,6,6,1,12,novel,,,,,,,,,,,,,,,,,,,,,,,,,,,,,,,,,,,,,,,,,,,,,,,,,
,,3,2,${e://Field/PROLIFIC_PID,F,18,2023-11-02_19h24.14.809,MouseEye_CC,2023.2.2,Win32,144.3001443,1.022343947,,,2560,1440,44.304,3.68,"151.18, 168.58, 207.39, 204.61, 211.67, 210.92, 192.88",589.53,7.733291966,28.45851443,27.83653633,Passed,95.33602335,,,,,,,,,,,,,,,,,,,,training,1,8,0,left,a,,,,,393.2461,393.9372,28.62563053,-1.333251953,2.666625977,1,0,0,0.691,fixationPoint,393.9372,394.041,394.0411,395.4612,28.62563053,8178.751579,492.7697826,a,1,1.4092,,395.4612,395.6647,,,,,,,,3,-128,215,68,161,126,215,17,74,-120,-122,-209,-208,-112,-219,70,-118,20,-117,174,-28,-16,168,-216,29,360,180,180,270,180,270,90,360,90,360,90,,,,,,,,,,,395.6647,395.6648,,0,7,7,7,1,16,novel,,,,,,,,,,,,,,,,,,,,,,,,,,,,,,,,,,,,,,,,,,,,,,,,,
,,3,2,${e://Field/PROLIFIC_PID,F,18,2023-11-02_19h24.14.809,MouseEye_CC,2023.2.2,Win32,144.3001443,1.022343947,,,2560,1440,44.304,3.68,"151.18, 168.58, 207.39, 204.61, 211.67, 210.92, 192.88",589.53,7.733291966,28.45851443,27.83653633,Passed,95.33602335,,,,,,,,,,,,,,,,,,,,training,1,9,0,left,a,,,,,395.6651,396.1694,28.62563053,-5.333251953,5.333312988,1,0,0,0.5042,fixationPoint,396.1694,396.2667,396.2667,397.461,28.62563053,8178.751579,492.7697826,a,1,1.18,,397.461,397.6624,,,,,,,,98,125,-212,65,112,28,125,28,208,-216,75,-32,67,-216,29,-216,-17,-68,-213,-70,-128,118,-114,212,-76,360,180,90,360,90,270,180,360,360,360,270,,,,,,,,,,,397.6624,397.6625,,0,8,8,8,1,8,repeated,,,,,,,,,,,,,,,,,,,,,,,,,,,,,,,,,,,,,,,,,,,,,,,,,
,,3,2,${e://Field/PROLIFIC_PID,F,18,2023-11-02_19h24.14.809,MouseEye_CC,2023.2.2,Win32,144.3001443,1.022343947,,,2560,1440,44.304,3.68,"151.18, 168.58, 207.39, 204.61, 211.67, 210.92, 192.88",589.53,7.733291966,28.45851443,27.83653633,Passed,95.33602335,,,,,,,,,,,,,,,,,,,,training,1,10,180,right,s,,,,,397.6626,398.6347,28.62563053,-7.333251953,-0.666687012,1,0,0,0.972,fixationPoint,398.6347,398.7319,398.7319,399.454,28.62563053,8178.751579,492.7697826,s,1,0.7119,,399.454,399.6553,,,,,,,,33,-125,65,212,166,176,169,65,112,-27,-120,-30,-160,-19,-219,17,-72,125,-212,167,-216,-16,168,-27,209,360,90,270,360,360,180,180,270,360,180,360,,,,,,,,,,,399.6553,399.6554,,0,9,9,9,1,4,repeated,,,,,,,,,,,,,,,,,,,,,,,,,,,,,,,,,,,,,,,,,,,,,,,,,
,,3,2,${e://Field/PROLIFIC_PID,F,18,2023-11-02_19h24.14.809,MouseEye_CC,2023.2.2,Win32,144.3001443,1.022343947,,,2560,1440,44.304,3.68,"151.18, 168.58, 207.39, 204.61, 211.67, 210.92, 192.88",589.53,7.733291966,28.45851443,27.83653633,Passed,95.33602335,,,,,,,,,,,,,,,,,,,,training,1,11,180,right,s,,,,,399.6556,400.086,28.62563053,-6,4.666625977,1,0,0,0.4304,fixationPoint,400.0861,400.1833,400.1833,401.711,28.62563053,8178.751579,492.7697826,s,1,1.517,,401.711,401.9123,,,,,,,,85,-30,-160,223,16,160,17,120,28,-68,73,-118,29,-125,65,164,-128,167,-216,70,-118,-72,-29,-216,-17,270,360,360,90,270,270,90,180,180,360,270,,,,,,,,,,,401.9123,401.9124,,0,10,10,10,1,5,repeated,,,,,,,,,,,,,,,,,,,,,,,,,,,,,,,,,,,,,,,,,,,,,,,,,
,,3,2,${e://Field/PROLIFIC_PID,F,18,2023-11-02_19h24.14.809,MouseEye_CC,2023.2.2,Win32,144.3001443,1.022343947,,,2560,1440,44.304,3.68,"151.18, 168.58, 207.39, 204.61, 211.67, 210.92, 192.88",589.53,7.733291966,28.45851443,27.83653633,Passed,95.33602335,,,,,,,,,,,,,,,,,,,,training,1,12,180,right,s,,,,,401.9126,402.579,28.62563053,-17.33325195,8,1,0,0,0.3955,fixationPoint,402.579,402.6763,402.6763,405.1415,28.62563053,8178.751579,492.7697826,s,1,2.4542,,405.1415,405.3428,,,,,,,,39,165,68,-165,223,-27,209,-125,65,-112,-219,-128,-80,-224,-172,213,-25,67,-216,17,-72,17,74,212,166,360,90,270,90,90,90,360,180,360,360,90,,,,,,,,,,,405.3428,405.3429,,0,11,11,11,1,2,repeated,,,,,,,,,,,,,,,,,,,,,,,,,,,,,,,,,,,,,,,,,,,,,,,,,
,,3,2,${e://Field/PROLIFIC_PID,F,18,2023-11-02_19h24.14.809,MouseEye_CC,2023.2.2,Win32,144.3001443,1.022343947,,,2560,1440,44.304,3.68,"151.18, 168.58, 207.39, 204.61, 211.67, 210.92, 192.88",589.53,7.733291966,28.45851443,27.83653633,Passed,95.33602335,,,,,,,,,,,,,,,,,,,,training,1,13,0,left,a,,,,,405.343,405.697,28.62563053,-10,3.333312988,1,0,0,0.3539,fixationPoint,405.697,405.7942,405.7942,409.2664,28.62563053,8178.751579,492.7697826,a,1,3.4579,,409.2664,409.4677,,,,,,,,78,118,-114,220,116,17,74,165,118,-67,174,-216,29,-113,169,-19,-219,-224,-172,-209,-65,212,-76,80,-30,90,360,180,180,180,180,180,90,90,360,270,,,,,,,,,,,409.4678,409.4678,,0,12,12,12,1,7,repeated,,,,,,,,,,,,,,,,,,,,,,,,,,,,,,,,,,,,,,,,,,,,,,,,,
,,3,2,${e://Field/PROLIFIC_PID,F,18,2023-11-02_19h24.14.809,MouseEye_CC,2023.2.2,Win32,144.3001443,1.022343947,,,2560,1440,44.304,3.68,"151.18, 168.58, 207.39, 204.61, 211.67, 210.92, 192.88",589.53,7.733291966,28.45851443,27.83653633,Passed,95.33602335,,,,,,,,,,,,,,,,,,,,training,1,14,0,left,a,,,,,409.4679,410.4158,28.62563053,-6,8.666625977,1,0,0,0.9477,fixationPoint,410.4158,410.5163,410.5163,413.3287,28.62563053,8178.751579,492.7697826,a,1,2.8002,,413.3288,413.5325,,,,,,,,69,174,-78,80,64,19,31,176,169,-32,67,-16,168,-216,168,-216,-17,-167,-126,-169,-70,121,-163,167,-216,90,360,180,360,360,360,180,360,360,360,270,,,,,,,,,,,413.5325,413.5326,,0,13,13,13,1,11,novel,,,,,,,,,,,,,,,,,,,,,,,,,,,,,,,,,,,,,,,,,,,,,,,,,
,,3,2,${e://Field/PROLIFIC_PID,F,18,2023-11-02_19h24.14.809,MouseEye_CC,2023.2.2,Win32,144.3001443,1.022343947,,,2560,1440,44.304,3.68,"151.18, 168.58, 207.39, 204.61, 211.67, 210.92, 192.88",589.53,7.733291966,28.45851443,27.83653633,Passed,95.33602335,,,,,,,,,,,,,,,,,,,,training,1,15,180,right,s,,,,,413.5327,413.8843,28.62563053,-6.666625977,-6.666687012,1,0,0,0.3515,fixationPoint,413.8844,413.9815,413.9815,417.1273,28.62563053,8178.751579,492.7697826,s,1,3.1316,,417.1273,417.3286,,,,,,,,62,-169,-70,65,112,28,208,165,118,-16,168,-221,115,-166,126,166,-160,213,-25,174,-78,-30,-160,-209,-65,270,270,90,270,180,270,90,360,180,180,180,,,,,,,,,,,417.3287,417.3287,,0,14,14,14,1,10,novel,,,,,,,,,,,,,,,,,,,,,,,,,,,,,,,,,,,,,,,,,,,,,,,,,
,,3,2,${e://Field/PROLIFIC_PID,F,18,2023-11-02_19h24.14.809,MouseEye_CC,2023.2.2,Win32,144.3001443,1.022343947,,,2560,1440,44.304,3.68,"151.18, 168.58, 207.39, 204.61, 211.67, 210.92, 192.88",589.53,7.733291966,28.45851443,27.83653633,Passed,95.33602335,,,,,,,,,,,,,,,,,,,,training,1,16,0,left,a,,,,,417.3289,418.0232,28.62563053,-4,4.666625977,1,0,0,0.6943,fixationPoint,418.0232,418.1203,418.1204,422.8355,28.62563053,8178.751579,492.7697826,a,1,4.7045,,422.8355,423.0369,,,,,,,,26,28,125,-78,114,-68,73,-166,126,-30,-69,-209,-208,-30,-160,166,-160,73,-168,80,-30,217,70,17,74,90,360,270,90,270,90,90,270,180,360,360,,,,,,,,,,,423.0369,464.0153,space,0,15,15,15,1,14,novel,40.9637,,,,,,,,,,,,,,,,,,,,,,,,,,,,,,,,,,,,,,,,,,,,,,,,
,,3,2,${e://Field/PROLIFIC_PID,F,18,2023-11-02_19h24.14.809,MouseEye_CC,2023.2.2,Win32,144.3001443,1.022343947,,,2560,1440,44.304,3.68,"151.18, 168.58, 207.39, 204.61, 211.67, 210.92, 192.88",589.53,7.733291966,28.45851443,27.83653633,Passed,95.33602335,,,,,,,,,,,,,,,,,,,,training,2,1,0,left,a,,,,,464.0155,465.7444,28.62563053,5.333374023,2.666625977,1,0,0,1.7288,fixationPoint,465.7444,465.8416,465.8416,466.8833,28.62563053,8178.751579,492.7697826,a,1,1.0337,,466.8833,467.0846,,,,,,,,32,-176,74,17,74,124,168,113,67,-70,-128,-72,-29,-209,-208,17,-72,167,-216,80,-30,-165,223,-78,20,270,90,270,90,90,180,180,90,360,360,270,,,,,,,,,,,467.0846,467.0866,,0,16,16,16,1,3,repeated,,,,,,,,,,,,,,,,,,,,,,,,,,,,,,,,,,,,,,,,,,,,,,,,,
,,3,2,${e://Field/PROLIFIC_PID,F,18,2023-11-02_19h24.14.809,MouseEye_CC,2023.2.2,Win32,144.3001443,1.022343947,,,2560,1440,44.304,3.68,"151.18, 168.58, 207.39, 204.61, 211.67, 210.92, 192.88",589.53,7.733291966,28.45851443,27.83653633,Passed,95.33602335,,,,,,,,,,,,,,,,,,,,training,2,2,180,right,s,,,,,467.0868,467.7651,28.62563053,4.666748047,2,1,0,0,0.6783,fixationPoint,467.7652,467.8624,467.8624,469.8971,28.62563053,8178.751579,492.7697826,s,1,2.0297,,469.8971,470.0986,,,,,,,,98,125,-212,65,112,28,125,28,208,-216,75,-32,67,-216,29,-216,-17,-68,-213,-70,-128,118,-114,212,-76,360,270,360,270,180,90,180,180,90,270,90,,,,,,,,,,,470.0986,470.0986,,0,17,17,17,1,8,repeated,,,,,,,,,,,,,,,,,,,,,,,,,,,,,,,,,,,,,,,,,,,,,,,,,
,,3,2,${e://Field/PROLIFIC_PID,F,18,2023-11-02_19h24.14.809,MouseEye_CC,2023.2.2,Win32,144.3001443,1.022343947,,,2560,1440,44.304,3.68,"151.18, 168.58, 207.39, 204.61, 211.67, 210.92, 192.88",589.53,7.733291966,28.45851443,27.83653633,Passed,95.33602335,,,,,,,,,,,,,,,,,,,,training,2,3,180,right,s,,,,,470.0988,470.4734,28.62563053,4.666748047,-3.333374023,1,0,0,0.3745,fixationPoint,470.4735,470.5706,470.5707,474.8969,28.62563053,8178.751579,492.7697826,s,1,4.317,,474.8969,475.0982,,,,,,,,16,23,172,-32,67,-224,220,-161,172,-224,-172,-27,-120,-167,-126,68,-79,118,-114,174,-78,65,112,165,118,180,90,360,180,270,180,90,270,180,270,180,,,,,,,,,,,475.0982,475.0983,,0,18,18,18,1,13,novel,,,,,,,,,,,,,,,,,,,,,,,,,,,,,,,,,,,,,,,,,,,,,,,,,
,,3,2,${e://Field/PROLIFIC_PID,F,18,2023-11-02_19h24.14.809,MouseEye_CC,2023.2.2,Win32,144.3001443,1.022343947,,,2560,1440,44.304,3.68,"151.18, 168.58, 207.39, 204.61, 211.67, 210.92, 192.88",589.53,7.733291966,28.45851443,27.83653633,Passed,95.33602335,,,,,,,,,,,,,,,,,,,,training,2,4,180,right,s,,,,,475.0985,475.5289,28.62563053,-0.666625977,5.333312988,1,0,0,0.4303,fixationPoint,475.529,475.6261,475.6261,478.251,28.62563053,8178.751579,492.7697826,s,1,2.6225,,478.251,478.4524,,,,,,,,62,-169,-70,160,17,17,74,223,16,-161,172,-68,73,-165,32,212,-212,27,-28,167,-216,-68,-70,-216,-17,270,180,270,180,360,270,360,90,90,360,270,,,,,,,,,,,478.4524,478.4524,,0,19,19,19,1,10,novel,,,,,,,,,,,,,,,,,,,,,,,,,,,,,,,,,,,,,,,,,,,,,,,,,
,,3,2,${e://Field/PROLIFIC_PID,F,18,2023-11-02_19h24.14.809,MouseEye_CC,2023.2.2,Win32,144.3001443,1.022343947,,,2560,1440,44.304,3.68,"151.18, 168.58, 207.39, 204.61, 211.67, 210.92, 192.88",589.53,7.733291966,28.45851443,27.83653633,Passed,95.33602335,,,,,,,,,,,,,,,,,,,,training,2,5,0,left,a,,,,,478.4526,478.7928,28.62563053,-10,2.666625977,1,0,0,0.3401,fixationPoint,478.7928,478.8899,478.89,480.0774,28.62563053,8178.751579,492.7697826,a,1,1.1804,,480.0774,480.2788,,,,,,,,3,-128,215,160,17,120,28,176,169,-209,-208,-167,-126,-72,-29,68,-79,24,-171,25,-220,-73,208,-16,168,90,180,90,360,90,180,360,270,360,360,360,,,,,,,,,,,480.2788,480.2788,,0,20,20,20,1,16,novel,,,,,,,,,,,,,,,,,,,,,,,,,,,,,,,,,,,,,,,,,,,,,,,,,
,,3,2,${e://Field/PROLIFIC_PID,F,18,2023-11-02_19h24.14.809,MouseEye_CC,2023.2.2,Win32,144.3001443,1.022343947,,,2560,1440,44.304,3.68,"151.18, 168.58, 207.39, 204.61, 211.67, 210.92, 192.88",589.53,7.733291966,28.45851443,27.83653633,Passed,95.33602335,,,,,,,,,,,,,,,,,,,,training,2,6,180,right,s,,,,,480.279,480.8968,28.62563053,22.66674805,2.666625977,1,0,0,0.4164,fixationPoint,480.8968,480.9939,480.994,482.3273,28.62563053,8178.751579,492.7697826,s,1,1.3286,,482.3273,482.5287,,,,,,,,52,-172,-25,165,118,77,220,220,116,-29,115,-32,67,-216,29,213,-25,118,-114,121,-163,-120,-20,-68,-70,270,90,270,90,180,90,270,90,180,90,360,,,,,,,,,,,482.5287,482.5288,,0,21,21,21,1,9,novel,,,,,,,,,,,,,,,,,,,,,,,,,,,,,,,,,,,,,,,,,,,,,,,,,
,,3,2,${e://Field/PROLIFIC_PID,F,18,2023-11-02_19h24.14.809,MouseEye_CC,2023.2.2,Win32,144.3001443,1.022343947,,,2560,1440,44.304,3.68,"151.18, 168.58, 207.39, 204.61, 211.67, 210.92, 192.88",589.53,7.733291966,28.45851443,27.83653633,Passed,95.33602335,,,,,,,,,,,,,,,,,,,,training,2,7,0,left,a,,,,,482.529,482.9731,28.62563053,-26,-0.666687012,1,0,0,0.2844,fixationPoint,482.9731,483.0704,483.0704,485.7231,28.62563053,8178.751579,492.7697826,a,1,2.6464,,485.7231,485.9245,,,,,,,,26,28,125,-27,209,-166,126,-78,20,-224,-172,-30,-160,-30,-69,80,-30,174,-78,166,-160,165,118,76,22,270,180,90,360,90,180,360,360,180,90,270,,,,,,,,,,,485.9245,485.9245,,0,22,22,22,1,14,novel,,,,,,,,,,,,,,,,,,,,,,,,,,,,,,,,,,,,,,,,,,,,,,,,,
,,3,2,${e://Field/PROLIFIC_PID,F,18,2023-11-02_19h24.14.809,MouseEye_CC,2023.2.2,Win32,144.3001443,1.022343947,,,2560,1440,44.304,3.68,"151.18, 168.58, 207.39, 204.61, 211.67, 210.92, 192.88",589.53,7.733291966,28.45851443,27.83653633,Passed,95.33602335,,,,,,,,,,,,,,,,,,,,training,2,8,0,left,a,,,,,485.9247,486.4036,28.62563053,-12,5.333312988,1,0,0,0.4789,fixationPoint,486.4036,486.5008,486.5009,488.4314,28.62563053,8178.751579,492.7697826,s,0,1.9268,,488.4314,492.4313,,,,,,,,49,160,17,-27,209,-216,168,-224,220,-30,-160,-172,-25,-169,-70,166,-160,116,-19,17,-72,212,166,176,169,90,90,270,180,180,270,90,270,360,270,90,,,,,,,,,,,492.4313,492.4361,,0,23,23,23,1,1,repeated,,,,,,,,,,,,,,,,,,,,,,,,,,,,,,,,,,,,,,,,,,,,,,,,,
,,3,2,${e://Field/PROLIFIC_PID,F,18,2023-11-02_19h24.14.809,MouseEye_CC,2023.2.2,Win32,144.3001443,1.022343947,,,2560,1440,44.304,3.68,"151.18, 168.58, 207.39, 204.61, 211.67, 210.92, 192.88",589.53,7.733291966,28.45851443,27.83653633,Passed,95.33602335,,,,,,,,,,,,,,,,,,,,training,2,9,0,left,a,,,,,492.4363,492.9105,28.62563053,2,-4,1,0,0,0.4742,fixationPoint,492.9105,493.0076,493.0077,496.1326,28.62563053,8178.751579,492.7697826,a,1,3.1179,,496.1327,496.334,,,,,,,,78,118,-114,220,116,17,74,165,118,-67,174,-216,29,-113,169,-19,-219,-224,-172,-209,-65,212,-76,80,-30,270,360,270,180,270,270,90,90,360,360,360,,,,,,,,,,,496.334,496.3341,,0,24,24,24,1,7,repeated,,,,,,,,,,,,,,,,,,,,,,,,,,,,,,,,,,,,,,,,,,,,,,,,,
,,3,2,${e://Field/PROLIFIC_PID,F,18,2023-11-02_19h24.14.809,MouseEye_CC,2023.2.2,Win32,144.3001443,1.022343947,,,2560,1440,44.304,3.68,"151.18, 168.58, 207.39, 204.61, 211.67, 210.92, 192.88",589.53,7.733291966,28.45851443,27.83653633,Passed,95.33602335,,,,,,,,,,,,,,,,,,,,training,2,10,0,left,a,,,,,496.3342,496.7089,28.62563053,1.333374023,-5.333374023,1,0,0,0.3747,fixationPoint,496.7089,496.8062,496.8062,497.6049,28.62563053,8178.751579,492.7697826,a,1,0.7865,,497.6049,497.8026,,,,,,,,33,-125,65,212,166,176,169,65,112,-27,-120,-30,-160,-19,-219,17,-72,125,-212,167,-216,-16,168,-27,209,90,90,270,360,180,360,180,270,360,180,90,,,,,,,,,,,497.8026,497.8026,,0,25,25,25,1,4,repeated,,,,,,,,,,,,,,,,,,,,,,,,,,,,,,,,,,,,,,,,,,,,,,,,,
,,3,2,${e://Field/PROLIFIC_PID,F,18,2023-11-02_19h24.14.809,MouseEye_CC,2023.2.2,Win32,144.3001443,1.022343947,,,2560,1440,44.304,3.68,"151.18, 168.58, 207.39, 204.61, 211.67, 210.92, 192.88",589.53,7.733291966,28.45851443,27.83653633,Passed,95.33602335,,,,,,,,,,,,,,,,,,,,training,2,11,180,right,s,,,,,497.8029,498.2159,28.62563053,2.666748047,-7.333374023,1,0,0,0.413,fixationPoint,498.2159,498.3131,498.3132,502.4588,28.62563053,8178.751579,492.7697826,s,1,4.1337,,502.4588,502.6565,,,,,,,,23,-128,119,220,116,119,117,120,28,-224,-172,-120,-122,-209,-65,118,-114,24,-171,166,-160,-165,32,-125,65,180,180,90,270,360,180,360,180,90,270,270,,,,,,,,,,,502.6565,502.6565,,0,26,26,26,1,15,novel,,,,,,,,,,,,,,,,,,,,,,,,,,,,,,,,,,,,,,,,,,,,,,,,,
,,3,2,${e://Field/PROLIFIC_PID,F,18,2023-11-02_19h24.14.809,MouseEye_CC,2023.2.2,Win32,144.3001443,1.022343947,,,2560,1440,44.304,3.68,"151.18, 168.58, 207.39, 204.61, 211.67, 210.92, 192.88",589.53,7.733291966,28.45851443,27.83653633,Passed,95.33602335,,,,,,,,,,,,,,,,,,,,training,2,12,180,right,s,,,,,502.6568,502.9657,28.62563053,-6.666625977,-8.666687012,1,0,0,0.3089,fixationPoint,502.9657,503.063,503.0631,504.6185,28.62563053,8178.751579,492.7697826,s,1,1.5417,,504.6186,504.8199,,,,,,,,85,-30,-160,223,16,160,17,120,28,-68,73,-118,29,-125,65,164,-128,167,-216,70,-118,-72,-29,-216,-17,270,180,270,360,90,180,180,90,360,360,90,,,,,,,,,,,504.82,504.82,,0,27,27,27,1,5,repeated,,,,,,,,,,,,,,,,,,,,,,,,,,,,,,,,,,,,,,,,,,,,,,,,,
,,3,2,${e://Field/PROLIFIC_PID,F,18,2023-11-02_19h24.14.809,MouseEye_CC,2023.2.2,Win32,144.3001443,1.022343947,,,2560,1440,44.304,3.68,"151.18, 168.58, 207.39, 204.61, 211.67, 210.92, 192.88",589.53,7.733291966,28.45851443,27.83653633,Passed,95.33602335,,,,,,,,,,,,,,,,,,,,training,2,13,180,right,s,,,,,504.8201,505.931,28.62563053,16.66674805,2.666625977,1,0,0,0.8401,fixationPoint,505.931,506.0282,506.0282,508.9031,28.62563053,8178.751579,492.7697826,s,1,2.8619,,508.9031,509.1011,,,,,,,,69,174,-78,212,166,160,17,113,67,-161,172,-21,24,-78,20,-209,-65,-120,-122,-30,-69,68,-79,213,-25,180,180,360,90,180,360,270,90,180,180,180,,,,,,,,,,,509.1011,509.1011,,0,28,28,28,1,11,novel,,,,,,,,,,,,,,,,,,,,,,,,,,,,,,,,,,,,,,,,,,,,,,,,,
,,3,2,${e://Field/PROLIFIC_PID,F,18,2023-11-02_19h24.14.809,MouseEye_CC,2023.2.2,Win32,144.3001443,1.022343947,,,2560,1440,44.304,3.68,"151.18, 168.58, 207.39, 204.61, 211.67, 210.92, 192.88",589.53,7.733291966,28.45851443,27.83653633,Passed,95.33602335,,,,,,,,,,,,,,,,,,,,training,2,14,0,left,a,,,,,509.1014,509.4864,28.62563053,-8.666625977,-4,1,0,0,0.385,fixationPoint,509.4864,509.5836,509.5836,511.042,28.62563053,8178.751579,492.7697826,a,1,1.4469,,511.042,511.2379,,,,,,,,75,-27,-120,218,208,172,223,217,70,-216,29,-21,24,-161,172,118,-114,68,-79,121,-163,-72,-29,-114,-171,180,90,90,270,180,270,180,180,360,180,360,,,,,,,,,,,511.2379,511.238,,0,29,29,29,1,6,repeated,,,,,,,,,,,,,,,,,,,,,,,,,,,,,,,,,,,,,,,,,,,,,,,,,
,,3,2,${e://Field/PROLIFIC_PID,F,18,2023-11-02_19h24.14.809,MouseEye_CC,2023.2.2,Win32,144.3001443,1.022343947,,,2560,1440,44.304,3.68,"151.18, 168.58, 207.39, 204.61, 211.67, 210.92, 192.88",589.53,7.733291966,28.45851443,27.83653633,Passed,95.33602335,,,,,,,,,,,,,,,,,,,,training,2,15,180,right,s,,,,,511.2382,511.5907,28.62563053,-2.666625977,2,1,0,0,0.3524,fixationPoint,511.5907,511.6878,511.6878,514.0558,28.62563053,8178.751579,492.7697826,s,1,2.3568,,514.0559,514.2537,,,,,,,,39,165,68,-165,223,-27,209,-125,65,-112,-219,-128,-80,-224,-172,213,-25,67,-216,17,-72,17,74,212,166,270,90,90,180,270,270,90,270,90,90,270,,,,,,,,,,,514.2538,514.2538,,0,30,30,30,1,2,repeated,,,,,,,,,,,,,,,,,,,,,,,,,,,,,,,,,,,,,,,,,,,,,,,,,
,,3,2,${e://Field/PROLIFIC_PID,F,18,2023-11-02_19h24.14.809,MouseEye_CC,2023.2.2,Win32,144.3001443,1.022343947,,,2560,1440,44.304,3.68,"151.18, 168.58, 207.39, 204.61, 211.67, 210.92, 192.88",589.53,7.733291966,28.45851443,27.83653633,Passed,95.33602335,,,,,,,,,,,,,,,,,,,,training,2,16,0,left,a,,,,,514.2541,514.4656,28.62563053,-6.666625977,0.666625977,1,0,0,0.2114,fixationPoint,514.4656,514.5628,514.5628,517.6778,28.62563053,8178.751579,492.7697826,a,1,3.1048,,517.6779,517.8752,,,,,,,,68,124,-80,28,125,212,166,77,220,-113,169,-128,215,-216,29,-120,-20,-68,-70,-209,-208,166,-160,167,-216,360,270,360,270,360,180,360,270,270,360,360,,,,,,,,,,,517.8752,522.6945,space,0,31,31,31,1,12,novel,4.8064,,,,,,,,,,,,,,,,,,,,,,,,,,,,,,,,,,,,,,,,,,,,,,,,
,,3,2,${e://Field/PROLIFIC_PID,F,18,2023-11-02_19h24.14.809,MouseEye_CC,2023.2.2,Win32,144.3001443,1.022343947,,,2560,1440,44.304,3.68,"151.18, 168.58, 207.39, 204.61, 211.67, 210.92, 192.88",589.53,7.733291966,28.45851443,27.83653633,Passed,95.33602335,,,,,,,,,,,,,,,,,,,,training,3,1,180,right,s,,,,,522.6994,523.7502,28.62563053,17.33337402,-6.666687012,1,0,0,0.8909,fixationPoint,523.7502,523.8472,523.8473,526.868,28.62563053,8178.751579,492.7697826,s,1,3.0096,,526.868,527.066,,,,,,,,75,-27,-120,218,208,172,223,217,70,-216,29,-21,24,-161,172,118,-114,68,-79,121,-163,-72,-29,-114,-171,90,90,180,270,360,270,270,360,180,90,360,,,,,,,,,,,527.066,527.0683,,0,32,32,32,1,6,repeated,,,,,,,,,,,,,,,,,,,,,,,,,,,,,,,,,,,,,,,,,,,,,,,,,
,,3,2,${e://Field/PROLIFIC_PID,F,18,2023-11-02_19h24.14.809,MouseEye_CC,2023.2.2,Win32,144.3001443,1.022343947,,,2560,1440,44.304,3.68,"151.18, 168.58, 207.39, 204.61, 211.67, 210.92, 192.88",589.53,7.733291966,28.45851443,27.83653633,Passed,95.33602335,,,,,,,,,,,,,,,,,,,,training,3,2,0,left,a,,,,,527.0685,527.4167,28.62563053,8.666748047,-1.333374023,1,0,0,0.3482,fixationPoint,527.4167,527.5139,527.5139,531.4443,28.62563053,8178.751579,492.7697826,a,1,3.9163,,531.4443,531.6421,,,,,,,,78,118,-114,220,116,17,74,165,118,-67,174,-216,29,-113,169,-19,-219,-224,-172,-209,-65,212,-76,80,-30,180,90,90,90,360,180,270,90,180,180,270,,,,,,,,,,,531.6421,531.6422,,0,33,33,33,1,7,repeated,,,,,,,,,,,,,,,,,,,,,,,,,,,,,,,,,,,,,,,,,,,,,,,,,
,,3,2,${e://Field/PROLIFIC_PID,F,18,2023-11-02_19h24.14.809,MouseEye_CC,2023.2.2,Win32,144.3001443,1.022343947,,,2560,1440,44.304,3.68,"151.18, 168.58, 207.39, 204.61, 211.67, 210.92, 192.88",589.53,7.733291966,28.45851443,27.83653633,Passed,95.33602335,,,,,,,,,,,,,,,,,,,,training,3,3,180,right,s,,,,,531.6424,532.4582,28.62563053,2.666748047,-15.33337402,1,0,0,0.3262,fixationPoint,532.4582,532.5585,532.5585,537.847,28.62563053,8178.751579,492.7697826,s,1,5.2797,,537.847,538.0448,,,,,,,,26,28,125,-67,174,-113,169,-176,74,-68,-70,-216,-17,-224,-172,116,-19,73,-168,124,-80,119,117,120,28,270,180,90,360,180,270,90,180,180,180,270,,,,,,,,,,,538.0448,538.0449,,0,34,34,34,1,14,novel,,,,,,,,,,,,,,,,,,,,,,,,,,,,,,,,,,,,,,,,,,,,,,,,,
,,3,2,${e://Field/PROLIFIC_PID,F,18,2023-11-02_19h24.14.809,MouseEye_CC,2023.2.2,Win32,144.3001443,1.022343947,,,2560,1440,44.304,3.68,"151.18, 168.58, 207.39, 204.61, 211.67, 210.92, 192.88",589.53,7.733291966,28.45851443,27.83653633,Passed,95.33602335,,,,,,,,,,,,,,,,,,,,training,3,4,180,right,s,,,,,538.045,538.3956,28.62563053,0,-12,1,0,0,0.3506,fixationPoint,538.3956,538.4928,538.4928,539.8192,28.62563053,8178.751579,492.7697826,s,1,1.3151,,539.8192,540.0168,,,,,,,,33,-125,65,212,166,176,169,65,112,-27,-120,-30,-160,-19,-219,17,-72,125,-212,167,-216,-16,168,-27,209,180,90,90,270,90,360,360,360,90,360,90,,,,,,,,,,,540.0168,540.0169,,0,35,35,35,1,4,repeated,,,,,,,,,,,,,,,,,,,,,,,,,,,,,,,,,,,,,,,,,,,,,,,,,
,,3,2,${e://Field/PROLIFIC_PID,F,18,2023-11-02_19h24.14.809,MouseEye_CC,2023.2.2,Win32,144.3001443,1.022343947,,,2560,1440,44.304,3.68,"151.18, 168.58, 207.39, 204.61, 211.67, 210.92, 192.88",589.53,7.733291966,28.45851443,27.83653633,Passed,95.33602335,,,,,,,,,,,,,,,,,,,,training,3,5,0,left,a,,,,,540.0171,540.3155,28.62563053,-1.333251953,-6.666687012,1,0,0,0.2984,fixationPoint,540.3155,540.4164,540.4164,545.2704,28.62563053,8178.751579,492.7697826,a,1,4.8433,,545.2705,545.4688,,,,,,,,49,160,17,-27,209,-216,168,-224,220,-30,-160,-172,-25,-169,-70,166,-160,116,-19,17,-72,212,166,176,169,270,180,360,270,90,180,180,180,90,360,360,,,,,,,,,,,545.4688,545.4688,,0,36,36,36,1,1,repeated,,,,,,,,,,,,,,,,,,,,,,,,,,,,,,,,,,,,,,,,,,,,,,,,,
,,3,2,${e://Field/PROLIFIC_PID,F,18,2023-11-02_19h24.14.809,MouseEye_CC,2023.2.2,Win32,144.3001443,1.022343947,,,2560,1440,44.304,3.68,"151.18, 168.58, 207.39, 204.61, 211.67, 210.92, 192.88",589.53,7.733291966,28.45851443,27.83653633,Passed,95.33602335,,,,,,,,,,,,,,,,,,,,training,3,6,0,left,a,,,,,545.4691,545.9023,28.62563053,8,0.666625977,1,0,0,0.4332,fixationPoint,545.9024,545.9997,545.9997,547.312,28.62563053,8178.751579,492.7697826,a,1,1.3022,,547.3121,547.5135,,,,,,,,23,-128,119,19,31,28,208,218,208,-209,-65,-120,-122,-30,-160,118,-114,17,-72,212,-212,-78,20,-161,172,90,270,270,90,90,270,180,180,270,360,360,,,,,,,,,,,547.5135,547.5136,,0,37,37,37,1,15,novel,,,,,,,,,,,,,,,,,,,,,,,,,,,,,,,,,,,,,,,,,,,,,,,,,
,,3,2,${e://Field/PROLIFIC_PID,F,18,2023-11-02_19h24.14.809,MouseEye_CC,2023.2.2,Win32,144.3001443,1.022343947,,,2560,1440,44.304,3.68,"151.18, 168.58, 207.39, 204.61, 211.67, 210.92, 192.88",589.53,7.733291966,28.45851443,27.83653633,Passed,95.33602335,,,,,,,,,,,,,,,,,,,,training,3,7,180,right,s,,,,,547.5137,548.0412,28.62563053,-5.333251953,2.666625977,1,0,0,0.5275,fixationPoint,548.0413,548.1406,548.1406,549.438,28.62563053,8178.751579,492.7697826,s,1,1.29,,549.4381,549.6394,,,,,,,,3,-128,215,165,118,212,166,120,28,-175,-212,-27,-120,-209,-208,164,-128,221,-160,17,-72,-216,75,-73,208,180,90,180,180,360,180,180,360,270,270,360,,,,,,,,,,,549.6394,549.6394,,0,38,38,38,1,16,novel,,,,,,,,,,,,,,,,,,,,,,,,,,,,,,,,,,,,,,,,,,,,,,,,,
,,3,2,${e://Field/PROLIFIC_PID,F,18,2023-11-02_19h24.14.809,MouseEye_CC,2023.2.2,Win32,144.3001443,1.022343947,,,2560,1440,44.304,3.68,"151.18, 168.58, 207.39, 204.61, 211.67, 210.92, 192.88",589.53,7.733291966,28.45851443,27.83653633,Passed,95.33602335,,,,,,,,,,,,,,,,,,,,training,3,8,0,left,a,,,,,549.6396,550.0412,28.62563053,3.333374023,-1.333374023,1,0,0,0.4015,fixationPoint,550.0412,550.1383,550.1383,552.8745,28.62563053,8178.751579,492.7697826,a,1,2.7229,,552.8745,553.0699,,,,,,,,69,174,-78,223,16,80,64,77,220,-78,20,-165,223,-16,168,-224,-172,-120,-20,-170,-172,213,-25,70,-118,270,270,90,270,360,360,270,180,180,180,360,,,,,,,,,,,553.0699,553.0699,,0,39,39,39,1,11,novel,,,,,,,,,,,,,,,,,,,,,,,,,,,,,,,,,,,,,,,,,,,,,,,,,
,,3,2,${e://Field/PROLIFIC_PID,F,18,2023-11-02_19h24.14.809,MouseEye_CC,2023.2.2,Win32,144.3001443,1.022343947,,,2560,1440,44.304,3.68,"151.18, 168.58, 207.39, 204.61, 211.67, 210.92, 192.88",589.53,7.733291966,28.45851443,27.83653633,Passed,95.33602335,,,,,,,,,,,,,,,,,,,,training,3,9,0,left,a,,,,,553.07,553.423,28.62563053,-4.666625977,-2,1,0,0,0.3529,fixationPoint,553.423,553.5213,553.5213,555.9754,28.62563053,8178.751579,492.7697826,a,1,2.4472,,555.9755,556.1767,,,,,,,,52,-172,-25,65,112,28,125,68,161,-216,29,-21,24,-73,208,116,-19,27,-28,212,-76,-30,-69,-120,-20,180,90,180,90,360,90,360,180,360,180,90,,,,,,,,,,,556.1767,556.1768,,0,40,40,40,1,9,novel,,,,,,,,,,,,,,,,,,,,,,,,,,,,,,,,,,,,,,,,,,,,,,,,,
,,3,2,${e://Field/PROLIFIC_PID,F,18,2023-11-02_19h24.14.809,MouseEye_CC,2023.2.2,Win32,144.3001443,1.022343947,,,2560,1440,44.304,3.68,"151.18, 168.58, 207.39, 204.61, 211.67, 210.92, 192.88",589.53,7.733291966,28.45851443,27.83653633,Passed,95.33602335,,,,,,,,,,,,,,,,,,,,training,3,10,180,right,s,,,,,556.177,556.5201,28.62563053,-2,1.333312988,1,0,0,0.3431,fixationPoint,556.5202,556.6207,556.6207,559.4229,28.62563053,8178.751579,492.7697826,s,1,2.7914,,559.4229,559.6183,,,,,,,,85,-30,-160,223,16,160,17,120,28,-68,73,-118,29,-125,65,164,-128,167,-216,70,-118,-72,-29,-216,-17,180,270,270,360,360,90,180,360,270,180,360,,,,,,,,,,,559.6184,559.6184,,0,41,41,41,1,5,repeated,,,,,,,,,,,,,,,,,,,,,,,,,,,,,,,,,,,,,,,,,,,,,,,,,
,,3,2,${e://Field/PROLIFIC_PID,F,18,2023-11-02_19h24.14.809,MouseEye_CC,2023.2.2,Win32,144.3001443,1.022343947,,,2560,1440,44.304,3.68,"151.18, 168.58, 207.39, 204.61, 211.67, 210.92, 192.88",589.53,7.733291966,28.45851443,27.83653633,Passed,95.33602335,,,,,,,,,,,,,,,,,,,,training,3,11,180,right,s,,,,,559.6186,559.9854,28.62563053,14,1.333312988,1,0,0,0.3667,fixationPoint,559.9854,560.0826,560.0826,564.1867,28.62563053,8178.751579,492.7697826,s,1,4.0945,,564.1867,564.3822,,,,,,,,62,-169,-70,28,125,28,208,126,215,-128,215,-68,73,-113,169,27,-28,121,-163,125,-212,-167,-126,-114,-171,180,360,180,90,90,90,270,90,180,270,90,,,,,,,,,,,564.3822,564.3823,,0,42,42,42,1,10,novel,,,,,,,,,,,,,,,,,,,,,,,,,,,,,,,,,,,,,,,,,,,,,,,,,
,,3,2,${e://Field/PROLIFIC_PID,F,18,2023-11-02_19h24.14.809,MouseEye_CC,2023.2.2,Win32,144.3001443,1.022343947,,,2560,1440,44.304,3.68,"151.18, 168.58, 207.39, 204.61, 211.67, 210.92, 192.88",589.53,7.733291966,28.45851443,27.83653633,Passed,95.33602335,,,,,,,,,,,,,,,,,,,,training,3,12,0,left,a,,,,,564.3824,564.778,28.62563053,0,-3.333374023,1,0,0,0.3955,fixationPoint,564.778,564.875,564.875,566.888,28.62563053,8178.751579,492.7697826,a,1,2.004,,566.8881,567.0859,,,,,,,,68,124,-80,80,64,28,208,126,215,-27,209,-165,223,-176,74,-27,-120,-210,-124,-209,-65,67,-216,70,-118,270,90,270,270,90,270,180,180,180,270,360,,,,,,,,,,,567.0859,567.0859,,0,43,43,43,1,12,novel,,,,,,,,,,,,,,,,,,,,,,,,,,,,,,,,,,,,,,,,,,,,,,,,,
,,3,2,${e://Field/PROLIFIC_PID,F,18,2023-11-02_19h24.14.809,MouseEye_CC,2023.2.2,Win32,144.3001443,1.022343947,,,2560,1440,44.304,3.68,"151.18, 168.58, 207.39, 204.61, 211.67, 210.92, 192.88",589.53,7.733291966,28.45851443,27.83653633,Passed,95.33602335,,,,,,,,,,,,,,,,,,,,training,3,13,0,left,a,,,,,567.0862,567.3812,28.62563053,7.333374023,-8.666687012,1,0,0,0.295,fixationPoint,567.3812,567.4783,567.4783,568.5616,28.62563053,8178.751579,492.7697826,a,1,1.0703,,568.5616,568.7631,,,,,,,,39,165,68,-165,223,-27,209,-125,65,-112,-219,-128,-80,-224,-172,213,-25,67,-216,17,-72,17,74,212,166,270,180,180,270,90,360,360,360,90,90,360,,,,,,,,,,,568.7631,568.7631,,0,44,44,44,1,2,repeated,,,,,,,,,,,,,,,,,,,,,,,,,,,,,,,,,,,,,,,,,,,,,,,,,
,,3,2,${e://Field/PROLIFIC_PID,F,18,2023-11-02_19h24.14.809,MouseEye_CC,2023.2.2,Win32,144.3001443,1.022343947,,,2560,1440,44.304,3.68,"151.18, 168.58, 207.39, 204.61, 211.67, 210.92, 192.88",589.53,7.733291966,28.45851443,27.83653633,Passed,95.33602335,,,,,,,,,,,,,,,,,,,,training,3,14,180,right,s,,,,,568.7633,569.2213,28.62563053,-2,-4.666687012,1,0,0,0.4579,fixationPoint,569.2214,569.3186,569.3186,570.2422,28.62563053,8178.751579,492.7697826,s,1,0.9123,,570.2422,570.4398,,,,,,,,32,-176,74,17,74,124,168,113,67,-70,-128,-72,-29,-209,-208,17,-72,167,-216,80,-30,-165,223,-78,20,360,360,360,180,180,180,360,360,90,360,360,,,,,,,,,,,570.4399,570.4399,,0,45,45,45,1,3,repeated,,,,,,,,,,,,,,,,,,,,,,,,,,,,,,,,,,,,,,,,,,,,,,,,,
,,3,2,${e://Field/PROLIFIC_PID,F,18,2023-11-02_19h24.14.809,MouseEye_CC,2023.2.2,Win32,144.3001443,1.022343947,,,2560,1440,44.304,3.68,"151.18, 168.58, 207.39, 204.61, 211.67, 210.92, 192.88",589.53,7.733291966,28.45851443,27.83653633,Passed,95.33602335,,,,,,,,,,,,,,,,,,,,training,3,15,180,right,s,,,,,570.44,570.7075,28.62563053,5.333374023,-3.333374023,1,0,0,0.2673,fixationPoint,570.7075,570.8066,570.8067,575.4852,28.62563053,8178.751579,492.7697826,s,1,4.6688,,575.4852,575.6864,,,,,,,,16,23,172,-67,174,-128,119,-78,114,-128,-80,-224,-172,-120,-20,27,-28,20,-117,118,-114,28,125,68,161,180,360,180,270,360,270,90,180,180,360,90,,,,,,,,,,,575.6864,575.6866,,0,46,46,46,1,13,novel,,,,,,,,,,,,,,,,,,,,,,,,,,,,,,,,,,,,,,,,,,,,,,,,,
,,3,2,${e://Field/PROLIFIC_PID,F,18,2023-11-02_19h24.14.809,MouseEye_CC,2023.2.2,Win32,144.3001443,1.022343947,,,2560,1440,44.304,3.68,"151.18, 168.58, 207.39, 204.61, 211.67, 210.92, 192.88",589.53,7.733291966,28.45851443,27.83653633,Passed,95.33602335,,,,,,,,,,,,,,,,,,,,training,3,16,0,left,a,,,,,575.6868,576.0059,28.62563053,-6.666625977,1.333312988,1,0,0,0.3191,fixationPoint,576.0059,576.1031,576.1031,579.4595,28.62563053,8178.751579,492.7697826,a,1,3.3463,,579.4596,579.6585,,,,,,,,98,125,-212,65,112,28,125,28,208,-216,75,-32,67,-216,29,-216,-17,-68,-213,-70,-128,118,-114,212,-76,270,270,360,90,90,360,270,90,270,360,270,,,,,,,,,,,579.6586,588.5231,space,0,47,47,47,1,8,repeated,8.8543,,,,,,,,,,,,,,,,,,,,,,,,,,,,,,,,,,,,,,,,,,,,,,,,
,,3,2,${e://Field/PROLIFIC_PID,F,18,2023-11-02_19h24.14.809,MouseEye_CC,2023.2.2,Win32,144.3001443,1.022343947,,,2560,1440,44.304,3.68,"151.18, 168.58, 207.39, 204.61, 211.67, 210.92, 192.88",589.53,7.733291966,28.45851443,27.83653633,Passed,95.33602335,,,,,,,,,,,,,,,,,,,,training,4,1,0,left,a,,,,,588.5286,589.5959,28.62563053,3.333374023,-2,1,0,0,1.0673,fixationPoint,589.5959,589.6932,589.6932,591.7347,28.62563053,8178.751579,492.7697826,a,1,2.0283,,591.7348,591.9323,,,,,,,,78,118,-114,220,116,17,74,165,118,-67,174,-216,29,-113,169,-19,-219,-224,-172,-209,-65,212,-76,80,-30,180,360,270,360,90,180,270,90,360,270,360,,,,,,,,,,,591.9324,591.9348,,0,48,48,48,1,7,repeated,,,,,,,,,,,,,,,,,,,,,,,,,,,,,,,,,,,,,,,,,,,,,,,,,
,,3,2,${e://Field/PROLIFIC_PID,F,18,2023-11-02_19h24.14.809,MouseEye_CC,2023.2.2,Win32,144.3001443,1.022343947,,,2560,1440,44.304,3.68,"151.18, 168.58, 207.39, 204.61, 211.67, 210.92, 192.88",589.53,7.733291966,28.45851443,27.83653633,Passed,95.33602335,,,,,,,,,,,,,,,,,,,,training,4,2,180,right,s,,,,,591.935,592.5541,28.62563053,-2.666625977,-14.66668701,1,0,0,0.3309,fixationPoint,592.5541,592.6514,592.6514,596.2382,28.62563053,8178.751579,492.7697826,s,1,3.5792,,596.2382,596.4361,,,,,,,,16,23,172,-68,73,-78,114,-166,126,-128,-80,-210,-124,-112,-219,124,-80,212,-76,17,-72,76,22,28,125,180,90,270,90,360,270,180,270,90,90,90,,,,,,,,,,,596.4361,596.4361,,0,49,49,49,1,13,novel,,,,,,,,,,,,,,,,,,,,,,,,,,,,,,,,,,,,,,,,,,,,,,,,,
,,3,2,${e://Field/PROLIFIC_PID,F,18,2023-11-02_19h24.14.809,MouseEye_CC,2023.2.2,Win32,144.3001443,1.022343947,,,2560,1440,44.304,3.68,"151.18, 168.58, 207.39, 204.61, 211.67, 210.92, 192.88",589.53,7.733291966,28.45851443,27.83653633,Passed,95.33602335,,,,,,,,,,,,,,,,,,,,training,4,3,180,right,s,,,,,596.4363,596.7139,28.62563053,-2.666625977,-5.333374023,1,0,0,0.2775,fixationPoint,596.7139,596.8142,596.8142,598.0957,28.62563053,8178.751579,492.7697826,s,1,1.2703,,598.0957,598.2934,,,,,,,,52,-172,-25,160,17,172,223,65,112,-68,73,-73,208,-21,24,213,-25,68,-79,208,-120,-28,-23,-30,-160,360,90,270,360,180,90,90,360,360,90,270,,,,,,,,,,,598.2934,598.2935,,0,50,50,50,1,9,novel,,,,,,,,,,,,,,,,,,,,,,,,,,,,,,,,,,,,,,,,,,,,,,,,,
,,3,2,${e://Field/PROLIFIC_PID,F,18,2023-11-02_19h24.14.809,MouseEye_CC,2023.2.2,Win32,144.3001443,1.022343947,,,2560,1440,44.304,3.68,"151.18, 168.58, 207.39, 204.61, 211.67, 210.92, 192.88",589.53,7.733291966,28.45851443,27.83653633,Passed,95.33602335,,,,,,,,,,,,,,,,,,,,training,4,4,180,right,s,,,,,598.2936,598.5471,28.62563053,-2.666625977,0,1,0,0,0.2534,fixationPoint,598.5471,598.6444,598.6444,600.2484,28.62563053,8178.751579,492.7697826,s,1,1.5929,,600.2485,600.4445,,,,,,,,98,125,-212,65,112,28,125,28,208,-216,75,-32,67,-216,29,-216,-17,-68,-213,-70,-128,118,-114,212,-76,90,360,180,180,180,270,360,90,270,90,90,,,,,,,,,,,600.4445,600.4446,,0,51,51,51,1,8,repeated,,,,,,,,,,,,,,,,,,,,,,,,,,,,,,,,,,,,,,,,,,,,,,,,,
,,3,2,${e://Field/PROLIFIC_PID,F,18,2023-11-02_19h24.14.809,MouseEye_CC,2023.2.2,Win32,144.3001443,1.022343947,,,2560,1440,44.304,3.68,"151.18, 168.58, 207.39, 204.61, 211.67, 210.92, 192.88",589.53,7.733291966,28.45851443,27.83653633,Passed,95.33602335,,,,,,,,,,,,,,,,,,,,training,4,5,180,right,s,,,,,600.4448,600.6304,28.62563053,8.666748047,-4,1,0,0,0.1856,fixationPoint,600.6304,600.7275,600.7275,601.4845,28.62563053,8178.751579,492.7697826,s,1,0.7448,,601.4845,601.6824,,,,,,,,32,-176,74,17,74,124,168,113,67,-70,-128,-72,-29,-209,-208,17,-72,167,-216,80,-30,-165,223,-78,20,180,270,270,180,90,270,270,90,180,180,90,,,,,,,,,,,601.6824,601.6824,,0,52,52,52,1,3,repeated,,,,,,,,,,,,,,,,,,,,,,,,,,,,,,,,,,,,,,,,,,,,,,,,,
,,3,2,${e://Field/PROLIFIC_PID,F,18,2023-11-02_19h24.14.809,MouseEye_CC,2023.2.2,Win32,144.3001443,1.022343947,,,2560,1440,44.304,3.68,"151.18, 168.58, 207.39, 204.61, 211.67, 210.92, 192.88",589.53,7.733291966,28.45851443,27.83653633,Passed,95.33602335,,,,,,,,,,,,,,,,,,,,training,4,6,180,right,s,,,,,601.6826,601.9985,28.62563053,-9.333251953,8,1,0,0,0.3158,fixationPoint,601.9985,602.099,602.0991,605.2693,28.62563053,8178.751579,492.7697826,s,1,3.1602,,605.2693,605.4705,,,,,,,,49,160,17,-27,209,-216,168,-224,220,-30,-160,-172,-25,-169,-70,166,-160,116,-19,17,-72,212,166,176,169,360,270,90,270,360,90,270,90,360,360,360,,,,,,,,,,,605.4705,605.4706,,0,53,53,53,1,1,repeated,,,,,,,,,,,,,,,,,,,,,,,,,,,,,,,,,,,,,,,,,,,,,,,,,
,,3,2,${e://Field/PROLIFIC_PID,F,18,2023-11-02_19h24.14.809,MouseEye_CC,2023.2.2,Win32,144.3001443,1.022343947,,,2560,1440,44.304,3.68,"151.18, 168.58, 207.39, 204.61, 211.67, 210.92, 192.88",589.53,7.733291966,28.45851443,27.83653633,Passed,95.33602335,,,,,,,,,,,,,,,,,,,,training,4,7,0,left,a,,,,,605.4708,605.672,28.62563053,8,-2.666687012,1,0,0,0.2012,fixationPoint,605.672,605.7692,605.7692,606.7205,28.62563053,8178.751579,492.7697826,a,1,0.9376,,606.7206,606.9219,,,,,,,,23,-128,119,65,112,124,168,23,172,-210,-124,-19,-219,-70,-128,212,-212,17,-72,24,-171,-224,220,-128,215,90,360,360,90,180,90,180,180,360,270,90,,,,,,,,,,,606.922,606.922,,0,54,54,54,1,15,novel,,,,,,,,,,,,,,,,,,,,,,,,,,,,,,,,,,,,,,,,,,,,,,,,,
,,3,2,${e://Field/PROLIFIC_PID,F,18,2023-11-02_19h24.14.809,MouseEye_CC,2023.2.2,Win32,144.3001443,1.022343947,,,2560,1440,44.304,3.68,"151.18, 168.58, 207.39, 204.61, 211.67, 210.92, 192.88",589.53,7.733291966,28.45851443,27.83653633,Passed,95.33602335,,,,,,,,,,,,,,,,,,,,training,4,8,0,left,a,,,,,606.9222,607.1163,28.62563053,-1.333251953,0,1,0,0,0.1941,fixationPoint,607.1163,607.2136,607.2136,610.5398,28.62563053,8178.751579,492.7697826,a,1,3.3134,,610.5399,610.7414,,,,,,,,69,174,-78,77,220,19,31,165,68,-161,172,-216,75,-125,65,-68,-70,-72,-29,-209,-65,125,-212,73,-168,360,90,270,180,90,180,360,180,360,180,180,,,,,,,,,,,610.7414,610.7415,,0,55,55,55,1,11,novel,,,,,,,,,,,,,,,,,,,,,,,,,,,,,,,,,,,,,,,,,,,,,,,,,
,,3,2,${e://Field/PROLIFIC_PID,F,18,2023-11-02_19h24.14.809,MouseEye_CC,2023.2.2,Win32,144.3001443,1.022343947,,,2560,1440,44.304,3.68,"151.18, 168.58, 207.39, 204.61, 211.67, 210.92, 192.88",589.53,7.733291966,28.45851443,27.83653633,Passed,95.33602335,,,,,,,,,,,,,,,,,,,,training,4,9,0,left,a,,,,,610.7416,610.9496,28.62563053,-6,2.666625977,1,0,0,0.2079,fixationPoint,610.9497,611.0469,611.0469,614.2273,28.62563053,8178.751579,492.7697826,a,1,3.1663,,614.2273,614.4287,,,,,,,,62,-169,-70,212,166,176,169,165,118,-125,65,-73,208,-118,29,164,-128,121,-163,25,-220,-170,-172,-19,-219,180,360,180,270,360,270,270,360,90,90,90,,,,,,,,,,,614.4287,614.4287,,0,56,56,56,1,10,novel,,,,,,,,,,,,,,,,,,,,,,,,,,,,,,,,,,,,,,,,,,,,,,,,,
,,3,2,${e://Field/PROLIFIC_PID,F,18,2023-11-02_19h24.14.809,MouseEye_CC,2023.2.2,Win32,144.3001443,1.022343947,,,2560,1440,44.304,3.68,"151.18, 168.58, 207.39, 204.61, 211.67, 210.92, 192.88",589.53,7.733291966,28.45851443,27.83653633,Passed,95.33602335,,,,,,,,,,,,,,,,,,,,training,4,10,180,right,s,,,,,614.4289,614.9288,28.62563053,-9.333251953,2.666625977,1,0,0,0.4999,fixationPoint,614.9288,615.0291,615.0292,617.2168,28.62563053,8178.751579,492.7697826,s,1,2.1806,,617.2169,617.4147,,,,,,,,26,28,125,-67,174,-128,215,-161,172,-216,-17,-70,-128,-209,-208,17,-72,213,-25,25,-220,77,220,212,166,90,90,360,360,180,360,270,90,270,90,360,,,,,,,,,,,617.4147,617.4147,,0,57,57,57,1,14,novel,,,,,,,,,,,,,,,,,,,,,,,,,,,,,,,,,,,,,,,,,,,,,,,,,
,,3,2,${e://Field/PROLIFIC_PID,F,18,2023-11-02_19h24.14.809,MouseEye_CC,2023.2.2,Win32,144.3001443,1.022343947,,,2560,1440,44.304,3.68,"151.18, 168.58, 207.39, 204.61, 211.67, 210.92, 192.88",589.53,7.733291966,28.45851443,27.83653633,Passed,95.33602335,,,,,,,,,,,,,,,,,,,,training,4,11,0,left,a,,,,,617.4149,617.7134,28.62563053,-7.333251953,0,1,0,0,0.2983,fixationPoint,617.7134,617.8105,617.8105,620.5744,28.62563053,8178.751579,492.7697826,a,1,2.7495,,620.5744,620.7714,,,,,,,,33,-125,65,212,166,176,169,65,112,-27,-120,-30,-160,-19,-219,17,-72,125,-212,167,-216,-16,168,-27,209,360,270,180,180,180,90,270,180,270,360,180,,,,,,,,,,,620.7714,620.7715,,0,58,58,58,1,4,repeated,,,,,,,,,,,,,,,,,,,,,,,,,,,,,,,,,,,,,,,,,,,,,,,,,
,,3,2,${e://Field/PROLIFIC_PID,F,18,2023-11-02_19h24.14.809,MouseEye_CC,2023.2.2,Win32,144.3001443,1.022343947,,,2560,1440,44.304,3.68,"151.18, 168.58, 207.39, 204.61, 211.67, 210.92, 192.88",589.53,7.733291966,28.45851443,27.83653633,Passed,95.33602335,,,,,,,,,,,,,,,,,,,,training,4,12,0,left,a,,,,,620.7717,621.0292,28.62563053,-9.333251953,0,1,0,0,0.2574,fixationPoint,621.0292,621.1299,621.1299,624.3938,28.62563053,8178.751579,492.7697826,a,1,3.2518,,624.3938,624.5951,,,,,,,,68,124,-80,113,67,76,22,220,116,-128,215,-78,114,-128,119,-209,-208,-224,-172,-72,-29,164,-128,212,-212,270,270,270,90,90,180,90,90,360,90,180,,,,,,,,,,,624.5952,624.5952,,0,59,59,59,1,12,novel,,,,,,,,,,,,,,,,,,,,,,,,,,,,,,,,,,,,,,,,,,,,,,,,,
,,3,2,${e://Field/PROLIFIC_PID,F,18,2023-11-02_19h24.14.809,MouseEye_CC,2023.2.2,Win32,144.3001443,1.022343947,,,2560,1440,44.304,3.68,"151.18, 168.58, 207.39, 204.61, 211.67, 210.92, 192.88",589.53,7.733291966,28.45851443,27.83653633,Passed,95.33602335,,,,,,,,,,,,,,,,,,,,training,4,13,0,left,a,,,,,624.5954,624.8557,28.62563053,-6,1.333312988,1,0,0,0.2603,fixationPoint,624.8558,624.9562,624.9562,628.8104,28.62563053,8178.751579,492.7697826,a,1,3.8405,,628.8104,629.0143,,,,,,,,39,165,68,-165,223,-27,209,-125,65,-112,-219,-128,-80,-224,-172,213,-25,67,-216,17,-72,17,74,212,166,180,270,90,180,180,360,180,360,270,90,360,,,,,,,,,,,629.0144,629.0144,,0,60,60,60,1,2,repeated,,,,,,,,,,,,,,,,,,,,,,,,,,,,,,,,,,,,,,,,,,,,,,,,,
,,3,2,${e://Field/PROLIFIC_PID,F,18,2023-11-02_19h24.14.809,MouseEye_CC,2023.2.2,Win32,144.3001443,1.022343947,,,2560,1440,44.304,3.68,"151.18, 168.58, 207.39, 204.61, 211.67, 210.92, 192.88",589.53,7.733291966,28.45851443,27.83653633,Passed,95.33602335,,,,,,,,,,,,,,,,,,,,training,4,14,180,right,s,,,,,629.0147,629.3589,28.62563053,-6,1.333312988,1,0,0,0.3442,fixationPoint,629.3589,629.4562,629.4562,632.8034,28.62563053,8178.751579,492.7697826,s,1,3.3357,,632.8034,633.0047,,,,,,,,85,-30,-160,223,16,160,17,120,28,-68,73,-118,29,-125,65,164,-128,167,-216,70,-118,-72,-29,-216,-17,270,90,90,90,90,180,360,360,360,180,270,,,,,,,,,,,633.0047,633.0048,,0,61,61,61,1,5,repeated,,,,,,,,,,,,,,,,,,,,,,,,,,,,,,,,,,,,,,,,,,,,,,,,,
,,3,2,${e://Field/PROLIFIC_PID,F,18,2023-11-02_19h24.14.809,MouseEye_CC,2023.2.2,Win32,144.3001443,1.022343947,,,2560,1440,44.304,3.68,"151.18, 168.58, 207.39, 204.61, 211.67, 210.92, 192.88",589.53,7.733291966,28.45851443,27.83653633,Passed,95.33602335,,,,,,,,,,,,,,,,,,,,training,4,15,0,left,a,,,,,633.0049,633.2269,28.62563053,-6.666625977,2.666625977,1,0,0,0.222,fixationPoint,633.2269,633.3241,633.3241,643.582,28.62563053,8178.751579,492.7697826,a,1,10.2475,,643.582,643.7822,,,,,,,,3,-128,215,165,68,212,166,19,31,-128,-80,-170,-172,-120,-122,118,-114,221,-160,20,-117,-125,65,-161,172,270,360,180,90,270,270,270,270,180,180,360,,,,,,,,,,,643.7822,643.7824,,0,62,62,62,1,16,novel,,,,,,,,,,,,,,,,,,,,,,,,,,,,,,,,,,,,,,,,,,,,,,,,,
,,3,2,${e://Field/PROLIFIC_PID,F,18,2023-11-02_19h24.14.809,MouseEye_CC,2023.2.2,Win32,144.3001443,1.022343947,,,2560,1440,44.304,3.68,"151.18, 168.58, 207.39, 204.61, 211.67, 210.92, 192.88",589.53,7.733291966,28.45851443,27.83653633,Passed,95.33602335,,,,,,,,,,,,,,,,,,,,training,4,16,180,right,s,,,,,643.7825,644.0809,28.62563053,-6,-0.666687012,1,0,0,0.2983,fixationPoint,644.0809,644.1781,644.1781,647.4002,28.62563053,8178.751579,492.7697826,s,1,3.2123,,647.4003,647.5982,,,,,,,,75,-27,-120,218,208,172,223,217,70,-216,29,-21,24,-161,172,118,-114,68,-79,121,-163,-72,-29,-114,-171,180,270,270,90,180,90,360,180,360,180,270,,,,,,,,,,,647.5982,676.6781,space,0,63,63,63,1,6,repeated,29.0719,,,,,,,,,,,,,,,,,,,,,,,,,,,,,,,,,,,,,,,,,,,,,,,,
,,3,2,${e://Field/PROLIFIC_PID,F,18,2023-11-02_19h24.14.809,MouseEye_CC,2023.2.2,Win32,144.3001443,1.022343947,,,2560,1440,44.304,3.68,"151.18, 168.58, 207.39, 204.61, 211.67, 210.92, 192.88",589.53,7.733291966,28.45851443,27.83653633,Passed,95.33602335,,,,,,,,,,,,,,,,,,,,training,5,1,180,right,s,,,,,676.6832,678.5879,28.62563053,10,16.66662598,1,0,0,1.5922,fixationPoint,678.5879,678.6849,678.6849,680.666,28.62563053,8178.751579,492.7697826,s,1,1.9742,,680.6661,680.8672,,,,,,,,62,-169,-70,19,31,65,112,124,168,-165,223,-78,20,-128,119,124,-80,164,-128,208,-120,-30,-160,-216,-17,90,90,180,360,360,90,270,360,360,90,90,,,,,,,,,,,680.8672,680.8699,,0,64,64,64,1,10,novel,,,,,,,,,,,,,,,,,,,,,,,,,,,,,,,,,,,,,,,,,,,,,,,,,
,,3,2,${e://Field/PROLIFIC_PID,F,18,2023-11-02_19h24.14.809,MouseEye_CC,2023.2.2,Win32,144.3001443,1.022343947,,,2560,1440,44.304,3.68,"151.18, 168.58, 207.39, 204.61, 211.67, 210.92, 192.88",589.53,7.733291966,28.45851443,27.83653633,Passed,95.33602335,,,,,,,,,,,,,,,,,,,,training,5,2,0,left,a,,,,,680.8701,681.263,28.62563053,2,-9.333374023,1,0,0,0.3928,fixationPoint,681.263,681.3601,681.3601,684.8408,28.62563053,8178.751579,492.7697826,a,1,3.4737,,684.8408,685.0429,,,,,,,,68,124,-80,120,28,218,208,124,168,-67,174,-68,73,-27,209,-120,-20,-216,-17,-209,-208,121,-163,68,-79,180,90,270,360,360,270,90,270,90,90,270,,,,,,,,,,,685.0429,685.0429,,0,65,65,65,1,12,novel,,,,,,,,,,,,,,,,,,,,,,,,,,,,,,,,,,,,,,,,,,,,,,,,,
,,3,2,${e://Field/PROLIFIC_PID,F,18,2023-11-02_19h24.14.809,MouseEye_CC,2023.2.2,Win32,144.3001443,1.022343947,,,2560,1440,44.304,3.68,"151.18, 168.58, 207.39, 204.61, 211.67, 210.92, 192.88",589.53,7.733291966,28.45851443,27.83653633,Passed,95.33602335,,,,,,,,,,,,,,,,,,,,training,5,3,0,left,a,,,,,685.0431,685.7398,28.62563053,12,-17.33337402,1,0,0,0.2766,fixationPoint,685.7398,685.8369,685.837,689.4454,28.62563053,8178.751579,492.7697826,a,1,3.6005,,689.4454,689.6454,,,,,,,,85,-30,-160,223,16,160,17,120,28,-68,73,-118,29,-125,65,164,-128,167,-216,70,-118,-72,-29,-216,-17,90,180,360,270,360,180,360,360,90,180,90,,,,,,,,,,,689.6455,689.6455,,0,66,66,66,1,5,repeated,,,,,,,,,,,,,,,,,,,,,,,,,,,,,,,,,,,,,,,,,,,,,,,,,
,,3,2,${e://Field/PROLIFIC_PID,F,18,2023-11-02_19h24.14.809,MouseEye_CC,2023.2.2,Win32,144.3001443,1.022343947,,,2560,1440,44.304,3.68,"151.18, 168.58, 207.39, 204.61, 211.67, 210.92, 192.88",589.53,7.733291966,28.45851443,27.83653633,Passed,95.33602335,,,,,,,,,,,,,,,,,,,,training,5,4,0,left,a,,,,,689.6457,690.3091,28.62563053,6,-16.66668701,1,0,0,0.3658,fixationPoint,690.3091,690.4064,690.4064,692.6663,28.62563053,8178.751579,492.7697826,a,1,2.2522,,692.6663,692.8645,,,,,,,,26,28,125,-27,209,-165,32,-224,220,-172,-25,-68,-213,-30,-160,25,-220,208,-120,166,-160,160,17,80,64,90,180,180,270,180,180,90,180,90,270,180,,,,,,,,,,,692.8646,692.8647,,0,67,67,67,1,14,novel,,,,,,,,,,,,,,,,,,,,,,,,,,,,,,,,,,,,,,,,,,,,,,,,,
,,3,2,${e://Field/PROLIFIC_PID,F,18,2023-11-02_19h24.14.809,MouseEye_CC,2023.2.2,Win32,144.3001443,1.022343947,,,2560,1440,44.304,3.68,"151.18, 168.58, 207.39, 204.61, 211.67, 210.92, 192.88",589.53,7.733291966,28.45851443,27.83653633,Passed,95.33602335,,,,,,,,,,,,,,,,,,,,training,5,5,0,left,a,,,,,692.8649,693.2118,28.62563053,-8,4.666625977,1,0,0,0.3469,fixationPoint,693.2118,693.311,693.311,699.3644,28.62563053,8178.751579,492.7697826,a,1,6.0403,,699.3645,699.5598,,,,,,,,32,-176,74,17,74,124,168,113,67,-70,-128,-72,-29,-209,-208,17,-72,167,-216,80,-30,-165,223,-78,20,270,180,180,180,270,90,90,180,270,90,90,,,,,,,,,,,699.5598,699.5599,,0,68,68,68,1,3,repeated,,,,,,,,,,,,,,,,,,,,,,,,,,,,,,,,,,,,,,,,,,,,,,,,,
,,3,2,${e://Field/PROLIFIC_PID,F,18,2023-11-02_19h24.14.809,MouseEye_CC,2023.2.2,Win32,144.3001443,1.022343947,,,2560,1440,44.304,3.68,"151.18, 168.58, 207.39, 204.61, 211.67, 210.92, 192.88",589.53,7.733291966,28.45851443,27.83653633,Passed,95.33602335,,,,,,,,,,,,,,,,,,,,training,5,6,180,right,s,,,,,699.5601,699.9339,28.62563053,-0.666625977,0,1,0,0,0.3738,fixationPoint,699.9339,700.031,700.0311,701.8713,28.62563053,8178.751579,492.7697826,s,1,1.8279,,701.8713,702.0727,,,,,,,,98,125,-212,65,112,28,125,28,208,-216,75,-32,67,-216,29,-216,-17,-68,-213,-70,-128,118,-114,212,-76,360,90,180,90,90,360,270,270,270,180,360,,,,,,,,,,,702.0727,702.0728,,0,69,69,69,1,8,repeated,,,,,,,,,,,,,,,,,,,,,,,,,,,,,,,,,,,,,,,,,,,,,,,,,
,,3,2,${e://Field/PROLIFIC_PID,F,18,2023-11-02_19h24.14.809,MouseEye_CC,2023.2.2,Win32,144.3001443,1.022343947,,,2560,1440,44.304,3.68,"151.18, 168.58, 207.39, 204.61, 211.67, 210.92, 192.88",589.53,7.733291966,28.45851443,27.83653633,Passed,95.33602335,,,,,,,,,,,,,,,,,,,,training,5,7,0,left,a,,,,,702.073,702.5727,28.62563053,15.33337402,-2.666687012,1,0,0,0.2567,fixationPoint,702.5728,702.6699,702.6699,703.6353,28.62563053,8178.751579,492.7697826,a,1,0.952,,703.6353,703.8333,,,,,,,,52,-172,-25,223,16,218,208,19,31,-216,29,-113,169,-165,32,221,-160,25,-220,27,-28,-224,-172,-209,-65,270,90,270,270,270,90,180,180,180,360,90,,,,,,,,,,,703.8333,703.8335,,0,70,70,70,1,9,novel,,,,,,,,,,,,,,,,,,,,,,,,,,,,,,,,,,,,,,,,,,,,,,,,,
,,3,2,${e://Field/PROLIFIC_PID,F,18,2023-11-02_19h24.14.809,MouseEye_CC,2023.2.2,Win32,144.3001443,1.022343947,,,2560,1440,44.304,3.68,"151.18, 168.58, 207.39, 204.61, 211.67, 210.92, 192.88",589.53,7.733291966,28.45851443,27.83653633,Passed,95.33602335,,,,,,,,,,,,,,,,,,,,training,5,8,180,right,s,,,,,703.8337,704.1352,28.62563053,0.666748047,0,1,0,0,0.3015,fixationPoint,704.1353,704.2324,704.2325,707.8017,28.62563053,8178.751579,492.7697826,s,1,3.5562,,707.8019,707.9978,,,,,,,,78,118,-114,220,116,17,74,165,118,-67,174,-216,29,-113,169,-19,-219,-224,-172,-209,-65,212,-76,80,-30,270,180,180,360,360,90,90,90,180,90,360,,,,,,,,,,,707.9978,707.9979,,0,71,71,71,1,7,repeated,,,,,,,,,,,,,,,,,,,,,,,,,,,,,,,,,,,,,,,,,,,,,,,,,
,,3,2,${e://Field/PROLIFIC_PID,F,18,2023-11-02_19h24.14.809,MouseEye_CC,2023.2.2,Win32,144.3001443,1.022343947,,,2560,1440,44.304,3.68,"151.18, 168.58, 207.39, 204.61, 211.67, 210.92, 192.88",589.53,7.733291966,28.45851443,27.83653633,Passed,95.33602335,,,,,,,,,,,,,,,,,,,,training,5,9,180,right,s,,,,,707.9981,708.4754,28.62563053,-6,-4.666687012,1,0,0,0.4773,fixationPoint,708.4754,708.5743,708.5743,711.1906,28.62563053,8178.751579,492.7697826,s,1,2.6055,,711.1906,711.3892,,,,,,,,39,165,68,-165,223,-27,209,-125,65,-112,-219,-128,-80,-224,-172,213,-25,67,-216,17,-72,17,74,212,166,180,90,270,90,270,360,360,90,180,270,90,,,,,,,,,,,711.3892,711.3893,,0,72,72,72,1,2,repeated,,,,,,,,,,,,,,,,,,,,,,,,,,,,,,,,,,,,,,,,,,,,,,,,,
,,3,2,${e://Field/PROLIFIC_PID,F,18,2023-11-02_19h24.14.809,MouseEye_CC,2023.2.2,Win32,144.3001443,1.022343947,,,2560,1440,44.304,3.68,"151.18, 168.58, 207.39, 204.61, 211.67, 210.92, 192.88",589.53,7.733291966,28.45851443,27.83653633,Passed,95.33602335,,,,,,,,,,,,,,,,,,,,training,5,10,180,right,s,,,,,711.3895,711.6073,28.62563053,-8,-0.666687012,1,0,0,0.2176,fixationPoint,711.6073,711.708,711.708,713.9839,28.62563053,8178.751579,492.7697826,s,1,2.2693,,713.9839,714.1836,,,,,,,,69,174,-78,165,68,217,70,68,161,-165,223,-224,220,-27,209,-167,-126,-170,-172,-68,-70,221,-160,17,-72,180,90,360,180,360,180,180,180,360,270,180,,,,,,,,,,,714.1836,714.1837,,0,73,73,73,1,11,novel,,,,,,,,,,,,,,,,,,,,,,,,,,,,,,,,,,,,,,,,,,,,,,,,,
,,3,2,${e://Field/PROLIFIC_PID,F,18,2023-11-02_19h24.14.809,MouseEye_CC,2023.2.2,Win32,144.3001443,1.022343947,,,2560,1440,44.304,3.68,"151.18, 168.58, 207.39, 204.61, 211.67, 210.92, 192.88",589.53,7.733291966,28.45851443,27.83653633,Passed,95.33602335,,,,,,,,,,,,,,,,,,,,training,5,11,180,right,s,,,,,714.1839,714.7808,28.62563053,-18.66662598,10.66662598,1,0,0,0.2997,fixationPoint,714.7808,714.8779,714.878,718.371,28.62563053,8178.751579,492.7697826,s,1,3.4829,,718.371,718.567,,,,,,,,75,-27,-120,218,208,172,223,217,70,-216,29,-21,24,-161,172,118,-114,68,-79,121,-163,-72,-29,-114,-171,360,90,360,180,180,180,180,180,180,270,270,,,,,,,,,,,718.567,718.5671,,0,74,74,74,1,6,repeated,,,,,,,,,,,,,,,,,,,,,,,,,,,,,,,,,,,,,,,,,,,,,,,,,
,,3,2,${e://Field/PROLIFIC_PID,F,18,2023-11-02_19h24.14.809,MouseEye_CC,2023.2.2,Win32,144.3001443,1.022343947,,,2560,1440,44.304,3.68,"151.18, 168.58, 207.39, 204.61, 211.67, 210.92, 192.88",589.53,7.733291966,28.45851443,27.83653633,Passed,95.33602335,,,,,,,,,,,,,,,,,,,,training,5,12,180,right,s,,,,,718.5673,718.7808,28.62563053,9.333374023,-4.666687012,1,0,0,0.2135,fixationPoint,718.7808,718.8778,718.8779,721.7113,28.62563053,8178.751579,492.7697826,s,1,2.8215,,721.7113,721.9091,,,,,,,,49,160,17,-27,209,-216,168,-224,220,-30,-160,-172,-25,-169,-70,166,-160,116,-19,17,-72,212,166,176,169,270,270,360,90,180,90,180,270,90,360,180,,,,,,,,,,,721.9091,721.9091,,0,75,75,75,1,1,repeated,,,,,,,,,,,,,,,,,,,,,,,,,,,,,,,,,,,,,,,,,,,,,,,,,
,,3,2,${e://Field/PROLIFIC_PID,F,18,2023-11-02_19h24.14.809,MouseEye_CC,2023.2.2,Win32,144.3001443,1.022343947,,,2560,1440,44.304,3.68,"151.18, 168.58, 207.39, 204.61, 211.67, 210.92, 192.88",589.53,7.733291966,28.45851443,27.83653633,Passed,95.33602335,,,,,,,,,,,,,,,,,,,,training,5,13,0,left,a,,,,,721.9093,722.4126,28.62563053,2.666748047,16,1,0,0,0.2613,fixationPoint,722.4126,722.5098,722.5098,723.3987,28.62563053,8178.751579,492.7697826,a,1,0.8806,,723.3987,723.5941,,,,,,,,23,-128,119,113,67,119,117,212,166,-19,-219,-120,-20,-216,-17,118,-114,80,-30,125,-212,-78,20,-21,24,270,90,90,90,270,270,360,180,90,270,90,,,,,,,,,,,723.5941,723.5941,,0,76,76,76,1,15,novel,,,,,,,,,,,,,,,,,,,,,,,,,,,,,,,,,,,,,,,,,,,,,,,,,
,,3,2,${e://Field/PROLIFIC_PID,F,18,2023-11-02_19h24.14.809,MouseEye_CC,2023.2.2,Win32,144.3001443,1.022343947,,,2560,1440,44.304,3.68,"151.18, 168.58, 207.39, 204.61, 211.67, 210.92, 192.88",589.53,7.733291966,28.45851443,27.83653633,Passed,95.33602335,,,,,,,,,,,,,,,,,,,,training,5,14,0,left,a,,,,,723.5944,723.872,28.62563053,-4.666625977,6,1,0,0,0.2776,fixationPoint,723.8721,723.9682,723.9682,728.8997,28.62563053,8178.751579,492.7697826,a,1,4.9234,,728.8997,729.0972,,,,,,,,16,23,172,-32,67,-68,73,-16,168,-167,-126,-30,-160,-28,-23,118,-114,221,-160,166,-160,68,161,65,112,90,90,270,180,180,90,270,90,180,360,360,,,,,,,,,,,729.0972,729.0973,,0,77,77,77,1,13,novel,,,,,,,,,,,,,,,,,,,,,,,,,,,,,,,,,,,,,,,,,,,,,,,,,
,,3,2,${e://Field/PROLIFIC_PID,F,18,2023-11-02_19h24.14.809,MouseEye_CC,2023.2.2,Win32,144.3001443,1.022343947,,,2560,1440,44.304,3.68,"151.18, 168.58, 207.39, 204.61, 211.67, 210.92, 192.88",589.53,7.733291966,28.45851443,27.83653633,Passed,95.33602335,,,,,,,,,,,,,,,,,,,,training,5,15,180,right,s,,,,,729.0975,729.3153,28.62563053,-2.666625977,0,1,0,0,0.2178,fixationPoint,729.3154,729.4125,729.4125,730.2596,28.62563053,8178.751579,492.7697826,s,1,0.8332,,730.2596,730.462,,,,,,,,3,-128,215,80,64,65,112,217,70,-210,-124,-27,-120,-120,-20,125,-212,80,-30,67,-216,-67,174,-118,29,270,180,360,90,90,270,90,360,270,360,180,,,,,,,,,,,730.462,730.4621,,0,78,78,78,1,16,novel,,,,,,,,,,,,,,,,,,,,,,,,,,,,,,,,,,,,,,,,,,,,,,,,,
,,3,2,${e://Field/PROLIFIC_PID,F,18,2023-11-02_19h24.14.809,MouseEye_CC,2023.2.2,Win32,144.3001443,1.022343947,,,2560,1440,44.304,3.68,"151.18, 168.58, 207.39, 204.61, 211.67, 210.92, 192.88",589.53,7.733291966,28.45851443,27.83653633,Passed,95.33602335,,,,,,,,,,,,,,,,,,,,training,5,16,0,left,a,,,,,730.4622,730.836,28.62563053,-1.333251953,1.333312988,1,0,0,0.3737,fixationPoint,730.8364,730.9333,730.9333,731.6417,28.62563053,8178.751579,492.7697826,a,1,0.6954,,731.6417,731.8375,,,,,,,,33,-125,65,212,166,176,169,65,112,-27,-120,-30,-160,-19,-219,17,-72,125,-212,167,-216,-16,168,-27,209,270,180,180,90,360,270,360,180,180,360,180,,,,,,,,,,,731.8375,735.9483,space,0,79,79,79,1,4,repeated,4.104,,,,,,,,,,,,,,,,,,,,,,,,,,,,,,,,,,,,,,,,,,,,,,,,
,,3,2,${e://Field/PROLIFIC_PID,F,18,2023-11-02_19h24.14.809,MouseEye_CC,2023.2.2,Win32,144.3001443,1.022343947,,,2560,1440,44.304,3.68,"151.18, 168.58, 207.39, 204.61, 211.67, 210.92, 192.88",589.53,7.733291966,28.45851443,27.83653633,Passed,95.33602335,,,,,,,,,,,,,,,,,,,,training,6,1,180,right,s,,,,,735.9533,736.7735,28.62563053,-2,-9.333374023,1,0,0,0.8201,fixationPoint,736.7735,736.8719,736.8719,740.0164,28.62563053,8178.751579,492.7697826,s,1,3.1336,,740.0165,740.2149,,,,,,,,75,-27,-120,218,208,172,223,217,70,-216,29,-21,24,-161,172,118,-114,68,-79,121,-163,-72,-29,-114,-171,180,180,90,180,90,270,180,270,180,270,360,,,,,,,,,,,740.2149,740.2181,,0,80,80,80,1,6,repeated,,,,,,,,,,,,,,,,,,,,,,,,,,,,,,,,,,,,,,,,,,,,,,,,,
,,3,2,${e://Field/PROLIFIC_PID,F,18,2023-11-02_19h24.14.809,MouseEye_CC,2023.2.2,Win32,144.3001443,1.022343947,,,2560,1440,44.304,3.68,"151.18, 168.58, 207.39, 204.61, 211.67, 210.92, 192.88",589.53,7.733291966,28.45851443,27.83653633,Passed,95.33602335,,,,,,,,,,,,,,,,,,,,training,6,2,0,left,a,,,,,740.2183,740.5107,28.62563053,1.333374023,9.333312988,1,0,0,0.2923,fixationPoint,740.5107,740.6067,740.6067,743.0095,28.62563053,8178.751579,492.7697826,a,1,2.3922,,743.0095,743.2073,,,,,,,,3,-128,215,113,67,212,166,119,117,-120,-122,-30,-69,-209,-208,118,-114,24,-171,125,-212,-78,114,-128,119,90,90,270,360,180,270,180,360,270,180,360,,,,,,,,,,,743.2074,743.2074,,0,81,81,81,1,16,novel,,,,,,,,,,,,,,,,,,,,,,,,,,,,,,,,,,,,,,,,,,,,,,,,,
,,3,2,${e://Field/PROLIFIC_PID,F,18,2023-11-02_19h24.14.809,MouseEye_CC,2023.2.2,Win32,144.3001443,1.022343947,,,2560,1440,44.304,3.68,"151.18, 168.58, 207.39, 204.61, 211.67, 210.92, 192.88",589.53,7.733291966,28.45851443,27.83653633,Passed,95.33602335,,,,,,,,,,,,,,,,,,,,training,6,3,180,right,s,,,,,743.2076,743.4401,28.62563053,-2,0.666625977,1,0,0,0.2324,fixationPoint,743.4401,743.5372,743.5372,745.3427,28.62563053,8178.751579,492.7697826,s,1,1.7924,,745.3427,745.5387,,,,,,,,32,-176,74,17,74,124,168,113,67,-70,-128,-72,-29,-209,-208,17,-72,167,-216,80,-30,-165,223,-78,20,270,270,90,180,90,90,180,180,360,180,360,,,,,,,,,,,745.5387,745.5387,,0,82,82,82,1,3,repeated,,,,,,,,,,,,,,,,,,,,,,,,,,,,,,,,,,,,,,,,,,,,,,,,,
,,3,2,${e://Field/PROLIFIC_PID,F,18,2023-11-02_19h24.14.809,MouseEye_CC,2023.2.2,Win32,144.3001443,1.022343947,,,2560,1440,44.304,3.68,"151.18, 168.58, 207.39, 204.61, 211.67, 210.92, 192.88",589.53,7.733291966,28.45851443,27.83653633,Passed,95.33602335,,,,,,,,,,,,,,,,,,,,training,6,4,0,left,a,,,,,745.539,745.8774,28.62563053,-7.333251953,8.666625977,1,0,0,0.3384,fixationPoint,745.8774,745.9746,745.9746,746.7454,28.62563053,8178.751579,492.7697826,a,1,0.7573,,746.7454,746.9438,,,,,,,,52,-172,-25,120,28,160,17,68,161,-16,168,-166,126,-29,115,174,-28,17,-72,73,-168,-68,-213,-120,-122,180,180,180,90,270,90,270,180,360,90,270,,,,,,,,,,,746.9438,746.9439,,0,83,83,83,1,9,novel,,,,,,,,,,,,,,,,,,,,,,,,,,,,,,,,,,,,,,,,,,,,,,,,,
,,3,2,${e://Field/PROLIFIC_PID,F,18,2023-11-02_19h24.14.809,MouseEye_CC,2023.2.2,Win32,144.3001443,1.022343947,,,2560,1440,44.304,3.68,"151.18, 168.58, 207.39, 204.61, 211.67, 210.92, 192.88",589.53,7.733291966,28.45851443,27.83653633,Passed,95.33602335,,,,,,,,,,,,,,,,,,,,training,6,5,180,right,s,,,,,746.9441,747.1344,28.62563053,8.666748047,-3.333374023,1,0,0,0.1902,fixationPoint,747.1344,747.2316,747.2316,747.9398,28.62563053,8178.751579,492.7697826,s,1,0.6958,,747.9398,748.1376,,,,,,,,33,-125,65,212,166,176,169,65,112,-27,-120,-30,-160,-19,-219,17,-72,125,-212,167,-216,-16,168,-27,209,90,270,270,360,180,270,270,360,360,180,270,,,,,,,,,,,748.1376,748.1376,,0,84,84,84,1,4,repeated,,,,,,,,,,,,,,,,,,,,,,,,,,,,,,,,,,,,,,,,,,,,,,,,,
,,3,2,${e://Field/PROLIFIC_PID,F,18,2023-11-02_19h24.14.809,MouseEye_CC,2023.2.2,Win32,144.3001443,1.022343947,,,2560,1440,44.304,3.68,"151.18, 168.58, 207.39, 204.61, 211.67, 210.92, 192.88",589.53,7.733291966,28.45851443,27.83653633,Passed,95.33602335,,,,,,,,,,,,,,,,,,,,training,6,6,0,left,a,,,,,748.1378,748.3009,28.62563053,0.666748047,-2,1,0,0,0.1631,fixationPoint,748.3009,748.3981,748.3981,750.413,28.62563053,8178.751579,492.7697826,a,1,2.0068,,750.4131,750.615,,,,,,,,62,-169,-70,165,118,218,208,113,67,-216,29,-166,126,-176,74,17,-72,20,-117,73,-168,-70,-128,-172,-25,180,360,90,270,180,360,90,180,270,180,90,,,,,,,,,,,750.615,750.6151,,0,85,85,85,1,10,novel,,,,,,,,,,,,,,,,,,,,,,,,,,,,,,,,,,,,,,,,,,,,,,,,,
,,3,2,${e://Field/PROLIFIC_PID,F,18,2023-11-02_19h24.14.809,MouseEye_CC,2023.2.2,Win32,144.3001443,1.022343947,,,2560,1440,44.304,3.68,"151.18, 168.58, 207.39, 204.61, 211.67, 210.92, 192.88",589.53,7.733291966,28.45851443,27.83653633,Passed,95.33602335,,,,,,,,,,,,,,,,,,,,training,6,7,0,left,a,,,,,750.6152,750.7801,28.62563053,-8,-0.666687012,1,0,0,0.1648,fixationPoint,750.7801,750.8772,750.8772,753.4606,28.62563053,8178.751579,492.7697826,a,1,2.5731,,753.4606,753.6619,,,,,,,,68,124,-80,113,67,77,220,124,168,-32,67,-113,169,-161,172,-216,-17,-210,-124,-167,-126,213,-25,68,-79,270,90,180,270,360,90,180,180,180,90,270,,,,,,,,,,,753.6619,753.6619,,0,86,86,86,1,12,novel,,,,,,,,,,,,,,,,,,,,,,,,,,,,,,,,,,,,,,,,,,,,,,,,,
,,3,2,${e://Field/PROLIFIC_PID,F,18,2023-11-02_19h24.14.809,MouseEye_CC,2023.2.2,Win32,144.3001443,1.022343947,,,2560,1440,44.304,3.68,"151.18, 168.58, 207.39, 204.61, 211.67, 210.92, 192.88",589.53,7.733291966,28.45851443,27.83653633,Passed,95.33602335,,,,,,,,,,,,,,,,,,,,training,6,8,0,left,a,,,,,753.6622,753.7453,28.62563053,-5.333251953,-2,1,0,0,0.083,fixationPoint,753.7453,753.8425,753.8425,757.0021,28.62563053,8178.751579,492.7697826,a,1,3.1469,,757.0021,757.2014,,,,,,,,49,160,17,-27,209,-216,168,-224,220,-30,-160,-172,-25,-169,-70,166,-160,116,-19,17,-72,212,166,176,169,360,90,90,360,90,180,180,180,270,360,90,,,,,,,,,,,757.2015,757.2015,,0,87,87,87,1,1,repeated,,,,,,,,,,,,,,,,,,,,,,,,,,,,,,,,,,,,,,,,,,,,,,,,,
,,3,2,${e://Field/PROLIFIC_PID,F,18,2023-11-02_19h24.14.809,MouseEye_CC,2023.2.2,Win32,144.3001443,1.022343947,,,2560,1440,44.304,3.68,"151.18, 168.58, 207.39, 204.61, 211.67, 210.92, 192.88",589.53,7.733291966,28.45851443,27.83653633,Passed,95.33602335,,,,,,,,,,,,,,,,,,,,training,6,9,180,right,s,,,,,757.2017,757.2938,28.62563053,-10,0.666625977,1,0,0,0.0921,fixationPoint,757.2938,757.391,757.391,758.1897,28.62563053,8178.751579,492.7697826,s,1,0.7835,,758.1897,758.3875,,,,,,,,23,-128,119,217,70,80,64,124,168,-170,-172,-120,-122,-128,-80,121,-163,212,-76,27,-28,-67,174,-113,169,360,180,270,360,270,90,180,360,180,270,360,,,,,,,,,,,758.3875,758.3876,,0,88,88,88,1,15,novel,,,,,,,,,,,,,,,,,,,,,,,,,,,,,,,,,,,,,,,,,,,,,,,,,
,,3,2,${e://Field/PROLIFIC_PID,F,18,2023-11-02_19h24.14.809,MouseEye_CC,2023.2.2,Win32,144.3001443,1.022343947,,,2560,1440,44.304,3.68,"151.18, 168.58, 207.39, 204.61, 211.67, 210.92, 192.88",589.53,7.733291966,28.45851443,27.83653633,Passed,95.33602335,,,,,,,,,,,,,,,,,,,,training,6,10,180,right,s,,,,,758.3877,758.4994,28.62563053,-2.666625977,-2.666687012,1,0,0,0.1116,fixationPoint,758.4994,758.5993,758.5994,762.4188,28.62563053,8178.751579,492.7697826,s,1,3.8066,,762.4189,762.6199,,,,,,,,69,174,-78,28,208,28,125,218,208,-27,209,-16,168,-21,24,-216,-17,-114,-171,-167,-126,118,-114,121,-163,360,180,360,180,360,180,270,180,90,180,180,,,,,,,,,,,762.62,762.6201,,0,89,89,89,1,11,novel,,,,,,,,,,,,,,,,,,,,,,,,,,,,,,,,,,,,,,,,,,,,,,,,,
,,3,2,${e://Field/PROLIFIC_PID,F,18,2023-11-02_19h24.14.809,MouseEye_CC,2023.2.2,Win32,144.3001443,1.022343947,,,2560,1440,44.304,3.68,"151.18, 168.58, 207.39, 204.61, 211.67, 210.92, 192.88",589.53,7.733291966,28.45851443,27.83653633,Passed,95.33602335,,,,,,,,,,,,,,,,,,,,training,6,11,0,left,a,,,,,762.6203,762.8214,28.62563053,6,-0.666687012,1,0,0,0.2011,fixationPoint,762.8215,762.9187,762.9187,766.3075,28.62563053,8178.751579,492.7697826,a,1,3.3773,,766.3076,766.5057,,,,,,,,16,23,172,-67,174,-27,209,-224,220,-69,-174,-172,-25,-68,-70,17,-72,27,-28,67,-216,77,220,120,28,180,180,270,90,90,90,90,180,360,90,180,,,,,,,,,,,766.5058,766.5059,,0,90,90,90,1,13,novel,,,,,,,,,,,,,,,,,,,,,,,,,,,,,,,,,,,,,,,,,,,,,,,,,
,,3,2,${e://Field/PROLIFIC_PID,F,18,2023-11-02_19h24.14.809,MouseEye_CC,2023.2.2,Win32,144.3001443,1.022343947,,,2560,1440,44.304,3.68,"151.18, 168.58, 207.39, 204.61, 211.67, 210.92, 192.88",589.53,7.733291966,28.45851443,27.83653633,Passed,95.33602335,,,,,,,,,,,,,,,,,,,,training,6,12,180,right,s,,,,,766.506,767.4134,28.62563053,-27.33325195,-2.666687012,1,0,0,0.1417,fixationPoint,767.4135,767.5088,767.5088,768.7658,28.62563053,8178.751579,492.7697826,s,1,1.2452,,768.7658,768.9638,,,,,,,,85,-30,-160,223,16,160,17,120,28,-68,73,-118,29,-125,65,164,-128,167,-216,70,-118,-72,-29,-216,-17,360,180,90,360,90,180,360,90,360,360,270,,,,,,,,,,,768.9638,768.9638,,0,91,91,91,1,5,repeated,,,,,,,,,,,,,,,,,,,,,,,,,,,,,,,,,,,,,,,,,,,,,,,,,
,,3,2,${e://Field/PROLIFIC_PID,F,18,2023-11-02_19h24.14.809,MouseEye_CC,2023.2.2,Win32,144.3001443,1.022343947,,,2560,1440,44.304,3.68,"151.18, 168.58, 207.39, 204.61, 211.67, 210.92, 192.88",589.53,7.733291966,28.45851443,27.83653633,Passed,95.33602335,,,,,,,,,,,,,,,,,,,,training,6,13,0,left,a,,,,,768.964,769.106,28.62563053,5.333374023,-8.666687012,1,0,0,0.142,fixationPoint,769.1061,769.2032,769.2033,771.2727,28.62563053,8178.751579,492.7697826,a,1,2.0558,,771.2727,771.4741,,,,,,,,98,125,-212,65,112,28,125,28,208,-216,75,-32,67,-216,29,-216,-17,-68,-213,-70,-128,118,-114,212,-76,180,360,180,360,180,270,270,90,90,360,270,,,,,,,,,,,771.4741,771.4741,,0,92,92,92,1,8,repeated,,,,,,,,,,,,,,,,,,,,,,,,,,,,,,,,,,,,,,,,,,,,,,,,,
,,3,2,${e://Field/PROLIFIC_PID,F,18,2023-11-02_19h24.14.809,MouseEye_CC,2023.2.2,Win32,144.3001443,1.022343947,,,2560,1440,44.304,3.68,"151.18, 168.58, 207.39, 204.61, 211.67, 210.92, 192.88",589.53,7.733291966,28.45851443,27.83653633,Passed,95.33602335,,,,,,,,,,,,,,,,,,,,training,6,14,180,right,s,,,,,771.4743,771.9255,28.62563053,3.333374023,-11.33337402,1,0,0,0.4512,fixationPoint,771.9255,772.0226,772.0226,774.3143,28.62563053,8178.751579,492.7697826,s,1,2.2778,,774.3143,774.5096,,,,,,,,39,165,68,-165,223,-27,209,-125,65,-112,-219,-128,-80,-224,-172,213,-25,67,-216,17,-72,17,74,212,166,270,90,270,180,180,360,180,270,180,360,270,,,,,,,,,,,774.5096,774.5097,,0,93,93,93,1,2,repeated,,,,,,,,,,,,,,,,,,,,,,,,,,,,,,,,,,,,,,,,,,,,,,,,,
,,3,2,${e://Field/PROLIFIC_PID,F,18,2023-11-02_19h24.14.809,MouseEye_CC,2023.2.2,Win32,144.3001443,1.022343947,,,2560,1440,44.304,3.68,"151.18, 168.58, 207.39, 204.61, 211.67, 210.92, 192.88",589.53,7.733291966,28.45851443,27.83653633,Passed,95.33602335,,,,,,,,,,,,,,,,,,,,training,6,15,180,right,s,,,,,774.5099,774.6338,28.62563053,-3.333251953,-8.666687012,1,0,0,0.1238,fixationPoint,774.6338,774.7309,774.7309,777.2308,28.62563053,8178.751579,492.7697826,s,1,2.4883,,777.2308,777.4322,,,,,,,,26,28,125,-166,126,-165,32,-78,114,-114,-171,-209,-208,-27,-120,221,-160,121,-163,174,-28,77,220,165,68,360,270,90,360,270,270,90,360,180,360,90,,,,,,,,,,,777.4323,777.4323,,0,94,94,94,1,14,novel,,,,,,,,,,,,,,,,,,,,,,,,,,,,,,,,,,,,,,,,,,,,,,,,,
,,3,2,${e://Field/PROLIFIC_PID,F,18,2023-11-02_19h24.14.809,MouseEye_CC,2023.2.2,Win32,144.3001443,1.022343947,,,2560,1440,44.304,3.68,"151.18, 168.58, 207.39, 204.61, 211.67, 210.92, 192.88",589.53,7.733291966,28.45851443,27.83653633,Passed,95.33602335,,,,,,,,,,,,,,,,,,,,training,6,16,0,left,a,,,,,777.4325,777.8489,28.62563053,-4.666625977,-20,1,0,0,0.1315,fixationPoint,777.849,777.9461,777.9461,780.7377,28.62563053,8178.751579,492.7697826,a,1,2.7767,,780.7377,780.9391,,,,,,,,78,118,-114,220,116,17,74,165,118,-67,174,-216,29,-113,169,-19,-219,-224,-172,-209,-65,212,-76,80,-30,270,360,180,180,90,270,360,90,180,360,180,,,,,,,,,,,780.9391,811.4808,space,0,95,95,95,1,7,repeated,30.5338,,,,,,,,,,,,,,,,,,,,,,,,,,,,,,,,,,,,,,,,,,,,,,,,
,,3,2,${e://Field/PROLIFIC_PID,F,18,2023-11-02_19h24.14.809,MouseEye_CC,2023.2.2,Win32,144.3001443,1.022343947,,,2560,1440,44.304,3.68,"151.18, 168.58, 207.39, 204.61, 211.67, 210.92, 192.88",589.53,7.733291966,28.45851443,27.83653633,Passed,95.33602335,,,,,,,,,,,,,,,,,,,,training,7,1,0,left,a,,,,,811.4811,813.2858,28.62563053,8,8.666625977,1,0,0,1.8046,fixationPoint,813.2858,813.3844,813.3844,815.9454,28.62563053,8178.751579,492.7697826,a,1,2.5488,,815.9454,816.1466,,,,,,,,16,23,172,-73,208,-118,29,-78,114,-19,-219,-170,-172,-120,-122,124,-80,73,-168,25,-220,124,168,120,28,180,270,270,180,90,270,270,90,270,270,180,,,,,,,,,,,816.1466,816.1501,,0,96,96,96,1,13,novel,,,,,,,,,,,,,,,,,,,,,,,,,,,,,,,,,,,,,,,,,,,,,,,,,
,,3,2,${e://Field/PROLIFIC_PID,F,18,2023-11-02_19h24.14.809,MouseEye_CC,2023.2.2,Win32,144.3001443,1.022343947,,,2560,1440,44.304,3.68,"151.18, 168.58, 207.39, 204.61, 211.67, 210.92, 192.88",589.53,7.733291966,28.45851443,27.83653633,Passed,95.33602335,,,,,,,,,,,,,,,,,,,,training,7,2,180,right,s,,,,,816.1503,816.4905,28.62563053,-13.33325195,4,1,0,0,0.3402,fixationPoint,816.4905,816.5947,816.5947,818.6537,28.62563053,8178.751579,492.7697826,s,1,2.0496,,818.6537,818.855,,,,,,,,69,174,-78,68,161,77,220,65,112,-73,208,-67,174,-166,126,-120,-122,-70,-128,-68,-213,27,-28,17,-72,360,360,180,270,180,90,360,180,90,270,90,,,,,,,,,,,818.855,818.855,,0,97,97,97,1,11,novel,,,,,,,,,,,,,,,,,,,,,,,,,,,,,,,,,,,,,,,,,,,,,,,,,
,,3,2,${e://Field/PROLIFIC_PID,F,18,2023-11-02_19h24.14.809,MouseEye_CC,2023.2.2,Win32,144.3001443,1.022343947,,,2560,1440,44.304,3.68,"151.18, 168.58, 207.39, 204.61, 211.67, 210.92, 192.88",589.53,7.733291966,28.45851443,27.83653633,Passed,95.33602335,,,,,,,,,,,,,,,,,,,,training,7,3,180,right,s,,,,,818.8553,819.4731,28.62563053,-12.66662598,18.66662598,1,0,0,0.3608,fixationPoint,819.4731,819.5712,819.5712,822.1813,28.62563053,8178.751579,492.7697826,s,1,2.5991,,822.1814,822.3828,,,,,,,,75,-27,-120,218,208,172,223,217,70,-216,29,-21,24,-161,172,118,-114,68,-79,121,-163,-72,-29,-114,-171,90,270,270,180,180,270,180,180,90,270,360,,,,,,,,,,,822.3828,822.3829,,0,98,98,98,1,6,repeated,,,,,,,,,,,,,,,,,,,,,,,,,,,,,,,,,,,,,,,,,,,,,,,,,
,,3,2,${e://Field/PROLIFIC_PID,F,18,2023-11-02_19h24.14.809,MouseEye_CC,2023.2.2,Win32,144.3001443,1.022343947,,,2560,1440,44.304,3.68,"151.18, 168.58, 207.39, 204.61, 211.67, 210.92, 192.88",589.53,7.733291966,28.45851443,27.83653633,Passed,95.33602335,,,,,,,,,,,,,,,,,,,,training,7,4,0,left,a,,,,,822.3831,823.0634,28.62563053,-6.666625977,14.66662598,1,0,0,0.3574,fixationPoint,823.0634,823.1607,823.1607,825.9243,28.62563053,8178.751579,492.7697826,a,1,2.7485,,825.9244,826.1257,,,,,,,,26,28,125,-161,172,-166,126,-78,114,-120,-20,-68,-213,-70,-128,212,-76,166,-160,164,-128,17,74,126,215,180,270,270,90,90,180,90,90,360,270,270,,,,,,,,,,,826.1257,826.1258,,0,99,99,99,1,14,novel,,,,,,,,,,,,,,,,,,,,,,,,,,,,,,,,,,,,,,,,,,,,,,,,,
,,3,2,${e://Field/PROLIFIC_PID,F,18,2023-11-02_19h24.14.809,MouseEye_CC,2023.2.2,Win32,144.3001443,1.022343947,,,2560,1440,44.304,3.68,"151.18, 168.58, 207.39, 204.61, 211.67, 210.92, 192.88",589.53,7.733291966,28.45851443,27.83653633,Passed,95.33602335,,,,,,,,,,,,,,,,,,,,training,7,5,180,right,s,,,,,826.126,826.4555,28.62563053,-11.33325195,10,1,0,0,0.3295,fixationPoint,826.4555,826.5562,826.5562,828.4937,28.62563053,8178.751579,492.7697826,s,1,1.9227,,828.4937,828.6986,,,,,,,,78,118,-114,220,116,17,74,165,118,-67,174,-216,29,-113,169,-19,-219,-224,-172,-209,-65,212,-76,80,-30,360,270,270,180,90,90,270,180,360,180,360,,,,,,,,,,,828.6986,828.6987,,0,100,100,100,1,7,repeated,,,,,,,,,,,,,,,,,,,,,,,,,,,,,,,,,,,,,,,,,,,,,,,,,
,,3,2,${e://Field/PROLIFIC_PID,F,18,2023-11-02_19h24.14.809,MouseEye_CC,2023.2.2,Win32,144.3001443,1.022343947,,,2560,1440,44.304,3.68,"151.18, 168.58, 207.39, 204.61, 211.67, 210.92, 192.88",589.53,7.733291966,28.45851443,27.83653633,Passed,95.33602335,,,,,,,,,,,,,,,,,,,,training,7,6,180,right,s,,,,,828.6989,828.8995,28.62563053,-12,12,1,0,0,0.2006,fixationPoint,828.8996,829.0005,829.0006,830.1465,28.62563053,8178.751579,492.7697826,a,0,1.13,,830.1466,834.1479,,,,,,,,52,-172,-25,126,215,124,168,80,64,-216,29,-113,169,-27,209,125,-212,27,-28,164,-128,-175,-212,-30,-160,180,270,360,360,180,360,90,360,90,180,360,,,,,,,,,,,834.1479,834.1526,,0,101,101,101,1,9,novel,,,,,,,,,,,,,,,,,,,,,,,,,,,,,,,,,,,,,,,,,,,,,,,,,
,,3,2,${e://Field/PROLIFIC_PID,F,18,2023-11-02_19h24.14.809,MouseEye_CC,2023.2.2,Win32,144.3001443,1.022343947,,,2560,1440,44.304,3.68,"151.18, 168.58, 207.39, 204.61, 211.67, 210.92, 192.88",589.53,7.733291966,28.45851443,27.83653633,Passed,95.33602335,,,,,,,,,,,,,,,,,,,,training,7,7,180,right,s,,,,,834.1528,834.806,28.62563053,8.666748047,0.666625977,1,0,0,0.6532,fixationPoint,834.8061,834.9033,834.9033,836.2823,28.62563053,8178.751579,492.7697826,s,1,1.3708,,836.2823,836.4836,,,,,,,,3,-128,215,23,172,80,64,65,112,-68,-70,-19,-219,-28,-23,174,-78,125,-212,80,-30,-27,209,-224,220,270,90,270,90,180,360,270,180,180,270,180,,,,,,,,,,,836.4837,836.4837,,0,102,102,102,1,16,novel,,,,,,,,,,,,,,,,,,,,,,,,,,,,,,,,,,,,,,,,,,,,,,,,,
,,3,2,${e://Field/PROLIFIC_PID,F,18,2023-11-02_19h24.14.809,MouseEye_CC,2023.2.2,Win32,144.3001443,1.022343947,,,2560,1440,44.304,3.68,"151.18, 168.58, 207.39, 204.61, 211.67, 210.92, 192.88",589.53,7.733291966,28.45851443,27.83653633,Passed,95.33602335,,,,,,,,,,,,,,,,,,,,training,7,8,0,left,a,,,,,836.4838,836.7991,28.62563053,-2.666625977,-3.333374023,1,0,0,0.3152,fixationPoint,836.7991,836.8963,836.8963,839.5837,28.62563053,8178.751579,492.7697826,a,1,2.678,,839.5837,839.7882,,,,,,,,68,124,-80,160,17,217,70,172,223,-176,74,-113,169,-216,168,-70,-128,-120,-20,-112,-219,70,-118,67,-216,180,360,360,180,90,270,270,90,270,90,90,,,,,,,,,,,839.7882,839.7884,,0,103,103,103,1,12,novel,,,,,,,,,,,,,,,,,,,,,,,,,,,,,,,,,,,,,,,,,,,,,,,,,
,,3,2,${e://Field/PROLIFIC_PID,F,18,2023-11-02_19h24.14.809,MouseEye_CC,2023.2.2,Win32,144.3001443,1.022343947,,,2560,1440,44.304,3.68,"151.18, 168.58, 207.39, 204.61, 211.67, 210.92, 192.88",589.53,7.733291966,28.45851443,27.83653633,Passed,95.33602335,,,,,,,,,,,,,,,,,,,,training,7,9,180,right,s,,,,,839.7885,840.0074,28.62563053,4,7.333312988,1,0,0,0.2189,fixationPoint,840.0075,840.1045,840.1046,840.9379,28.62563053,8178.751579,492.7697826,s,1,0.8222,,840.9379,841.1357,,,,,,,,62,-169,-70,160,17,28,208,28,125,-165,223,-128,215,-224,220,212,-212,25,-220,121,-163,-170,-172,-216,-17,90,360,360,90,360,90,270,90,90,90,180,,,,,,,,,,,841.1357,841.1357,,0,104,104,104,1,10,novel,,,,,,,,,,,,,,,,,,,,,,,,,,,,,,,,,,,,,,,,,,,,,,,,,
,,3,2,${e://Field/PROLIFIC_PID,F,18,2023-11-02_19h24.14.809,MouseEye_CC,2023.2.2,Win32,144.3001443,1.022343947,,,2560,1440,44.304,3.68,"151.18, 168.58, 207.39, 204.61, 211.67, 210.92, 192.88",589.53,7.733291966,28.45851443,27.83653633,Passed,95.33602335,,,,,,,,,,,,,,,,,,,,training,7,10,180,right,s,,,,,841.136,841.2852,28.62563053,-1.333251953,-0.666687012,1,0,0,0.1491,fixationPoint,841.2852,841.3824,841.3824,844.7434,28.62563053,8178.751579,492.7697826,s,1,3.3531,,844.7434,844.9447,,,,,,,,98,125,-212,65,112,28,125,28,208,-216,75,-32,67,-216,29,-216,-17,-68,-213,-70,-128,118,-114,212,-76,90,360,90,360,360,180,180,180,360,360,90,,,,,,,,,,,844.9447,844.9447,,0,105,105,105,1,8,repeated,,,,,,,,,,,,,,,,,,,,,,,,,,,,,,,,,,,,,,,,,,,,,,,,,
,,3,2,${e://Field/PROLIFIC_PID,F,18,2023-11-02_19h24.14.809,MouseEye_CC,2023.2.2,Win32,144.3001443,1.022343947,,,2560,1440,44.304,3.68,"151.18, 168.58, 207.39, 204.61, 211.67, 210.92, 192.88",589.53,7.733291966,28.45851443,27.83653633,Passed,95.33602335,,,,,,,,,,,,,,,,,,,,training,7,11,0,left,a,,,,,844.9449,845.2156,28.62563053,-12,-6,1,0,0,0.2705,fixationPoint,845.2156,845.3129,845.3129,846.8336,28.62563053,8178.751579,492.7697826,a,1,1.508,,846.8337,847.0349,,,,,,,,85,-30,-160,223,16,160,17,120,28,-68,73,-118,29,-125,65,164,-128,167,-216,70,-118,-72,-29,-216,-17,270,90,90,90,270,360,360,360,90,180,270,,,,,,,,,,,847.035,847.035,,0,106,106,106,1,5,repeated,,,,,,,,,,,,,,,,,,,,,,,,,,,,,,,,,,,,,,,,,,,,,,,,,
,,3,2,${e://Field/PROLIFIC_PID,F,18,2023-11-02_19h24.14.809,MouseEye_CC,2023.2.2,Win32,144.3001443,1.022343947,,,2560,1440,44.304,3.68,"151.18, 168.58, 207.39, 204.61, 211.67, 210.92, 192.88",589.53,7.733291966,28.45851443,27.83653633,Passed,95.33602335,,,,,,,,,,,,,,,,,,,,training,7,12,0,left,a,,,,,847.0351,847.2226,28.62563053,1.333374023,-10,1,0,0,0.1873,fixationPoint,847.2226,847.3197,847.3197,850.2919,28.62563053,8178.751579,492.7697826,a,1,2.9626,,850.2919,850.4934,,,,,,,,32,-176,74,17,74,124,168,113,67,-70,-128,-72,-29,-209,-208,17,-72,167,-216,80,-30,-165,223,-78,20,180,180,90,360,360,180,90,270,90,180,360,,,,,,,,,,,850.4934,850.4934,,0,107,107,107,1,3,repeated,,,,,,,,,,,,,,,,,,,,,,,,,,,,,,,,,,,,,,,,,,,,,,,,,
,,3,2,${e://Field/PROLIFIC_PID,F,18,2023-11-02_19h24.14.809,MouseEye_CC,2023.2.2,Win32,144.3001443,1.022343947,,,2560,1440,44.304,3.68,"151.18, 168.58, 207.39, 204.61, 211.67, 210.92, 192.88",589.53,7.733291966,28.45851443,27.83653633,Passed,95.33602335,,,,,,,,,,,,,,,,,,,,training,7,13,0,left,a,,,,,850.4936,851.1195,28.62563053,-26,-4.666687012,1,0,0,0.1871,fixationPoint,851.1196,851.2154,851.2154,852.1675,28.62563053,8178.751579,492.7697826,a,1,0.9442,,852.1676,852.3629,,,,,,,,23,-128,119,77,220,28,125,217,70,-210,-124,-114,-171,-27,-120,68,-79,27,-28,118,-114,-165,223,-68,73,180,90,360,90,360,90,180,90,180,270,270,,,,,,,,,,,852.3629,852.363,,0,108,108,108,1,15,novel,,,,,,,,,,,,,,,,,,,,,,,,,,,,,,,,,,,,,,,,,,,,,,,,,
,,3,2,${e://Field/PROLIFIC_PID,F,18,2023-11-02_19h24.14.809,MouseEye_CC,2023.2.2,Win32,144.3001443,1.022343947,,,2560,1440,44.304,3.68,"151.18, 168.58, 207.39, 204.61, 211.67, 210.92, 192.88",589.53,7.733291966,28.45851443,27.83653633,Passed,95.33602335,,,,,,,,,,,,,,,,,,,,training,7,14,0,left,a,,,,,852.3631,852.5674,28.62563053,1.333374023,-2,1,0,0,0.2042,fixationPoint,852.5674,852.6668,852.6668,854.4724,28.62563053,8178.751579,492.7697826,a,1,1.7929,,854.4724,854.6677,,,,,,,,49,160,17,-27,209,-216,168,-224,220,-30,-160,-172,-25,-169,-70,166,-160,116,-19,17,-72,212,166,176,169,180,270,270,180,90,90,360,180,90,360,90,,,,,,,,,,,854.6677,854.6678,,0,109,109,109,1,1,repeated,,,,,,,,,,,,,,,,,,,,,,,,,,,,,,,,,,,,,,,,,,,,,,,,,
,,3,2,${e://Field/PROLIFIC_PID,F,18,2023-11-02_19h24.14.809,MouseEye_CC,2023.2.2,Win32,144.3001443,1.022343947,,,2560,1440,44.304,3.68,"151.18, 168.58, 207.39, 204.61, 211.67, 210.92, 192.88",589.53,7.733291966,28.45851443,27.83653633,Passed,95.33602335,,,,,,,,,,,,,,,,,,,,training,7,15,0,left,a,,,,,854.6679,854.889,28.62563053,8,2.666625977,1,0,0,0.221,fixationPoint,854.889,854.9863,854.9863,855.7316,28.62563053,8178.751579,492.7697826,a,1,0.7372,,855.7317,855.9331,,,,,,,,33,-125,65,212,166,176,169,65,112,-27,-120,-30,-160,-19,-219,17,-72,125,-212,167,-216,-16,168,-27,209,180,360,360,360,180,270,90,180,180,270,360,,,,,,,,,,,855.9332,855.9332,,0,110,110,110,1,4,repeated,,,,,,,,,,,,,,,,,,,,,,,,,,,,,,,,,,,,,,,,,,,,,,,,,
