InstrStartPage.started,InstrStartPage.stopped,participant,designid,prolificid,Gender,Age,date,expName,psychopyVersion,OS,frameRate,ratio_monitor2CRT,VirtualChinrest.started,VirtualChinrest.stopped,xRes,yRes,viewingdistance_cm,pixeldensity_px2mm,BallPos,squarePos,mm2degree,px2degree,CRT_px2degree,PassVirtualChinrest,foveaRadius_inPixel,InstrRedo.started,InstrRedo.stopped,VirtualChinrest_Redo.started,VirtualChinrest_Redo.stopped,Redo_virtualChinrest,Instruction1.started,Instruction1.stopped,keyPractice.started,keyPractice.stopped,key_keyprac.keys,key_keyprac.corr,key_keyprac.rt,key_keyprac.duration,keyPracFeedback.started,keyPracFeedback.stopped,keyPracLoop.thisRepN,keyPracLoop.thisTrialN,keyPracLoop.thisN,keyPracLoop.thisIndex,keyPracLoop.ran,phase,block,trial,targOrientdeg,targOrient,corrAnswer,Instruction2.started,Instruction2.stopped,Instruction3.started,Instruction3.stopped,fixation.started,fixation.stopped,fixationSize,mouseintial.x,mouseintial.y,mouseintial.leftButton,mouseintial.midButton,mouseintial.rightButton,mouseintial.time,mouseintial.clicked_name,greenFixation.started,greenFixation.stopped,trial.started,trial.stopped,letterSize,apertureSize,searchsize,key_respMain.keys,key_respMain.corr,key_respMain.rt,key_respMain.duration,trialFeedback.started,trialFeedback.stopped,trialsPractice.thisRepN,trialsPractice.thisTrialN,trialsPractice.thisN,trialsPractice.thisIndex,trialsPractice.ran,targetQuad,Tcondition,targcell,tlocx,tlocy,d1x,d1y,d2x,d2y,d3x,d3y,d4x,d4y,d5x,d5y,d6x,d6y,d7x,d7y,d8x,d8y,d9x,d9y,d10x,d10y,d11x,d11y,d1Orient,d2Orient,d3Orient,d4Orient,d5Orient,d6Orient,d7Orient,d8Orient,d9Orient,d10Orient,d11Orient,CheckInstr.started,CheckInstr.stopped,key_checkInstr.keys,key_checkInstr.corr,key_checkInstr.rt,key_checkInstr.duration,CheckInstr_FB.started,CheckInstr_FB.stopped,Instruction_MainExp.started,Instruction_MainExp.stopped,TakeABreak.started,TakeABreak.stopped,key_respBreak.keys,trials.thisRepN,trials.thisTrialN,trials.thisN,trials.thisIndex,trials.ran,configurationNumber,CCCondition,key_respBreak.rt,key_respBreak.duration,displayTestingPhase.started,displayTestingPhase.stopped,key_respTesting.keys,key_respTesting.corr,key_respTesting.rt,key_respTesting.duration,TakeABreak2.started,TakeABreak2.stopped,key_RespBreak.keys,Testingtrials.thisRepN,Testingtrials.thisTrialN,Testingtrials.thisN,Testingtrials.thisIndex,Testingtrials.ran,key_RespBreak.rt,key_RespBreak.duration,RecogQuestion.started,RecogQuestion.stopped,key_AnswerQues.keys,key_AnswerQues.rt,key_AnswerQues.duration,Disclose.started,Disclose.stopped,InstrRT.started,InstrRT.stopped,fixation_RT.started,fixation_RT.stopped,mouseInitial.x,mouseInitial.y,mouseInitial.leftButton,mouseInitial.midButton,mouseInitial.rightButton,mouseInitial.time,mouseInitial.clicked_name,displayRT.started,displayRT.stopped,key_respRT.keys,key_respRT.corr,key_respRT.rt,key_respRT.duration,RTtrials.thisRepN,RTtrials.thisTrialN,RTtrials.thisN,RTtrials.thisIndex,RTtrials.ran,EndOfExperiment.started,EndOfExperiment.stopped
0.0005,6.713,3,4,${e://Field/PROLIFIC_PID,F,18,2023-11-02_19h22.08.652,MouseEye_CC,2023.2.2,Win32,119.1469081,1,,,,,,,,,,,,,,,,,,,,,,,,,,,,,,,,,,,,,,,,,,,,,,,,,,,,,,,,,,,,,,,,,,,,,,,,,,,,,,,,,,,,,,,,,,,,,,,,,,,,,,,,,,,,,,,,,,,,,,,,,,,,,,,,,,,,,,,,,,,,,,,,,,,,,,,,,,,,,,,,,,,,,,,,,,,,,,,,,,
,,3,4,${e://Field/PROLIFIC_PID,F,18,2023-11-02_19h22.08.652,MouseEye_CC,2023.2.2,Win32,119.1469081,1.391855586,6.7134,164.4224,1536,864,42.199,5.26,"309.75, 382.91, 363.12, 378.77, 379.42, 391.67, 387.61",911.26,7.365862849,38.74443859,27.83653633,Passed,129.7938693,,,,,,,,,,,,,,,,,,,,,,,,,,,,,,,,,,,,,,,,,,,,,,,,,,,,,,,,,,,,,,,,,,,,,,,,,,,,,,,,,,,,,,,,,,,,,,,,,,,,,,,,,,,,,,,,,,,,,,,,,,,,,,,,,,,,,,,,,,,,,,,,,,,,,,,,,,,,,,,,,,,,,
,,3,4,${e://Field/PROLIFIC_PID,F,18,2023-11-02_19h22.08.652,MouseEye_CC,2023.2.2,Win32,119.1469081,1.391855586,,,1536,864,42.199,5.26,"309.75, 382.91, 363.12, 378.77, 379.42, 391.67, 387.61",911.26,7.365862849,38.74443859,27.83653633,Passed,129.7938693,164.4227,164.4248,,,,,,,,,,,,,,,,,,,,,,,,,,,,,,,,,,,,,,,,,,,,,,,,,,,,,,,,,,,,,,,,,,,,,,,,,,,,,,,,,,,,,,,,,,,,,,,,,,,,,,,,,,,,,,,,,,,,,,,,,,,,,,,,,,,,,,,,,,,,,,,,,,,,,,,,,,,,,,,,,,,
,,3,4,${e://Field/PROLIFIC_PID,F,18,2023-11-02_19h22.08.652,MouseEye_CC,2023.2.2,Win32,119.1469081,1.28,,,1536,864,40.183,5.26,"309.75, 382.91, 363.12, 378.77, 379.42, 391.67, 387.61",911.26,7.01396874,36.89347557,27.83653633,Passed,123.5931432,,,164.4249,222.8123,failed,,,,,,,,,,,,,,,,,,,,,,,,,,,,,,,,,,,,,,,,,,,,,,,,,,,,,,,,,,,,,,,,,,,,,,,,,,,,,,,,,,,,,,,,,,,,,,,,,,,,,,,,,,,,,,,,,,,,,,,,,,,,,,,,,,,,,,,,,,,,,,,,,,,,,,,,,,,,,,,,
,,3,4,${e://Field/PROLIFIC_PID,F,18,2023-11-02_19h22.08.652,MouseEye_CC,2023.2.2,Win32,119.1469081,1.28,,,1536,864,40.183,5.26,"309.75, 382.91, 363.12, 378.77, 379.42, 391.67, 387.61",911.26,7.01396874,36.89347557,27.83653633,Passed,123.5931432,,,,,,222.8129,239.0157,,,,,,,,,,,,,,,,,,,,,,,,,,,,,,,,,,,,,,,,,,,,,,,,,,,,,,,,,,,,,,,,,,,,,,,,,,,,,,,,,,,,,,,,,,,,,,,,,,,,,,,,,,,,,,,,,,,,,,,,,,,,,,,,,,,,,,,,,,,,,,,,,,,,,,,,,,,,,,
,,3,4,${e://Field/PROLIFIC_PID,F,18,2023-11-02_19h22.08.652,MouseEye_CC,2023.2.2,Win32,119.1469081,1.28,,,1536,864,40.183,5.26,"309.75, 382.91, 363.12, 378.77, 379.42, 391.67, 387.61",911.26,7.01396874,36.89347557,27.83653633,Passed,123.5931432,,,,,,,,239.0298,240.3836,a,1,0.8331,,240.3837,240.8888,0,0,0,0,1,practice,1,1,0,left,a,,,,,,,,,,,,,,,,,,,,,,,,,,,,,,,,,,,,,,,,,,,,,,,,,,,,,,,,,,,,,,,,,,,,,,,,,,,,,,,,,,,,,,,,,,,,,,,,,,,,,,,,,,,,,,,,,,,,,,,,,,,,,,,,,,,,,,,,,,,
,,3,4,${e://Field/PROLIFIC_PID,F,18,2023-11-02_19h22.08.652,MouseEye_CC,2023.2.2,Win32,119.1469081,1.28,,,1536,864,40.183,5.26,"309.75, 382.91, 363.12, 378.77, 379.42, 391.67, 387.61",911.26,7.01396874,36.89347557,27.83653633,Passed,123.5931432,,,,,,,,240.8895,241.8408,a,1,0.4336,,241.8409,242.3406,0,1,1,1,1,practice,1,2,0,left,a,,,,,,,,,,,,,,,,,,,,,,,,,,,,,,,,,,,,,,,,,,,,,,,,,,,,,,,,,,,,,,,,,,,,,,,,,,,,,,,,,,,,,,,,,,,,,,,,,,,,,,,,,,,,,,,,,,,,,,,,,,,,,,,,,,,,,,,,,,,
,,3,4,${e://Field/PROLIFIC_PID,F,18,2023-11-02_19h22.08.652,MouseEye_CC,2023.2.2,Win32,119.1469081,1.28,,,1536,864,40.183,5.26,"309.75, 382.91, 363.12, 378.77, 379.42, 391.67, 387.61",911.26,7.01396874,36.89347557,27.83653633,Passed,123.5931432,,,,,,,,242.341,243.1878,a,1,0.3333,,243.1878,243.683,0,2,2,2,1,practice,1,3,0,left,a,,,,,,,,,,,,,,,,,,,,,,,,,,,,,,,,,,,,,,,,,,,,,,,,,,,,,,,,,,,,,,,,,,,,,,,,,,,,,,,,,,,,,,,,,,,,,,,,,,,,,,,,,,,,,,,,,,,,,,,,,,,,,,,,,,,,,,,,,,,
,,3,4,${e://Field/PROLIFIC_PID,F,18,2023-11-02_19h22.08.652,MouseEye_CC,2023.2.2,Win32,119.1469081,1.28,,,1536,864,40.183,5.26,"309.75, 382.91, 363.12, 378.77, 379.42, 391.67, 387.61",911.26,7.01396874,36.89347557,27.83653633,Passed,123.5931432,,,,,,,,243.6834,244.6986,s,1,0.4918,,244.6986,245.1988,0,3,3,3,1,practice,1,4,180,right,s,,,,,,,,,,,,,,,,,,,,,,,,,,,,,,,,,,,,,,,,,,,,,,,,,,,,,,,,,,,,,,,,,,,,,,,,,,,,,,,,,,,,,,,,,,,,,,,,,,,,,,,,,,,,,,,,,,,,,,,,,,,,,,,,,,,,,,,,,,,
,,3,4,${e://Field/PROLIFIC_PID,F,18,2023-11-02_19h22.08.652,MouseEye_CC,2023.2.2,Win32,119.1469081,1.28,,,1536,864,40.183,5.26,"309.75, 382.91, 363.12, 378.77, 379.42, 391.67, 387.61",911.26,7.01396874,36.89347557,27.83653633,Passed,123.5931432,,,,,,,,245.1991,246.0158,s,1,0.3001,,246.0158,246.5158,0,4,4,4,1,practice,1,5,180,right,s,,,,,,,,,,,,,,,,,,,,,,,,,,,,,,,,,,,,,,,,,,,,,,,,,,,,,,,,,,,,,,,,,,,,,,,,,,,,,,,,,,,,,,,,,,,,,,,,,,,,,,,,,,,,,,,,,,,,,,,,,,,,,,,,,,,,,,,,,,,
,,3,4,${e://Field/PROLIFIC_PID,F,18,2023-11-02_19h22.08.652,MouseEye_CC,2023.2.2,Win32,119.1469081,1.28,,,1536,864,40.183,5.26,"309.75, 382.91, 363.12, 378.77, 379.42, 391.67, 387.61",911.26,7.01396874,36.89347557,27.83653633,Passed,123.5931432,,,,,,,,246.5163,247.5647,a,1,0.5316,,247.5648,248.0647,0,5,5,5,1,practice,1,6,0,left,a,,,,,,,,,,,,,,,,,,,,,,,,,,,,,,,,,,,,,,,,,,,,,,,,,,,,,,,,,,,,,,,,,,,,,,,,,,,,,,,,,,,,,,,,,,,,,,,,,,,,,,,,,,,,,,,,,,,,,,,,,,,,,,,,,,,,,,,,,,,
,,3,4,${e://Field/PROLIFIC_PID,F,18,2023-11-02_19h22.08.652,MouseEye_CC,2023.2.2,Win32,119.1469081,1.28,,,1536,864,40.183,5.26,"309.75, 382.91, 363.12, 378.77, 379.42, 391.67, 387.61",911.26,7.01396874,36.89347557,27.83653633,Passed,123.5931432,,,,,,,,,,,,,,,,,,,,,,,,,,,248.0654,254.4736,,,,,,,,,,,,,,,,,,,,,,,,,,,,,,,,,,,,,,,,,,,,,,,,,,,,,,,,,,,,,,,,,,,,,,,,,,,,,,,,,,,,,,,,,,,,,,,,,,,,,,,,,,,,,,,,,,,,,,,,,,,,,,,,,,,,,,,,,
,,3,4,${e://Field/PROLIFIC_PID,F,18,2023-11-02_19h22.08.652,MouseEye_CC,2023.2.2,Win32,119.1469081,1.28,,,1536,864,40.183,5.26,"309.75, 382.91, 363.12, 378.77, 379.42, 391.67, 387.61",911.26,7.01396874,36.89347557,27.83653633,Passed,123.5931432,,,,,,,,,,,,,,,,,,,,,,,,,,,,,254.4739,260.9862,,,,,,,,,,,,,,,,,,,,,,,,,,,,,,,,,,,,,,,,,,,,,,,,,,,,,,,,,,,,,,,,,,,,,,,,,,,,,,,,,,,,,,,,,,,,,,,,,,,,,,,,,,,,,,,,,,,,,,,,,,,,,,,,,,,,,,,
,,3,4,${e://Field/PROLIFIC_PID,F,18,2023-11-02_19h22.08.652,MouseEye_CC,2023.2.2,Win32,119.1469081,1.28,,,1536,864,40.183,5.26,"309.75, 382.91, 363.12, 378.77, 379.42, 391.67, 387.61",911.26,7.01396874,36.89347557,27.83653633,Passed,123.5931432,,,,,,,,,,,,,,,,,,,,,practice,0,1,0,left,a,,,,,261.0091,262.4796,35.84,7.200012207,-9.600006104,1,0,0,1.4703,fixationPoint,262.4798,262.5791,262.5795,264.1441,35.84,10240,616.96,a,1,1.5404,,264.1442,264.343,0,0,0,0,1,4,sparse,90,217,-164,68,123,222,26,214,216,-218,159,-120,223,-110,82,-115,-130,-224,-120,-68,-219,79,-175,19,-128,90,270,360,90,270,270,180,90,90,90,270,,,,,,,,,,,,,,,,,,,,,,,,,,,,,,,,,,,,,,,,,,,,,,,,,,,,,,,,,,,,,,,,,,,,,
,,3,4,${e://Field/PROLIFIC_PID,F,18,2023-11-02_19h22.08.652,MouseEye_CC,2023.2.2,Win32,119.1469081,1.28,,,1536,864,40.183,5.26,"309.75, 382.91, 363.12, 378.77, 379.42, 391.67, 387.61",911.26,7.01396874,36.89347557,27.83653633,Passed,123.5931432,,,,,,,,,,,,,,,,,,,,,practice,0,2,0,left,a,,,,,264.3436,265.3591,35.84,-4.799987793,6.399993896,1,0,0,1.0155,fixationPoint,265.3592,265.4538,265.4538,266.9263,35.84,10240,616.96,a,1,1.4599,,266.9264,267.1282,0,1,1,1,1,1,rich,39,169,66,-126,125,-169,169,-130,19,-169,-116,-125,-167,-224,-216,218,-129,171,-218,18,-208,166,26,17,170,180,90,360,270,90,90,90,270,180,180,270,,,,,,,,,,,,,,,,,,,,,,,,,,,,,,,,,,,,,,,,,,,,,,,,,,,,,,,,,,,,,,,,,,,,,
,,3,4,${e://Field/PROLIFIC_PID,F,18,2023-11-02_19h22.08.652,MouseEye_CC,2023.2.2,Win32,119.1469081,1.28,,,1536,864,40.183,5.26,"309.75, 382.91, 363.12, 378.77, 379.42, 391.67, 387.61",911.26,7.01396874,36.89347557,27.83653633,Passed,123.5931432,,,,,,,,,,,,,,,,,,,,,practice,0,3,0,left,a,,,,,267.1286,268.5038,35.84,-26.39996338,-10.3999939,1,0,0,0.8413,fixationPoint,268.5039,268.5996,268.5996,269.9088,35.84,10240,616.96,a,1,1.3011,,269.9088,270.1082,0,2,2,2,1,2,sparse,22,-162,126,222,26,17,170,126,172,-25,-117,-175,-206,-224,-216,116,-19,130,-174,217,-164,-218,159,-21,162,90,90,180,360,360,270,360,360,360,360,180,,,,,,,,,,,,,,,,,,,,,,,,,,,,,,,,,,,,,,,,,,,,,,,,,,,,,,,,,,,,,,,,,,,,,
,,3,4,${e://Field/PROLIFIC_PID,F,18,2023-11-02_19h22.08.652,MouseEye_CC,2023.2.2,Win32,119.1469081,1.28,,,1536,864,40.183,5.26,"309.75, 382.91, 363.12, 378.77, 379.42, 391.67, 387.61",911.26,7.01396874,36.89347557,27.83653633,Passed,123.5931432,,,,,,,,,,,,,,,,,,,,,practice,0,4,180,right,s,,,,,270.1085,271.1001,35.84,-5.599975586,16,1,0,0,0.9916,fixationPoint,271.1002,271.1948,271.1949,272.9461,35.84,10240,616.96,s,1,1.7394,,272.9462,273.1439,0,3,3,3,1,4,sparse,76,19,-128,159,121,214,216,219,165,-218,159,-162,126,-219,119,-169,-116,-111,-31,-175,-206,18,-208,81,-114,90,270,180,180,270,180,360,360,360,270,360,,,,,,,,,,,,,,,,,,,,,,,,,,,,,,,,,,,,,,,,,,,,,,,,,,,,,,,,,,,,,,,,,,,,,
,,3,4,${e://Field/PROLIFIC_PID,F,18,2023-11-02_19h22.08.652,MouseEye_CC,2023.2.2,Win32,119.1469081,1.28,,,1536,864,40.183,5.26,"309.75, 382.91, 363.12, 378.77, 379.42, 391.67, 387.61",911.26,7.01396874,36.89347557,27.83653633,Passed,123.5931432,,,,,,,,,,,,,,,,,,,,,practice,0,5,180,right,s,,,,,273.1443,275.3278,35.84,-0.799987793,21.6000061,1,0,0,1.4162,fixationPoint,275.328,275.4271,275.4271,276.7746,35.84,10240,616.96,a,0,1.3382,,276.7746,280.7759,0,4,4,4,1,3,sparse,85,-19,-173,219,165,68,123,214,216,-160,68,-64,120,-226,34,162,-21,224,-216,167,-163,-167,-74,-224,-216,360,360,360,90,180,270,90,360,270,270,360,,,,,,,,,,,,,,,,,,,,,,,,,,,,,,,,,,,,,,,,,,,,,,,,,,,,,,,,,,,,,,,,,,,,,
,,3,4,${e://Field/PROLIFIC_PID,F,18,2023-11-02_19h22.08.652,MouseEye_CC,2023.2.2,Win32,119.1469081,1.28,,,1536,864,40.183,5.26,"309.75, 382.91, 363.12, 378.77, 379.42, 391.67, 387.61",911.26,7.01396874,36.89347557,27.83653633,Passed,123.5931432,,,,,,,,,,,,,,,,,,,,,practice,0,6,180,right,s,,,,,280.7839,281.8594,35.84,12.79998779,4.799987793,1,0,0,1.0753,fixationPoint,281.8594,281.9593,281.9593,284.4005,35.84,10240,616.96,s,1,2.431,,284.4006,284.6003,0,5,5,5,1,3,sparse,95,-21,-224,126,172,219,165,166,26,-166,207,-223,206,-219,119,169,-75,18,-208,224,-216,-72,-121,-115,-130,180,180,360,180,360,180,270,180,90,180,360,,,,,,,,,,,,,,,,,,,,,,,,,,,,,,,,,,,,,,,,,,,,,,,,,,,,,,,,,,,,,,,,,,,,,
,,3,4,${e://Field/PROLIFIC_PID,F,18,2023-11-02_19h22.08.652,MouseEye_CC,2023.2.2,Win32,119.1469081,1.28,,,1536,864,40.183,5.26,"309.75, 382.91, 363.12, 378.77, 379.42, 391.67, 387.61",911.26,7.01396874,36.89347557,27.83653633,Passed,123.5931432,,,,,,,,,,,,,,,,,,,,,practice,0,7,0,left,a,,,,,284.6007,286.5418,35.84,284.8000488,-284,1,0,0,1.0244,fixationPoint,286.542,286.6425,286.6425,288.7998,35.84,10240,616.96,a,1,2.1486,,288.7998,288.9997,0,6,6,6,1,1,rich,7,62,223,-166,207,-226,34,-162,126,-169,-116,-168,-160,-161,-27,15,-162,162,-21,79,-175,219,165,219,129,180,180,360,180,270,360,180,360,270,180,360,,,,,,,,,,,,,,,,,,,,,,,,,,,,,,,,,,,,,,,,,,,,,,,,,,,,,,,,,,,,,,,,,,,,,
,,3,4,${e://Field/PROLIFIC_PID,F,18,2023-11-02_19h22.08.652,MouseEye_CC,2023.2.2,Win32,119.1469081,1.28,,,1536,864,40.183,5.26,"309.75, 382.91, 363.12, 378.77, 379.42, 391.67, 387.61",911.26,7.01396874,36.89347557,27.83653633,Passed,123.5931432,,,,,,,,,,,,,,,,,,,,,practice,0,8,180,right,s,,,,,289,290.0752,35.84,-6.399963379,-13.6000061,1,0,0,1.0751,fixationPoint,290.0753,290.1752,290.1753,293.1157,35.84,10240,616.96,s,1,2.9329,,293.1158,293.3156,0,7,7,7,1,2,sparse,24,-64,120,18,215,126,172,33,121,-206,-170,-64,-162,-218,-78,130,-174,211,-74,168,-130,-164,32,-21,162,90,180,270,360,180,90,180,180,180,360,270,,,,,,,,,,,,,,,,,,,,,,,,,,,,,,,,,,,,,,,,,,,,,,,,,,,,,,,,,,,,,,,,,,,,,
,,3,4,${e://Field/PROLIFIC_PID,F,18,2023-11-02_19h22.08.652,MouseEye_CC,2023.2.2,Win32,119.1469081,1.28,,,1536,864,40.183,5.26,"309.75, 382.91, 363.12, 378.77, 379.42, 391.67, 387.61",911.26,7.01396874,36.89347557,27.83653633,Passed,123.5931432,,,,,,,,,,,,,,,,,,,,,practice,0,9,180,right,s,,,,,293.3161,294.5828,35.84,-3.200012207,-23.20001221,1,0,0,0.6993,fixationPoint,294.5829,294.6821,294.6822,296.8238,35.84,10240,616.96,s,1,2.133,,296.8239,297.0242,0,8,8,8,1,3,sparse,85,-19,-173,127,30,62,223,217,67,-110,82,-21,162,-80,218,167,-163,126,-79,130,-174,-125,-167,-68,-219,360,360,360,180,360,360,180,270,90,360,180,,,,,,,,,,,,,,,,,,,,,,,,,,,,,,,,,,,,,,,,,,,,,,,,,,,,,,,,,,,,,,,,,,,,,
,,3,4,${e://Field/PROLIFIC_PID,F,18,2023-11-02_19h22.08.652,MouseEye_CC,2023.2.2,Win32,119.1469081,1.28,,,1536,864,40.183,5.26,"309.75, 382.91, 363.12, 378.77, 379.42, 391.67, 387.61",911.26,7.01396874,36.89347557,27.83653633,Passed,123.5931432,,,,,,,,,,,,,,,,,,,,,practice,0,10,180,right,s,,,,,297.0248,297.5983,35.84,-1.599975586,0,1,0,0,0.5734,fixationPoint,297.5983,297.6959,297.696,300.3729,35.84,10240,616.96,s,1,2.6633,,300.3729,300.5728,0,9,9,9,1,1,rich,9,160,209,-166,207,-226,34,-120,223,-224,-120,-118,-217,-218,-78,112,-209,126,-113,169,-75,178,160,110,129,180,90,90,270,360,270,360,180,360,180,360,,,,,,,,,,,,,,,,,,,,,,,,,,,,,,,,,,,,,,,,,,,,,,,,,,,,,,,,,,,,,,,,,,,,,
,,3,4,${e://Field/PROLIFIC_PID,F,18,2023-11-02_19h22.08.652,MouseEye_CC,2023.2.2,Win32,119.1469081,1.28,,,1536,864,40.183,5.26,"309.75, 382.91, 363.12, 378.77, 379.42, 391.67, 387.61",911.26,7.01396874,36.89347557,27.83653633,Passed,123.5931432,,,,,,,,,,,,,,,,,,,,,practice,0,11,180,right,s,,,,,300.5732,301.1645,35.84,-4,-13.6000061,1,0,0,0.5912,fixationPoint,301.1645,301.2627,301.2628,302.6559,35.84,10240,616.96,s,1,1.3819,,302.656,302.8557,0,10,10,10,1,4,sparse,80,218,-129,62,223,159,121,110,129,-218,159,-223,206,-75,173,-169,-116,-118,-217,-125,-167,217,-164,169,-75,360,270,360,180,360,180,180,270,360,180,90,,,,,,,,,,,,,,,,,,,,,,,,,,,,,,,,,,,,,,,,,,,,,,,,,,,,,,,,,,,,,,,,,,,,,
,,3,4,${e://Field/PROLIFIC_PID,F,18,2023-11-02_19h22.08.652,MouseEye_CC,2023.2.2,Win32,119.1469081,1.28,,,1536,864,40.183,5.26,"309.75, 382.91, 363.12, 378.77, 379.42, 391.67, 387.61",911.26,7.01396874,36.89347557,27.83653633,Passed,123.5931432,,,,,,,,,,,,,,,,,,,,,practice,0,12,0,left,a,,,,,302.8561,303.514,35.84,0.799987793,-9.600006104,1,0,0,0.6578,fixationPoint,303.514,303.614,303.614,307.605,35.84,10240,616.96,a,1,3.9828,,307.6051,307.8049,0,11,11,11,1,3,sparse,75,-25,-117,110,129,125,63,214,216,-164,32,-27,117,-126,125,171,-218,126,-113,167,-163,-21,-224,-212,-21,270,180,180,360,180,270,360,270,360,180,270,,,,,,,,,,,,,,,,,,,,,,,,,,,,,,,,,,,,,,,,,,,,,,,,,,,,,,,,,,,,,,,,,,,,,
,,3,4,${e://Field/PROLIFIC_PID,F,18,2023-11-02_19h22.08.652,MouseEye_CC,2023.2.2,Win32,119.1469081,1.28,,,1536,864,40.183,5.26,"309.75, 382.91, 363.12, 378.77, 379.42, 391.67, 387.61",911.26,7.01396874,36.89347557,27.83653633,Passed,123.5931432,,,,,,,,,,,,,,,,,,,,,,,,,,,,,,,,,,,,,,,,,,,,,,,,,,,,,,,,,,,,,,,,,,,,,,,,,,,,,,,,,,,,,,,,,,,,,,,,,307.8056,313.1296,a,1,5.3074,,,,,,,,,,,,,,,,,,,,,,,,,,,,,,,,,,,,,,,,,,,,,,,,,,,,,,,,,,,,,,,,
,,3,4,${e://Field/PROLIFIC_PID,F,18,2023-11-02_19h22.08.652,MouseEye_CC,2023.2.2,Win32,119.1469081,1.28,,,1536,864,40.183,5.26,"309.75, 382.91, 363.12, 378.77, 379.42, 391.67, 387.61",911.26,7.01396874,36.89347557,27.83653633,Passed,123.5931432,,,,,,,,,,,,,,,,,,,,,,,,,,,,,,,,,,,,,,,,,,,,,,,,,,,,,,,,,,,,,,,,,,,,,,,,,,,,,,,,,,,,,,,,,,,,,,,,,,,,,,,313.1298,315.0706,,,,,,,,,,,,,,,,,,,,,,,,,,,,,,,,,,,,,,,,,,,,,,,,,,,,,,,,,,,,,
,,3,4,${e://Field/PROLIFIC_PID,F,18,2023-11-02_19h22.08.652,MouseEye_CC,2023.2.2,Win32,119.1469081,1.28,,,1536,864,40.183,5.26,"309.75, 382.91, 363.12, 378.77, 379.42, 391.67, 387.61",911.26,7.01396874,36.89347557,27.83653633,Passed,123.5931432,,,,,,,,,,,,,,,,,,,,,,,,,,,,,,,,,,,,,,,,,,,,,,,,,,,,,,,,,,,,,,,,,,,,,,,,,,,,,,,,,,,,,,,,,,,,,,,,,,,,,,,,,315.0707,328.1952,,,,,,,,,,,,,,,,,,,,,,,,,,,,,,,,,,,,,,,,,,,,,,,,,,,,,,,,,,,
,,3,4,${e://Field/PROLIFIC_PID,F,18,2023-11-02_19h22.08.652,MouseEye_CC,2023.2.2,Win32,119.1469081,1.28,,,1536,864,40.183,5.26,"309.75, 382.91, 363.12, 378.77, 379.42, 391.67, 387.61",911.26,7.01396874,36.89347557,27.83653633,Passed,123.5931432,,,,,,,,,,,,,,,,,,,,,training,1,1,0,left,a,,,,,328.287,329.1432,35.84,-3.200012207,0,1,0,0,0.856,fixationPoint,329.1433,329.2435,329.2437,330.7737,35.84,10240,616.96,a,1,1.522,,330.7738,330.9735,,,,,,,,96,20,-222,208,24,222,168,169,125,-174,115,-128,76,-68,174,-218,-30,-170,-118,-65,-160,168,-220,19,-127,360,360,180,180,360,360,360,360,270,180,270,,,,,,,,,,,330.9739,330.9766,,0,0,0,0,1,12,novel,,,,,,,,,,,,,,,,,,,,,,,,,,,,,,,,,,,,,,,,,,,,,,,,,
,,3,4,${e://Field/PROLIFIC_PID,F,18,2023-11-02_19h22.08.652,MouseEye_CC,2023.2.2,Win32,119.1469081,1.28,,,1536,864,40.183,5.26,"309.75, 382.91, 363.12, 378.77, 379.42, 391.67, 387.61",911.26,7.01396874,36.89347557,27.83653633,Passed,123.5931432,,,,,,,,,,,,,,,,,,,,,training,1,2,0,left,a,,,,,330.9771,331.9818,35.84,-16,-10.3999939,1,0,0,1.0047,fixationPoint,331.9819,332.076,332.076,335.1006,35.84,10240,616.96,a,1,3.013,,335.1007,335.3004,,,,,,,,4,-80,213,21,68,208,24,120,66,-224,-218,-218,-30,-65,-160,80,-120,124,-170,72,-221,-221,25,-16,126,270,360,180,90,270,90,360,270,360,90,360,,,,,,,,,,,335.3005,335.3006,,0,1,1,1,1,15,novel,,,,,,,,,,,,,,,,,,,,,,,,,,,,,,,,,,,,,,,,,,,,,,,,,
,,3,4,${e://Field/PROLIFIC_PID,F,18,2023-11-02_19h22.08.652,MouseEye_CC,2023.2.2,Win32,119.1469081,1.28,,,1536,864,40.183,5.26,"309.75, 382.91, 363.12, 378.77, 379.42, 391.67, 387.61",911.26,7.01396874,36.89347557,27.83653633,Passed,123.5931432,,,,,,,,,,,,,,,,,,,,,training,1,3,180,right,s,,,,,335.3011,335.9671,35.84,6.400024414,-1.600006104,1,0,0,0.6658,fixationPoint,335.9671,336.0654,336.0655,337.6501,35.84,10240,616.96,s,1,1.5764,,337.6502,337.85,,,,,,,,97,72,-221,169,125,175,209,26,171,-20,212,-216,125,-160,70,-176,-68,-170,-118,-169,-161,127,-127,80,-120,180,180,180,270,180,90,180,180,360,90,360,,,,,,,,,,,337.8501,337.8503,,0,2,2,2,1,7,repeated,,,,,,,,,,,,,,,,,,,,,,,,,,,,,,,,,,,,,,,,,,,,,,,,,
,,3,4,${e://Field/PROLIFIC_PID,F,18,2023-11-02_19h22.08.652,MouseEye_CC,2023.2.2,Win32,119.1469081,1.28,,,1536,864,40.183,5.26,"309.75, 382.91, 363.12, 378.77, 379.42, 391.67, 387.61",911.26,7.01396874,36.89347557,27.83653633,Passed,123.5931432,,,,,,,,,,,,,,,,,,,,,training,1,4,180,right,s,,,,,337.8506,338.3756,35.84,0,-10.3999939,1,0,0,0.5249,fixationPoint,338.3757,338.4751,338.4752,340.1081,35.84,10240,616.96,s,1,1.6227,,340.1081,340.3079,,,,,,,,25,-16,126,26,217,20,116,72,175,-31,-65,-117,-167,-121,-18,126,-28,209,-208,163,-120,-128,76,-116,112,180,360,180,90,90,360,180,90,90,360,360,,,,,,,,,,,340.3079,340.3081,,0,3,3,3,1,3,repeated,,,,,,,,,,,,,,,,,,,,,,,,,,,,,,,,,,,,,,,,,,,,,,,,,
,,3,4,${e://Field/PROLIFIC_PID,F,18,2023-11-02_19h22.08.652,MouseEye_CC,2023.2.2,Win32,119.1469081,1.28,,,1536,864,40.183,5.26,"309.75, 382.91, 363.12, 378.77, 379.42, 391.67, 387.61",911.26,7.01396874,36.89347557,27.83653633,Passed,123.5931432,,,,,,,,,,,,,,,,,,,,,training,1,5,0,left,a,,,,,340.3086,340.6996,35.84,1.600036621,-0.800018311,1,0,0,0.3909,fixationPoint,340.6996,340.7976,340.7976,342.1388,35.84,10240,616.96,a,1,1.3315,,342.1389,342.3384,,,,,,,,62,-176,-68,208,24,120,66,80,222,-208,172,-174,115,-80,213,222,-126,164,-173,20,-222,-24,-17,-117,-167,270,360,90,90,90,360,180,360,180,270,270,,,,,,,,,,,342.3384,342.3386,,0,4,4,4,1,10,novel,,,,,,,,,,,,,,,,,,,,,,,,,,,,,,,,,,,,,,,,,,,,,,,,,
,,3,4,${e://Field/PROLIFIC_PID,F,18,2023-11-02_19h22.08.652,MouseEye_CC,2023.2.2,Win32,119.1469081,1.28,,,1536,864,40.183,5.26,"309.75, 382.91, 363.12, 378.77, 379.42, 391.67, 387.61",911.26,7.01396874,36.89347557,27.83653633,Passed,123.5931432,,,,,,,,,,,,,,,,,,,,,training,1,6,180,right,s,,,,,342.3389,342.7717,35.84,0,4,1,0,0,0.4328,fixationPoint,342.7718,342.8729,342.873,348.974,35.84,10240,616.96,s,1,6.088,,348.9742,349.1733,,,,,,,,13,-126,173,77,23,212,128,123,112,-31,-65,-65,-160,-20,-123,211,-168,27,-68,27,-27,-176,26,-73,119,180,270,360,90,270,270,270,90,360,180,90,,,,,,,,,,,349.1735,349.1736,,0,5,5,5,1,16,novel,,,,,,,,,,,,,,,,,,,,,,,,,,,,,,,,,,,,,,,,,,,,,,,,,
,,3,4,${e://Field/PROLIFIC_PID,F,18,2023-11-02_19h22.08.652,MouseEye_CC,2023.2.2,Win32,119.1469081,1.28,,,1536,864,40.183,5.26,"309.75, 382.91, 363.12, 378.77, 379.42, 391.67, 387.61",911.26,7.01396874,36.89347557,27.83653633,Passed,123.5931432,,,,,,,,,,,,,,,,,,,,,training,1,7,0,left,a,,,,,349.174,349.6898,35.84,0,-0.800018311,1,0,0,0.5156,fixationPoint,349.6898,349.7898,349.7898,351.3312,35.84,10240,616.96,a,1,1.5353,,351.3313,351.5311,,,,,,,,39,164,76,-174,115,-160,70,-20,212,-163,-220,-19,-223,-65,-160,68,-64,27,-27,169,-32,72,175,218,80,180,180,270,90,90,270,90,180,270,270,270,,,,,,,,,,,351.5311,351.5313,,0,6,6,6,1,2,repeated,,,,,,,,,,,,,,,,,,,,,,,,,,,,,,,,,,,,,,,,,,,,,,,,,
,,3,4,${e://Field/PROLIFIC_PID,F,18,2023-11-02_19h22.08.652,MouseEye_CC,2023.2.2,Win32,119.1469081,1.28,,,1536,864,40.183,5.26,"309.75, 382.91, 363.12, 378.77, 379.42, 391.67, 387.61",911.26,7.01396874,36.89347557,27.83653633,Passed,123.5931432,,,,,,,,,,,,,,,,,,,,,training,1,8,0,left,a,,,,,351.5317,351.8895,35.84,3.200012207,-9.600006104,1,0,0,0.3576,fixationPoint,351.8895,351.9894,351.9896,353.3808,35.84,10240,616.96,a,1,1.3849,,353.3808,353.5808,,,,,,,,72,-170,-118,66,72,222,168,169,125,-30,28,-212,69,-117,22,174,-70,68,-64,124,-170,-70,-67,-218,-30,270,180,360,360,360,360,360,90,180,180,90,,,,,,,,,,,353.5808,353.581,,0,7,7,7,1,6,repeated,,,,,,,,,,,,,,,,,,,,,,,,,,,,,,,,,,,,,,,,,,,,,,,,,
,,3,4,${e://Field/PROLIFIC_PID,F,18,2023-11-02_19h22.08.652,MouseEye_CC,2023.2.2,Win32,119.1469081,1.28,,,1536,864,40.183,5.26,"309.75, 382.91, 363.12, 378.77, 379.42, 391.67, 387.61",911.26,7.01396874,36.89347557,27.83653633,Passed,123.5931432,,,,,,,,,,,,,,,,,,,,,training,1,9,0,left,a,,,,,353.5813,353.9891,35.84,5.600036621,-4.800018311,1,0,0,0.4077,fixationPoint,353.9891,354.0877,354.0877,356.7387,35.84,10240,616.96,a,1,2.6407,,356.7388,356.9385,,,,,,,,27,69,127,-160,70,-115,218,-28,64,-224,-218,-169,-161,-219,-120,124,-170,164,-173,174,-70,21,68,161,170,90,270,180,360,180,180,180,180,270,90,270,,,,,,,,,,,356.9385,356.9387,,0,8,8,8,1,1,repeated,,,,,,,,,,,,,,,,,,,,,,,,,,,,,,,,,,,,,,,,,,,,,,,,,
,,3,4,${e://Field/PROLIFIC_PID,F,18,2023-11-02_19h22.08.652,MouseEye_CC,2023.2.2,Win32,119.1469081,1.28,,,1536,864,40.183,5.26,"309.75, 382.91, 363.12, 378.77, 379.42, 391.67, 387.61",911.26,7.01396874,36.89347557,27.83653633,Passed,123.5931432,,,,,,,,,,,,,,,,,,,,,training,1,10,180,right,s,,,,,356.939,357.3219,35.84,8,-5.600006104,1,0,0,0.3828,fixationPoint,357.3219,357.4261,357.4262,358.3031,35.84,10240,616.96,s,1,0.872,,358.3031,358.5025,,,,,,,,38,120,66,-70,75,-80,16,-221,25,-31,-65,-220,-68,-116,-73,211,-168,72,-221,127,-127,217,219,169,125,90,270,360,270,360,270,90,180,270,180,270,,,,,,,,,,,358.5026,358.5027,,0,9,9,9,1,13,novel,,,,,,,,,,,,,,,,,,,,,,,,,,,,,,,,,,,,,,,,,,,,,,,,,
,,3,4,${e://Field/PROLIFIC_PID,F,18,2023-11-02_19h22.08.652,MouseEye_CC,2023.2.2,Win32,119.1469081,1.28,,,1536,864,40.183,5.26,"309.75, 382.91, 363.12, 378.77, 379.42, 391.67, 387.61",911.26,7.01396874,36.89347557,27.83653633,Passed,123.5931432,,,,,,,,,,,,,,,,,,,,,training,1,11,180,right,s,,,,,358.5031,358.8689,35.84,10.40002441,-4,1,0,0,0.3657,fixationPoint,358.8689,358.9633,358.9634,361.3604,35.84,10240,616.96,s,1,2.384,,361.3604,361.5599,,,,,,,,88,124,-170,166,16,217,219,169,125,-117,22,-16,126,-126,173,-24,-17,-65,-160,-224,-218,19,-127,169,-32,360,270,180,180,180,360,90,270,360,90,360,,,,,,,,,,,361.56,361.5601,,0,10,10,10,1,8,repeated,,,,,,,,,,,,,,,,,,,,,,,,,,,,,,,,,,,,,,,,,,,,,,,,,
,,3,4,${e://Field/PROLIFIC_PID,F,18,2023-11-02_19h22.08.652,MouseEye_CC,2023.2.2,Win32,119.1469081,1.28,,,1536,864,40.183,5.26,"309.75, 382.91, 363.12, 378.77, 379.42, 391.67, 387.61",911.26,7.01396874,36.89347557,27.83653633,Passed,123.5931432,,,,,,,,,,,,,,,,,,,,,training,1,12,180,right,s,,,,,361.5604,361.977,35.84,-4.799987793,-12,1,0,0,0.4164,fixationPoint,361.977,362.0779,362.0779,363.2684,35.84,10240,616.96,s,1,1.1822,,363.2685,363.4679,,,,,,,,29,169,125,-115,218,-28,64,-68,174,-72,-128,-75,-24,-127,-212,68,-64,112,-215,211,-168,218,80,118,20,90,180,360,90,270,180,360,180,360,90,180,,,,,,,,,,,363.4679,363.4682,,0,11,11,11,1,14,novel,,,,,,,,,,,,,,,,,,,,,,,,,,,,,,,,,,,,,,,,,,,,,,,,,
,,3,4,${e://Field/PROLIFIC_PID,F,18,2023-11-02_19h22.08.652,MouseEye_CC,2023.2.2,Win32,119.1469081,1.28,,,1536,864,40.183,5.26,"309.75, 382.91, 363.12, 378.77, 379.42, 391.67, 387.61",911.26,7.01396874,36.89347557,27.83653633,Passed,123.5931432,,,,,,,,,,,,,,,,,,,,,training,1,13,0,left,a,,,,,363.4685,363.9124,35.84,2.400024414,-3.200012207,1,0,0,0.4438,fixationPoint,363.9124,364.0124,364.0124,365.8954,35.84,10240,616.96,a,1,1.8731,,365.8955,366.0956,,,,,,,,74,-72,-128,164,76,21,68,114,216,-172,214,-212,69,-73,119,72,-221,164,-173,20,-222,-19,-223,-219,-120,360,360,270,360,270,360,360,180,90,180,270,,,,,,,,,,,366.0957,366.0959,,0,12,12,12,1,9,novel,,,,,,,,,,,,,,,,,,,,,,,,,,,,,,,,,,,,,,,,,,,,,,,,,
,,3,4,${e://Field/PROLIFIC_PID,F,18,2023-11-02_19h22.08.652,MouseEye_CC,2023.2.2,Win32,119.1469081,1.28,,,1536,864,40.183,5.26,"309.75, 382.91, 363.12, 378.77, 379.42, 391.67, 387.61",911.26,7.01396874,36.89347557,27.83653633,Passed,123.5931432,,,,,,,,,,,,,,,,,,,,,training,1,14,180,right,s,,,,,366.0962,366.4538,35.84,4,4,1,0,0,0.3575,fixationPoint,366.4539,366.5539,366.5539,370.2864,35.84,10240,616.96,s,1,3.7257,,370.2864,370.4864,,,,,,,,76,19,-127,169,125,69,127,118,20,-174,115,-126,173,-210,215,-117,-167,-163,-220,-68,-221,222,-126,127,-127,180,180,270,180,270,360,180,270,90,180,360,,,,,,,,,,,370.4864,370.4865,,0,13,13,13,1,11,novel,,,,,,,,,,,,,,,,,,,,,,,,,,,,,,,,,,,,,,,,,,,,,,,,,
,,3,4,${e://Field/PROLIFIC_PID,F,18,2023-11-02_19h22.08.652,MouseEye_CC,2023.2.2,Win32,119.1469081,1.28,,,1536,864,40.183,5.26,"309.75, 382.91, 363.12, 378.77, 379.42, 391.67, 387.61",911.26,7.01396874,36.89347557,27.83653633,Passed,123.5931432,,,,,,,,,,,,,,,,,,,,,training,1,15,0,left,a,,,,,370.4869,370.9196,35.84,-3.200012207,-12.80001831,1,0,0,0.4325,fixationPoint,370.9196,371.0196,371.0196,373.2776,35.84,10240,616.96,a,1,2.2483,,373.2777,373.4784,,,,,,,,63,-116,-73,21,68,212,128,66,72,-221,25,-128,76,-208,172,19,-127,127,-127,163,-120,-121,-18,-72,-128,270,360,180,360,90,360,360,270,90,180,360,,,,,,,,,,,373.4784,373.4787,,0,14,14,14,1,5,repeated,,,,,,,,,,,,,,,,,,,,,,,,,,,,,,,,,,,,,,,,,,,,,,,,,
,,3,4,${e://Field/PROLIFIC_PID,F,18,2023-11-02_19h22.08.652,MouseEye_CC,2023.2.2,Win32,119.1469081,1.28,,,1536,864,40.183,5.26,"309.75, 382.91, 363.12, 378.77, 379.42, 391.67, 387.61",911.26,7.01396874,36.89347557,27.83653633,Passed,123.5931432,,,,,,,,,,,,,,,,,,,,,training,1,16,180,right,s,,,,,373.4793,373.8525,35.84,5.600036621,-8.800018311,1,0,0,0.373,fixationPoint,373.8525,373.9526,373.9526,375.8022,35.84,10240,616.96,s,1,1.8399,,375.8023,376.0025,,,,,,,,5,-20,212,28,21,120,66,77,23,-20,-123,-224,-218,-218,-30,20,-222,19,-127,80,-120,-115,218,-117,22,180,270,360,270,270,360,360,90,90,180,360,,,,,,,,,,,376.0026,380.4774,space,0,15,15,15,1,4,repeated,4.4524,,,,,,,,,,,,,,,,,,,,,,,,,,,,,,,,,,,,,,,,,,,,,,,,
,,3,4,${e://Field/PROLIFIC_PID,F,18,2023-11-02_19h22.08.652,MouseEye_CC,2023.2.2,Win32,119.1469081,1.28,,,1536,864,40.183,5.26,"309.75, 382.91, 363.12, 378.77, 379.42, 391.67, 387.61",911.26,7.01396874,36.89347557,27.83653633,Passed,123.5931432,,,,,,,,,,,,,,,,,,,,,training,2,1,0,left,a,,,,,380.4859,382.6927,35.84,13.60003662,-21.6000061,1,0,0,1.3988,fixationPoint,382.6927,382.7925,382.7925,384.9983,35.84,10240,616.96,a,1,2.1973,,384.9983,385.1923,,,,,,,,62,-176,-68,208,24,21,68,222,168,-126,173,-175,164,-176,26,211,-168,127,-127,124,-170,-169,-161,-20,-123,90,270,180,90,360,90,180,90,270,90,180,,,,,,,,,,,385.1923,385.1959,,0,16,16,16,1,10,novel,,,,,,,,,,,,,,,,,,,,,,,,,,,,,,,,,,,,,,,,,,,,,,,,,
,,3,4,${e://Field/PROLIFIC_PID,F,18,2023-11-02_19h22.08.652,MouseEye_CC,2023.2.2,Win32,119.1469081,1.28,,,1536,864,40.183,5.26,"309.75, 382.91, 363.12, 378.77, 379.42, 391.67, 387.61",911.26,7.01396874,36.89347557,27.83653633,Passed,123.5931432,,,,,,,,,,,,,,,,,,,,,training,2,2,180,right,s,,,,,385.1963,385.5842,35.84,-4.799987793,-10.3999939,1,0,0,0.3877,fixationPoint,385.5842,385.6807,385.6808,387.2228,35.84,10240,616.96,s,1,1.5354,,387.2229,387.4224,,,,,,,,72,-170,-118,66,72,222,168,169,125,-30,28,-212,69,-117,22,174,-70,68,-64,124,-170,-70,-67,-218,-30,360,270,360,360,360,360,180,180,180,180,270,,,,,,,,,,,387.4224,387.4225,,0,17,17,17,1,6,repeated,,,,,,,,,,,,,,,,,,,,,,,,,,,,,,,,,,,,,,,,,,,,,,,,,
,,3,4,${e://Field/PROLIFIC_PID,F,18,2023-11-02_19h22.08.652,MouseEye_CC,2023.2.2,Win32,119.1469081,1.28,,,1536,864,40.183,5.26,"309.75, 382.91, 363.12, 378.77, 379.42, 391.67, 387.61",911.26,7.01396874,36.89347557,27.83653633,Passed,123.5931432,,,,,,,,,,,,,,,,,,,,,training,2,3,0,left,a,,,,,387.4228,387.7642,35.84,15.20001221,8.799987793,1,0,0,0.3413,fixationPoint,387.7643,387.8591,387.8591,388.7976,35.84,10240,616.96,a,1,0.932,,388.7977,388.9971,,,,,,,,4,-80,213,166,16,222,168,118,20,-169,-161,-31,-65,-218,-30,222,-126,119,-76,163,-120,-68,174,-172,214,90,180,270,90,180,270,90,90,90,360,180,,,,,,,,,,,388.9971,388.9972,,0,18,18,18,1,15,novel,,,,,,,,,,,,,,,,,,,,,,,,,,,,,,,,,,,,,,,,,,,,,,,,,
,,3,4,${e://Field/PROLIFIC_PID,F,18,2023-11-02_19h22.08.652,MouseEye_CC,2023.2.2,Win32,119.1469081,1.28,,,1536,864,40.183,5.26,"309.75, 382.91, 363.12, 378.77, 379.42, 391.67, 387.61",911.26,7.01396874,36.89347557,27.83653633,Passed,123.5931432,,,,,,,,,,,,,,,,,,,,,training,2,4,180,right,s,,,,,388.9976,389.3894,35.84,7.200012207,-13.6000061,1,0,0,0.3918,fixationPoint,389.3895,389.49,389.4901,391.2643,35.84,10240,616.96,s,1,1.7658,,391.2645,391.4634,,,,,,,,88,124,-170,166,16,217,219,169,125,-117,22,-16,126,-126,173,-24,-17,-65,-160,-224,-218,19,-127,169,-32,90,90,270,270,360,270,360,180,180,180,360,,,,,,,,,,,391.4634,391.4636,,0,19,19,19,1,8,repeated,,,,,,,,,,,,,,,,,,,,,,,,,,,,,,,,,,,,,,,,,,,,,,,,,
,,3,4,${e://Field/PROLIFIC_PID,F,18,2023-11-02_19h22.08.652,MouseEye_CC,2023.2.2,Win32,119.1469081,1.28,,,1536,864,40.183,5.26,"309.75, 382.91, 363.12, 378.77, 379.42, 391.67, 387.61",911.26,7.01396874,36.89347557,27.83653633,Passed,123.5931432,,,,,,,,,,,,,,,,,,,,,training,2,5,180,right,s,,,,,391.4639,391.8579,35.84,1.600036621,9.600006104,1,0,0,0.3939,fixationPoint,391.8579,391.9582,391.9582,393.5743,35.84,10240,616.96,s,1,1.609,,393.5743,393.7796,,,,,,,,76,19,-127,20,116,175,209,164,76,-208,172,-176,26,-80,16,-65,-160,-19,-176,-163,-220,80,-120,119,-76,270,270,360,180,90,360,180,90,180,360,360,,,,,,,,,,,393.7796,393.7797,,0,20,20,20,1,11,novel,,,,,,,,,,,,,,,,,,,,,,,,,,,,,,,,,,,,,,,,,,,,,,,,,
,,3,4,${e://Field/PROLIFIC_PID,F,18,2023-11-02_19h22.08.652,MouseEye_CC,2023.2.2,Win32,119.1469081,1.28,,,1536,864,40.183,5.26,"309.75, 382.91, 363.12, 378.77, 379.42, 391.67, 387.61",911.26,7.01396874,36.89347557,27.83653633,Passed,123.5931432,,,,,,,,,,,,,,,,,,,,,training,2,6,180,right,s,,,,,393.7801,394.1575,35.84,0,8.799987793,1,0,0,0.3772,fixationPoint,394.1575,394.2575,394.2576,396.5246,35.84,10240,616.96,s,1,2.2557,,396.5247,396.7241,,,,,,,,5,-20,212,28,21,120,66,77,23,-20,-123,-224,-218,-218,-30,20,-222,19,-127,80,-120,-115,218,-117,22,360,270,360,90,270,270,270,360,180,360,90,,,,,,,,,,,396.7241,396.7241,,0,21,21,21,1,4,repeated,,,,,,,,,,,,,,,,,,,,,,,,,,,,,,,,,,,,,,,,,,,,,,,,,
,,3,4,${e://Field/PROLIFIC_PID,F,18,2023-11-02_19h22.08.652,MouseEye_CC,2023.2.2,Win32,119.1469081,1.28,,,1536,864,40.183,5.26,"309.75, 382.91, 363.12, 378.77, 379.42, 391.67, 387.61",911.26,7.01396874,36.89347557,27.83653633,Passed,123.5931432,,,,,,,,,,,,,,,,,,,,,training,2,7,180,right,s,,,,,396.7245,397.0904,35.84,1.600036621,8.799987793,1,0,0,0.3658,fixationPoint,397.0905,397.1905,397.1905,397.9403,35.84,10240,616.96,s,1,0.7398,,397.9403,398.1461,,,,,,,,27,69,127,-160,70,-115,218,-28,64,-224,-218,-169,-161,-219,-120,124,-170,164,-173,174,-70,21,68,161,170,270,90,360,90,90,270,270,270,180,180,90,,,,,,,,,,,398.1461,398.1464,,0,22,22,22,1,1,repeated,,,,,,,,,,,,,,,,,,,,,,,,,,,,,,,,,,,,,,,,,,,,,,,,,
,,3,4,${e://Field/PROLIFIC_PID,F,18,2023-11-02_19h22.08.652,MouseEye_CC,2023.2.2,Win32,119.1469081,1.28,,,1536,864,40.183,5.26,"309.75, 382.91, 363.12, 378.77, 379.42, 391.67, 387.61",911.26,7.01396874,36.89347557,27.83653633,Passed,123.5931432,,,,,,,,,,,,,,,,,,,,,training,2,8,0,left,a,,,,,398.1467,398.5322,35.84,0,12,1,0,0,0.3855,fixationPoint,398.5323,398.6318,398.6319,399.8628,35.84,10240,616.96,a,1,1.2172,,399.8629,400.0648,,,,,,,,25,-16,126,26,217,20,116,72,175,-31,-65,-117,-167,-121,-18,126,-28,209,-208,163,-120,-128,76,-116,112,360,270,270,360,180,180,90,180,360,270,360,,,,,,,,,,,400.0648,400.0652,,0,23,23,23,1,3,repeated,,,,,,,,,,,,,,,,,,,,,,,,,,,,,,,,,,,,,,,,,,,,,,,,,
,,3,4,${e://Field/PROLIFIC_PID,F,18,2023-11-02_19h22.08.652,MouseEye_CC,2023.2.2,Win32,119.1469081,1.28,,,1536,864,40.183,5.26,"309.75, 382.91, 363.12, 378.77, 379.42, 391.67, 387.61",911.26,7.01396874,36.89347557,27.83653633,Passed,123.5931432,,,,,,,,,,,,,,,,,,,,,training,2,9,0,left,a,,,,,400.0655,400.4656,35.84,-8,-10.3999939,1,0,0,0.4,fixationPoint,400.4656,400.562,400.5621,403.3209,35.84,10240,616.96,a,1,2.7481,,403.321,403.5235,,,,,,,,97,72,-221,169,125,175,209,26,171,-20,212,-216,125,-160,70,-176,-68,-170,-118,-169,-161,127,-127,80,-120,270,90,180,180,180,180,90,180,90,360,360,,,,,,,,,,,403.5235,403.5237,,0,24,24,24,1,7,repeated,,,,,,,,,,,,,,,,,,,,,,,,,,,,,,,,,,,,,,,,,,,,,,,,,
,,3,4,${e://Field/PROLIFIC_PID,F,18,2023-11-02_19h22.08.652,MouseEye_CC,2023.2.2,Win32,119.1469081,1.28,,,1536,864,40.183,5.26,"309.75, 382.91, 363.12, 378.77, 379.42, 391.67, 387.61",911.26,7.01396874,36.89347557,27.83653633,Passed,123.5931432,,,,,,,,,,,,,,,,,,,,,training,2,10,180,right,s,,,,,403.5242,403.906,35.84,4,-14.3999939,1,0,0,0.3817,fixationPoint,403.906,404.0059,404.0059,404.9807,35.84,10240,616.96,s,1,0.959,,404.9808,405.1807,,,,,,,,96,20,-222,212,128,80,222,161,170,-210,215,-70,75,-20,212,-20,-123,-224,-218,-19,-176,27,-68,126,-28,360,360,360,360,180,360,180,180,270,360,90,,,,,,,,,,,405.1807,405.1809,,0,25,25,25,1,12,novel,,,,,,,,,,,,,,,,,,,,,,,,,,,,,,,,,,,,,,,,,,,,,,,,,
,,3,4,${e://Field/PROLIFIC_PID,F,18,2023-11-02_19h22.08.652,MouseEye_CC,2023.2.2,Win32,119.1469081,1.28,,,1536,864,40.183,5.26,"309.75, 382.91, 363.12, 378.77, 379.42, 391.67, 387.61",911.26,7.01396874,36.89347557,27.83653633,Passed,123.5931432,,,,,,,,,,,,,,,,,,,,,training,2,11,180,right,s,,,,,405.1811,405.5977,35.84,0,4,1,0,0,0.4165,fixationPoint,405.5977,405.6937,405.6937,410.455,35.84,10240,616.96,s,1,4.7502,,410.455,410.6548,,,,,,,,39,164,76,-174,115,-160,70,-20,212,-163,-220,-19,-223,-65,-160,68,-64,27,-27,169,-32,72,175,218,80,360,180,360,90,180,360,360,90,360,180,360,,,,,,,,,,,410.6548,410.6549,,0,26,26,26,1,2,repeated,,,,,,,,,,,,,,,,,,,,,,,,,,,,,,,,,,,,,,,,,,,,,,,,,
,,3,4,${e://Field/PROLIFIC_PID,F,18,2023-11-02_19h22.08.652,MouseEye_CC,2023.2.2,Win32,119.1469081,1.28,,,1536,864,40.183,5.26,"309.75, 382.91, 363.12, 378.77, 379.42, 391.67, 387.61",911.26,7.01396874,36.89347557,27.83653633,Passed,123.5931432,,,,,,,,,,,,,,,,,,,,,training,2,12,0,left,a,,,,,410.6552,411.038,35.84,8,12,1,0,0,0.3827,fixationPoint,411.0381,411.1355,411.1355,412.9524,35.84,10240,616.96,a,1,1.8086,,412.9524,413.1515,,,,,,,,74,-72,-128,212,128,222,168,218,80,-80,213,-20,212,-126,173,79,-175,126,-28,163,-120,-220,-68,-68,-221,270,90,90,90,180,360,90,360,90,360,360,,,,,,,,,,,413.1516,413.1516,,0,27,27,27,1,9,novel,,,,,,,,,,,,,,,,,,,,,,,,,,,,,,,,,,,,,,,,,,,,,,,,,
,,3,4,${e://Field/PROLIFIC_PID,F,18,2023-11-02_19h22.08.652,MouseEye_CC,2023.2.2,Win32,119.1469081,1.28,,,1536,864,40.183,5.26,"309.75, 382.91, 363.12, 378.77, 379.42, 391.67, 387.61",911.26,7.01396874,36.89347557,27.83653633,Passed,123.5931432,,,,,,,,,,,,,,,,,,,,,training,2,13,0,left,a,,,,,413.152,413.5129,35.84,-1.599975586,4.799987793,1,0,0,0.3609,fixationPoint,413.5129,413.6098,413.6099,415.4359,35.84,10240,616.96,a,1,1.816,,415.4359,415.6373,,,,,,,,38,120,66,-117,22,-30,28,-216,125,-20,-123,-169,-161,-219,-120,27,-27,119,-76,164,-173,161,170,77,23,90,270,180,90,90,360,180,180,270,270,270,,,,,,,,,,,415.6374,415.6374,,0,28,28,28,1,13,novel,,,,,,,,,,,,,,,,,,,,,,,,,,,,,,,,,,,,,,,,,,,,,,,,,
,,3,4,${e://Field/PROLIFIC_PID,F,18,2023-11-02_19h22.08.652,MouseEye_CC,2023.2.2,Win32,119.1469081,1.28,,,1536,864,40.183,5.26,"309.75, 382.91, 363.12, 378.77, 379.42, 391.67, 387.61",911.26,7.01396874,36.89347557,27.83653633,Passed,123.5931432,,,,,,,,,,,,,,,,,,,,,training,2,14,0,left,a,,,,,415.6378,416.0123,35.84,5.600036621,2.399993896,1,0,0,0.3745,fixationPoint,416.0123,416.11,416.11,418.3786,35.84,10240,616.96,a,1,2.2556,,418.3786,418.5785,,,,,,,,13,-126,173,164,76,212,128,26,171,-219,-120,-220,-68,-117,-167,211,-168,222,-126,72,-221,-176,26,-175,164,90,90,270,360,360,90,180,180,90,180,90,,,,,,,,,,,418.5785,418.5787,,0,29,29,29,1,16,novel,,,,,,,,,,,,,,,,,,,,,,,,,,,,,,,,,,,,,,,,,,,,,,,,,
,,3,4,${e://Field/PROLIFIC_PID,F,18,2023-11-02_19h22.08.652,MouseEye_CC,2023.2.2,Win32,119.1469081,1.28,,,1536,864,40.183,5.26,"309.75, 382.91, 363.12, 378.77, 379.42, 391.67, 387.61",911.26,7.01396874,36.89347557,27.83653633,Passed,123.5931432,,,,,,,,,,,,,,,,,,,,,training,2,15,180,right,s,,,,,418.5789,418.9869,35.84,-4,5.600006104,1,0,0,0.4078,fixationPoint,418.9869,419.0844,419.0845,420.4533,35.84,10240,616.96,s,1,1.3496,,420.4534,420.6537,,,,,,,,29,169,125,-115,218,-20,212,-24,162,-121,-18,-68,-221,-75,-24,169,-32,124,-170,126,-28,114,216,20,116,270,90,90,270,90,180,270,90,180,270,360,,,,,,,,,,,420.6538,420.654,,0,30,30,30,1,14,novel,,,,,,,,,,,,,,,,,,,,,,,,,,,,,,,,,,,,,,,,,,,,,,,,,
,,3,4,${e://Field/PROLIFIC_PID,F,18,2023-11-02_19h22.08.652,MouseEye_CC,2023.2.2,Win32,119.1469081,1.28,,,1536,864,40.183,5.26,"309.75, 382.91, 363.12, 378.77, 379.42, 391.67, 387.61",911.26,7.01396874,36.89347557,27.83653633,Passed,123.5931432,,,,,,,,,,,,,,,,,,,,,training,2,16,0,left,a,,,,,420.6546,421.0122,35.84,15.20001221,-5.600006104,1,0,0,0.3575,fixationPoint,421.0123,421.1076,421.1076,433.6094,35.84,10240,616.96,s,0,12.4903,,433.6095,437.6087,,,,,,,,63,-116,-73,21,68,212,128,66,72,-221,25,-128,76,-208,172,19,-127,127,-127,163,-120,-121,-18,-72,-128,270,360,180,180,360,270,90,90,180,360,360,,,,,,,,,,,437.6087,441.0082,space,0,31,31,31,1,5,repeated,3.3821,,,,,,,,,,,,,,,,,,,,,,,,,,,,,,,,,,,,,,,,,,,,,,,,
,,3,4,${e://Field/PROLIFIC_PID,F,18,2023-11-02_19h22.08.652,MouseEye_CC,2023.2.2,Win32,119.1469081,1.28,,,1536,864,40.183,5.26,"309.75, 382.91, 363.12, 378.77, 379.42, 391.67, 387.61",911.26,7.01396874,36.89347557,27.83653633,Passed,123.5931432,,,,,,,,,,,,,,,,,,,,,training,3,1,0,left,a,,,,,441.0171,442.042,35.84,12,-12,1,0,0,1.0247,fixationPoint,442.0421,442.1413,442.1414,444.2494,35.84,10240,616.96,a,1,2.0982,,444.2494,444.4492,,,,,,,,13,-126,173,118,20,169,125,217,219,-117,-167,-70,-67,-20,-123,174,-70,164,-173,169,-32,-221,25,-116,112,90,180,180,270,90,360,360,360,180,90,270,,,,,,,,,,,444.4493,444.4506,,0,32,32,32,1,16,novel,,,,,,,,,,,,,,,,,,,,,,,,,,,,,,,,,,,,,,,,,,,,,,,,,
,,3,4,${e://Field/PROLIFIC_PID,F,18,2023-11-02_19h22.08.652,MouseEye_CC,2023.2.2,Win32,119.1469081,1.28,,,1536,864,40.183,5.26,"309.75, 382.91, 363.12, 378.77, 379.42, 391.67, 387.61",911.26,7.01396874,36.89347557,27.83653633,Passed,123.5931432,,,,,,,,,,,,,,,,,,,,,training,3,2,180,right,s,,,,,444.451,444.816,35.84,7.200012207,0.799987793,1,0,0,0.3649,fixationPoint,444.8161,444.9161,444.9162,446.7822,35.84,10240,616.96,s,1,1.856,,446.7823,446.9822,,,,,,,,72,-170,-118,66,72,222,168,169,125,-30,28,-212,69,-117,22,174,-70,68,-64,124,-170,-70,-67,-218,-30,360,180,90,360,360,180,360,180,90,270,360,,,,,,,,,,,446.9823,446.9824,,0,33,33,33,1,6,repeated,,,,,,,,,,,,,,,,,,,,,,,,,,,,,,,,,,,,,,,,,,,,,,,,,
,,3,4,${e://Field/PROLIFIC_PID,F,18,2023-11-02_19h22.08.652,MouseEye_CC,2023.2.2,Win32,119.1469081,1.28,,,1536,864,40.183,5.26,"309.75, 382.91, 363.12, 378.77, 379.42, 391.67, 387.61",911.26,7.01396874,36.89347557,27.83653633,Passed,123.5931432,,,,,,,,,,,,,,,,,,,,,training,3,3,0,left,a,,,,,446.9828,447.2824,35.84,0,-2.399993896,1,0,0,0.2995,fixationPoint,447.2825,447.3783,447.3784,448.1961,35.84,10240,616.96,a,1,0.8097,,448.1962,448.3958,,,,,,,,62,-176,-68,20,116,66,72,217,219,-20,212,-216,125,-24,162,127,-127,168,-220,124,-170,-117,-167,-68,-221,270,270,270,360,90,270,270,180,180,270,360,,,,,,,,,,,448.3958,448.3959,,0,34,34,34,1,10,novel,,,,,,,,,,,,,,,,,,,,,,,,,,,,,,,,,,,,,,,,,,,,,,,,,
,,3,4,${e://Field/PROLIFIC_PID,F,18,2023-11-02_19h22.08.652,MouseEye_CC,2023.2.2,Win32,119.1469081,1.28,,,1536,864,40.183,5.26,"309.75, 382.91, 363.12, 378.77, 379.42, 391.67, 387.61",911.26,7.01396874,36.89347557,27.83653633,Passed,123.5931432,,,,,,,,,,,,,,,,,,,,,training,3,4,0,left,a,,,,,448.3963,449.3902,35.84,1.600036621,24.79998779,1,0,0,0.383,fixationPoint,449.3902,449.4901,449.4901,451.4315,35.84,10240,616.96,a,1,1.9347,,451.4316,451.6314,,,,,,,,39,164,76,-174,115,-160,70,-20,212,-163,-220,-19,-223,-65,-160,68,-64,27,-27,169,-32,72,175,218,80,360,180,180,270,360,90,180,270,270,270,270,,,,,,,,,,,451.6314,451.6316,,0,35,35,35,1,2,repeated,,,,,,,,,,,,,,,,,,,,,,,,,,,,,,,,,,,,,,,,,,,,,,,,,
,,3,4,${e://Field/PROLIFIC_PID,F,18,2023-11-02_19h22.08.652,MouseEye_CC,2023.2.2,Win32,119.1469081,1.28,,,1536,864,40.183,5.26,"309.75, 382.91, 363.12, 378.77, 379.42, 391.67, 387.61",911.26,7.01396874,36.89347557,27.83653633,Passed,123.5931432,,,,,,,,,,,,,,,,,,,,,training,3,5,0,left,a,,,,,451.6319,452.0397,35.84,0,8.799987793,1,0,0,0.4078,fixationPoint,452.0398,452.1399,452.1399,453.3898,35.84,10240,616.96,a,1,1.2406,,453.3898,453.5895,,,,,,,,74,-72,-128,20,116,118,20,222,168,-208,172,-30,28,-116,112,222,-126,126,-28,209,-208,-120,-116,-75,-24,90,180,90,360,90,90,180,270,270,360,360,,,,,,,,,,,453.5895,453.5896,,0,36,36,36,1,9,novel,,,,,,,,,,,,,,,,,,,,,,,,,,,,,,,,,,,,,,,,,,,,,,,,,
,,3,4,${e://Field/PROLIFIC_PID,F,18,2023-11-02_19h22.08.652,MouseEye_CC,2023.2.2,Win32,119.1469081,1.28,,,1536,864,40.183,5.26,"309.75, 382.91, 363.12, 378.77, 379.42, 391.67, 387.61",911.26,7.01396874,36.89347557,27.83653633,Passed,123.5931432,,,,,,,,,,,,,,,,,,,,,training,3,6,0,left,a,,,,,453.5899,453.9568,35.84,-8.799987793,10.3999939,1,0,0,0.3668,fixationPoint,453.9569,454.056,454.0561,455.7057,35.84,10240,616.96,a,1,1.6432,,455.7058,455.9057,,,,,,,,88,124,-170,166,16,217,219,169,125,-117,22,-16,126,-126,173,-24,-17,-65,-160,-224,-218,19,-127,169,-32,270,270,270,90,360,180,270,90,360,270,270,,,,,,,,,,,455.9057,455.9059,,0,37,37,37,1,8,repeated,,,,,,,,,,,,,,,,,,,,,,,,,,,,,,,,,,,,,,,,,,,,,,,,,
,,3,4,${e://Field/PROLIFIC_PID,F,18,2023-11-02_19h22.08.652,MouseEye_CC,2023.2.2,Win32,119.1469081,1.28,,,1536,864,40.183,5.26,"309.75, 382.91, 363.12, 378.77, 379.42, 391.67, 387.61",911.26,7.01396874,36.89347557,27.83653633,Passed,123.5931432,,,,,,,,,,,,,,,,,,,,,training,3,7,180,right,s,,,,,455.9062,456.2391,35.84,1.600036621,11.19998169,1,0,0,0.3328,fixationPoint,456.2391,456.3349,456.3349,458.1644,35.84,10240,616.96,s,1,1.8217,,458.1645,458.3637,,,,,,,,38,120,66,-175,164,-70,75,-16,126,-116,-73,-20,-123,-120,-116,112,-215,126,-28,222,-126,164,76,66,72,90,90,270,180,180,360,90,180,180,180,360,,,,,,,,,,,458.3638,458.364,,0,38,38,38,1,13,novel,,,,,,,,,,,,,,,,,,,,,,,,,,,,,,,,,,,,,,,,,,,,,,,,,
,,3,4,${e://Field/PROLIFIC_PID,F,18,2023-11-02_19h22.08.652,MouseEye_CC,2023.2.2,Win32,119.1469081,1.28,,,1536,864,40.183,5.26,"309.75, 382.91, 363.12, 378.77, 379.42, 391.67, 387.61",911.26,7.01396874,36.89347557,27.83653633,Passed,123.5931432,,,,,,,,,,,,,,,,,,,,,training,3,8,0,left,a,,,,,458.3646,458.7386,35.84,5.600036621,-1.600006104,1,0,0,0.3738,fixationPoint,458.7386,458.8386,458.8387,461.383,35.84,10240,616.96,a,1,2.5384,,461.3831,461.5802,,,,,,,,63,-116,-73,21,68,212,128,66,72,-221,25,-128,76,-208,172,19,-127,127,-127,163,-120,-121,-18,-72,-128,90,360,90,360,360,360,90,90,180,270,90,,,,,,,,,,,461.5802,461.5804,,0,39,39,39,1,5,repeated,,,,,,,,,,,,,,,,,,,,,,,,,,,,,,,,,,,,,,,,,,,,,,,,,
,,3,4,${e://Field/PROLIFIC_PID,F,18,2023-11-02_19h22.08.652,MouseEye_CC,2023.2.2,Win32,119.1469081,1.28,,,1536,864,40.183,5.26,"309.75, 382.91, 363.12, 378.77, 379.42, 391.67, 387.61",911.26,7.01396874,36.89347557,27.83653633,Passed,123.5931432,,,,,,,,,,,,,,,,,,,,,training,3,9,0,left,a,,,,,461.5807,461.988,35.84,10.40002441,10.3999939,1,0,0,0.4073,fixationPoint,461.9881,462.0798,462.0798,464.3859,35.84,10240,616.96,a,1,2.2981,,464.3859,464.5908,,,,,,,,27,69,127,-160,70,-115,218,-28,64,-224,-218,-169,-161,-219,-120,124,-170,164,-173,174,-70,21,68,161,170,180,90,270,180,90,270,270,180,360,270,90,,,,,,,,,,,464.5908,464.5909,,0,40,40,40,1,1,repeated,,,,,,,,,,,,,,,,,,,,,,,,,,,,,,,,,,,,,,,,,,,,,,,,,
,,3,4,${e://Field/PROLIFIC_PID,F,18,2023-11-02_19h22.08.652,MouseEye_CC,2023.2.2,Win32,119.1469081,1.28,,,1536,864,40.183,5.26,"309.75, 382.91, 363.12, 378.77, 379.42, 391.67, 387.61",911.26,7.01396874,36.89347557,27.83653633,Passed,123.5931432,,,,,,,,,,,,,,,,,,,,,training,3,10,180,right,s,,,,,464.5912,465.9133,35.84,21.60003662,16,1,0,0,0.4131,fixationPoint,465.9133,466.0109,466.011,468.912,35.84,10240,616.96,s,1,2.8918,,468.912,469.1119,,,,,,,,76,19,-127,161,170,28,21,218,80,-175,164,-128,76,-80,213,-72,-128,-24,-17,-31,-65,126,-28,68,-64,90,270,270,180,180,360,90,180,180,270,90,,,,,,,,,,,469.112,469.1122,,0,41,41,41,1,11,novel,,,,,,,,,,,,,,,,,,,,,,,,,,,,,,,,,,,,,,,,,,,,,,,,,
,,3,4,${e://Field/PROLIFIC_PID,F,18,2023-11-02_19h22.08.652,MouseEye_CC,2023.2.2,Win32,119.1469081,1.28,,,1536,864,40.183,5.26,"309.75, 382.91, 363.12, 378.77, 379.42, 391.67, 387.61",911.26,7.01396874,36.89347557,27.83653633,Passed,123.5931432,,,,,,,,,,,,,,,,,,,,,training,3,11,180,right,s,,,,,469.1129,469.5459,35.84,-0.799987793,8.799987793,1,0,0,0.4328,fixationPoint,469.546,469.6459,469.6459,471.6865,35.84,10240,616.96,s,1,2.0275,,471.6865,471.8868,,,,,,,,5,-20,212,28,21,120,66,77,23,-20,-123,-224,-218,-218,-30,20,-222,19,-127,80,-120,-115,218,-117,22,270,270,180,360,180,90,270,180,90,180,90,,,,,,,,,,,471.8869,471.887,,0,42,42,42,1,4,repeated,,,,,,,,,,,,,,,,,,,,,,,,,,,,,,,,,,,,,,,,,,,,,,,,,
,,3,4,${e://Field/PROLIFIC_PID,F,18,2023-11-02_19h22.08.652,MouseEye_CC,2023.2.2,Win32,119.1469081,1.28,,,1536,864,40.183,5.26,"309.75, 382.91, 363.12, 378.77, 379.42, 391.67, 387.61",911.26,7.01396874,36.89347557,27.83653633,Passed,123.5931432,,,,,,,,,,,,,,,,,,,,,training,3,12,180,right,s,,,,,471.8874,472.2885,35.84,1.600036621,11.19998169,1,0,0,0.4009,fixationPoint,472.2885,472.3839,472.384,474.0674,35.84,10240,616.96,s,1,1.6754,,474.0674,474.2664,,,,,,,,97,72,-221,169,125,175,209,26,171,-20,212,-216,125,-160,70,-176,-68,-170,-118,-169,-161,127,-127,80,-120,270,270,90,270,270,180,180,90,270,270,180,,,,,,,,,,,474.2665,474.2666,,0,43,43,43,1,7,repeated,,,,,,,,,,,,,,,,,,,,,,,,,,,,,,,,,,,,,,,,,,,,,,,,,
,,3,4,${e://Field/PROLIFIC_PID,F,18,2023-11-02_19h22.08.652,MouseEye_CC,2023.2.2,Win32,119.1469081,1.28,,,1536,864,40.183,5.26,"309.75, 382.91, 363.12, 378.77, 379.42, 391.67, 387.61",911.26,7.01396874,36.89347557,27.83653633,Passed,123.5931432,,,,,,,,,,,,,,,,,,,,,training,3,13,180,right,s,,,,,474.267,474.6586,35.84,-0.799987793,-11.20001221,1,0,0,0.3915,fixationPoint,474.6586,474.7607,474.7608,479.4041,35.84,10240,616.96,s,1,4.6337,,479.4042,479.6022,,,,,,,,29,169,125,-174,115,-210,215,-68,174,-163,-220,-72,-128,-70,-67,112,-215,209,-208,72,-19,212,128,69,127,360,90,90,180,360,360,180,270,90,360,270,,,,,,,,,,,479.6024,479.6026,,0,44,44,44,1,14,novel,,,,,,,,,,,,,,,,,,,,,,,,,,,,,,,,,,,,,,,,,,,,,,,,,
,,3,4,${e://Field/PROLIFIC_PID,F,18,2023-11-02_19h22.08.652,MouseEye_CC,2023.2.2,Win32,119.1469081,1.28,,,1536,864,40.183,5.26,"309.75, 382.91, 363.12, 378.77, 379.42, 391.67, 387.61",911.26,7.01396874,36.89347557,27.83653633,Passed,123.5931432,,,,,,,,,,,,,,,,,,,,,training,3,14,180,right,s,,,,,479.6031,480.1935,35.84,8,-5.600006104,1,0,0,0.5902,fixationPoint,480.1936,480.2939,480.2939,482.1041,35.84,10240,616.96,s,1,1.8042,,482.1041,482.3022,,,,,,,,4,-80,213,161,170,175,209,208,24,-167,-32,-121,-18,-65,-160,27,-68,19,-127,209,-208,-212,69,-16,126,360,270,90,360,90,90,180,90,90,180,180,,,,,,,,,,,482.3022,482.3025,,0,45,45,45,1,15,novel,,,,,,,,,,,,,,,,,,,,,,,,,,,,,,,,,,,,,,,,,,,,,,,,,
,,3,4,${e://Field/PROLIFIC_PID,F,18,2023-11-02_19h22.08.652,MouseEye_CC,2023.2.2,Win32,119.1469081,1.28,,,1536,864,40.183,5.26,"309.75, 382.91, 363.12, 378.77, 379.42, 391.67, 387.61",911.26,7.01396874,36.89347557,27.83653633,Passed,123.5931432,,,,,,,,,,,,,,,,,,,,,training,3,15,180,right,s,,,,,482.3029,482.7099,35.84,-4.799987793,-13.6000061,1,0,0,0.4069,fixationPoint,482.71,482.8096,482.8097,483.7237,35.84,10240,616.96,s,1,0.9072,,483.7238,483.9237,,,,,,,,25,-16,126,26,217,20,116,72,175,-31,-65,-117,-167,-121,-18,126,-28,209,-208,163,-120,-128,76,-116,112,180,180,360,180,360,90,270,180,360,360,180,,,,,,,,,,,483.9237,483.924,,0,46,46,46,1,3,repeated,,,,,,,,,,,,,,,,,,,,,,,,,,,,,,,,,,,,,,,,,,,,,,,,,
,,3,4,${e://Field/PROLIFIC_PID,F,18,2023-11-02_19h22.08.652,MouseEye_CC,2023.2.2,Win32,119.1469081,1.28,,,1536,864,40.183,5.26,"309.75, 382.91, 363.12, 378.77, 379.42, 391.67, 387.61",911.26,7.01396874,36.89347557,27.83653633,Passed,123.5931432,,,,,,,,,,,,,,,,,,,,,training,3,16,0,left,a,,,,,483.9245,484.2487,35.84,-4.799987793,-9.600006104,1,0,0,0.3241,fixationPoint,484.2487,484.343,484.343,488.1922,35.84,10240,616.96,a,1,3.8386,,488.1923,488.3927,,,,,,,,96,20,-222,164,76,80,222,28,21,-172,214,-115,218,-20,212,-170,-118,-167,-32,-219,-120,222,-126,209,-208,360,180,90,90,360,90,270,360,180,270,270,,,,,,,,,,,488.3928,490.7667,space,0,47,47,47,1,12,novel,2.3557,,,,,,,,,,,,,,,,,,,,,,,,,,,,,,,,,,,,,,,,,,,,,,,,
,,3,4,${e://Field/PROLIFIC_PID,F,18,2023-11-02_19h22.08.652,MouseEye_CC,2023.2.2,Win32,119.1469081,1.28,,,1536,864,40.183,5.26,"309.75, 382.91, 363.12, 378.77, 379.42, 391.67, 387.61",911.26,7.01396874,36.89347557,27.83653633,Passed,123.5931432,,,,,,,,,,,,,,,,,,,,,training,4,1,180,right,s,,,,,490.767,492.0562,35.84,16.79998779,-43.20001221,1,0,0,0.867,fixationPoint,492.0562,492.157,492.157,493.5061,35.84,10240,616.96,s,1,1.3417,,493.5062,493.7051,,,,,,,,76,19,-127,26,171,26,217,166,16,-216,125,-208,172,-221,25,-167,-32,-116,-73,-121,-18,20,-222,174,-70,180,270,270,360,360,180,180,360,270,270,90,,,,,,,,,,,493.7051,493.7093,,0,48,48,48,1,11,novel,,,,,,,,,,,,,,,,,,,,,,,,,,,,,,,,,,,,,,,,,,,,,,,,,
,,3,4,${e://Field/PROLIFIC_PID,F,18,2023-11-02_19h22.08.652,MouseEye_CC,2023.2.2,Win32,119.1469081,1.28,,,1536,864,40.183,5.26,"309.75, 382.91, 363.12, 378.77, 379.42, 391.67, 387.61",911.26,7.01396874,36.89347557,27.83653633,Passed,123.5931432,,,,,,,,,,,,,,,,,,,,,training,4,2,0,left,a,,,,,493.7098,494.0975,35.84,12,-7.200012207,1,0,0,0.3877,fixationPoint,494.0976,494.1995,494.1996,495.7474,35.84,10240,616.96,a,1,1.5414,,495.7475,495.9465,,,,,,,,25,-16,126,26,217,20,116,72,175,-31,-65,-117,-167,-121,-18,126,-28,209,-208,163,-120,-128,76,-116,112,90,270,90,180,180,270,270,360,180,90,360,,,,,,,,,,,495.9465,495.9466,,0,49,49,49,1,3,repeated,,,,,,,,,,,,,,,,,,,,,,,,,,,,,,,,,,,,,,,,,,,,,,,,,
,,3,4,${e://Field/PROLIFIC_PID,F,18,2023-11-02_19h22.08.652,MouseEye_CC,2023.2.2,Win32,119.1469081,1.28,,,1536,864,40.183,5.26,"309.75, 382.91, 363.12, 378.77, 379.42, 391.67, 387.61",911.26,7.01396874,36.89347557,27.83653633,Passed,123.5931432,,,,,,,,,,,,,,,,,,,,,training,4,3,180,right,s,,,,,495.9469,496.2724,35.84,2.400024414,-7.200012207,1,0,0,0.3254,fixationPoint,496.2724,496.3741,496.3742,499.2986,35.84,10240,616.96,s,1,2.9147,,499.2987,499.4985,,,,,,,,13,-126,173,208,24,161,170,72,175,-72,-128,-121,-18,-75,-24,209,-208,215,-66,211,-168,-115,218,-80,213,90,90,180,90,270,90,360,90,90,180,360,,,,,,,,,,,499.4986,499.4988,,0,50,50,50,1,16,novel,,,,,,,,,,,,,,,,,,,,,,,,,,,,,,,,,,,,,,,,,,,,,,,,,
,,3,4,${e://Field/PROLIFIC_PID,F,18,2023-11-02_19h22.08.652,MouseEye_CC,2023.2.2,Win32,119.1469081,1.28,,,1536,864,40.183,5.26,"309.75, 382.91, 363.12, 378.77, 379.42, 391.67, 387.61",911.26,7.01396874,36.89347557,27.83653633,Passed,123.5931432,,,,,,,,,,,,,,,,,,,,,training,4,4,0,left,a,,,,,499.499,499.8071,35.84,-13.59997559,-0.800018311,1,0,0,0.308,fixationPoint,499.8071,499.9069,499.907,502.3315,35.84,10240,616.96,a,1,2.4169,,502.3315,502.5315,,,,,,,,72,-170,-118,66,72,222,168,169,125,-30,28,-212,69,-117,22,174,-70,68,-64,124,-170,-70,-67,-218,-30,270,180,360,180,360,270,180,360,360,270,180,,,,,,,,,,,502.5315,502.5316,,0,51,51,51,1,6,repeated,,,,,,,,,,,,,,,,,,,,,,,,,,,,,,,,,,,,,,,,,,,,,,,,,
,,3,4,${e://Field/PROLIFIC_PID,F,18,2023-11-02_19h22.08.652,MouseEye_CC,2023.2.2,Win32,119.1469081,1.28,,,1536,864,40.183,5.26,"309.75, 382.91, 363.12, 378.77, 379.42, 391.67, 387.61",911.26,7.01396874,36.89347557,27.83653633,Passed,123.5931432,,,,,,,,,,,,,,,,,,,,,training,4,5,0,left,a,,,,,502.532,502.9899,35.84,0,-9.600006104,1,0,0,0.4578,fixationPoint,502.9899,503.0904,503.0904,503.9313,35.84,10240,616.96,a,1,0.8329,,503.9314,504.1312,,,,,,,,74,-72,-128,208,24,161,170,120,66,-212,69,-208,172,-70,75,16,-173,19,-127,72,-221,-218,-30,-19,-176,90,360,90,180,360,270,360,90,360,360,180,,,,,,,,,,,504.1312,504.1314,,0,52,52,52,1,9,novel,,,,,,,,,,,,,,,,,,,,,,,,,,,,,,,,,,,,,,,,,,,,,,,,,
,,3,4,${e://Field/PROLIFIC_PID,F,18,2023-11-02_19h22.08.652,MouseEye_CC,2023.2.2,Win32,119.1469081,1.28,,,1536,864,40.183,5.26,"309.75, 382.91, 363.12, 378.77, 379.42, 391.67, 387.61",911.26,7.01396874,36.89347557,27.83653633,Passed,123.5931432,,,,,,,,,,,,,,,,,,,,,training,4,6,180,right,s,,,,,504.1317,504.5644,35.84,-51.20001221,-431.2000122,1,0,0,0.0501,fixationPoint,504.5646,504.6563,504.6563,505.8976,35.84,10240,616.96,s,1,1.2313,,505.8977,506.0976,,,,,,,,97,72,-221,169,125,175,209,26,171,-20,212,-216,125,-160,70,-176,-68,-170,-118,-169,-161,127,-127,80,-120,270,360,270,270,270,90,180,90,360,360,360,,,,,,,,,,,506.0976,506.0977,,0,53,53,53,1,7,repeated,,,,,,,,,,,,,,,,,,,,,,,,,,,,,,,,,,,,,,,,,,,,,,,,,
,,3,4,${e://Field/PROLIFIC_PID,F,18,2023-11-02_19h22.08.652,MouseEye_CC,2023.2.2,Win32,119.1469081,1.28,,,1536,864,40.183,5.26,"309.75, 382.91, 363.12, 378.77, 379.42, 391.67, 387.61",911.26,7.01396874,36.89347557,27.83653633,Passed,123.5931432,,,,,,,,,,,,,,,,,,,,,training,4,7,180,right,s,,,,,506.0981,506.4475,35.84,3.200012207,-15.20001221,1,0,0,0.3493,fixationPoint,506.4476,506.5483,506.5483,508.2222,35.84,10240,616.96,s,1,1.6653,,508.2223,508.4221,,,,,,,,27,69,127,-160,70,-115,218,-28,64,-224,-218,-169,-161,-219,-120,124,-170,164,-173,174,-70,21,68,161,170,90,360,90,90,180,270,90,90,360,90,270,,,,,,,,,,,508.4222,508.4224,,0,54,54,54,1,1,repeated,,,,,,,,,,,,,,,,,,,,,,,,,,,,,,,,,,,,,,,,,,,,,,,,,
,,3,4,${e://Field/PROLIFIC_PID,F,18,2023-11-02_19h22.08.652,MouseEye_CC,2023.2.2,Win32,119.1469081,1.28,,,1536,864,40.183,5.26,"309.75, 382.91, 363.12, 378.77, 379.42, 391.67, 387.61",911.26,7.01396874,36.89347557,27.83653633,Passed,123.5931432,,,,,,,,,,,,,,,,,,,,,training,4,8,180,right,s,,,,,508.4227,508.7974,35.84,4.799987793,-4.800018311,1,0,0,0.3746,fixationPoint,508.7974,508.8971,508.8971,509.6727,35.84,10240,616.96,s,1,0.7674,,509.6728,509.8726,,,,,,,,38,120,66,-80,16,-176,26,-28,64,-19,-176,-68,-221,-19,-223,211,-168,79,-175,112,-215,175,209,212,128,90,270,90,180,360,360,270,180,90,360,90,,,,,,,,,,,509.8726,509.8729,,0,55,55,55,1,13,novel,,,,,,,,,,,,,,,,,,,,,,,,,,,,,,,,,,,,,,,,,,,,,,,,,
,,3,4,${e://Field/PROLIFIC_PID,F,18,2023-11-02_19h22.08.652,MouseEye_CC,2023.2.2,Win32,119.1469081,1.28,,,1536,864,40.183,5.26,"309.75, 382.91, 363.12, 378.77, 379.42, 391.67, 387.61",911.26,7.01396874,36.89347557,27.83653633,Passed,123.5931432,,,,,,,,,,,,,,,,,,,,,training,4,9,0,left,a,,,,,509.8732,510.247,35.84,17.60003662,-13.6000061,1,0,0,0.3736,fixationPoint,510.247,510.3435,510.3435,511.8883,35.84,10240,616.96,a,1,1.5334,,511.8883,512.0881,,,,,,,,4,-80,213,166,16,28,21,66,72,-24,-17,-31,-65,-127,-212,222,-126,174,-70,211,-168,-210,215,-172,214,270,90,90,180,180,360,90,180,180,270,180,,,,,,,,,,,512.0882,512.0884,,0,56,56,56,1,15,novel,,,,,,,,,,,,,,,,,,,,,,,,,,,,,,,,,,,,,,,,,,,,,,,,,
,,3,4,${e://Field/PROLIFIC_PID,F,18,2023-11-02_19h22.08.652,MouseEye_CC,2023.2.2,Win32,119.1469081,1.28,,,1536,864,40.183,5.26,"309.75, 382.91, 363.12, 378.77, 379.42, 391.67, 387.61",911.26,7.01396874,36.89347557,27.83653633,Passed,123.5931432,,,,,,,,,,,,,,,,,,,,,training,4,10,0,left,a,,,,,512.0886,512.5381,35.84,1.600036621,10.3999939,1,0,0,0.4494,fixationPoint,512.5382,512.6367,512.6367,514.5524,35.84,10240,616.96,a,1,1.9071,,514.5525,514.7518,,,,,,,,88,124,-170,166,16,217,219,169,125,-117,22,-16,126,-126,173,-24,-17,-65,-160,-224,-218,19,-127,169,-32,360,180,360,90,180,180,360,90,90,270,360,,,,,,,,,,,514.7519,514.752,,0,57,57,57,1,8,repeated,,,,,,,,,,,,,,,,,,,,,,,,,,,,,,,,,,,,,,,,,,,,,,,,,
,,3,4,${e://Field/PROLIFIC_PID,F,18,2023-11-02_19h22.08.652,MouseEye_CC,2023.2.2,Win32,119.1469081,1.28,,,1536,864,40.183,5.26,"309.75, 382.91, 363.12, 378.77, 379.42, 391.67, 387.61",911.26,7.01396874,36.89347557,27.83653633,Passed,123.5931432,,,,,,,,,,,,,,,,,,,,,training,4,11,180,right,s,,,,,514.7522,515.696,35.84,-5.599975586,-20,1,0,0,0.3911,fixationPoint,515.6961,515.7959,515.796,517.8019,35.84,10240,616.96,s,1,1.9994,,517.8019,518.0039,,,,,,,,96,20,-222,28,21,120,66,218,80,-160,70,-68,174,-20,212,-20,-123,-218,-30,-65,-160,211,-168,27,-68,270,270,180,270,360,270,90,180,360,360,90,,,,,,,,,,,518.004,518.0041,,0,58,58,58,1,12,novel,,,,,,,,,,,,,,,,,,,,,,,,,,,,,,,,,,,,,,,,,,,,,,,,,
,,3,4,${e://Field/PROLIFIC_PID,F,18,2023-11-02_19h22.08.652,MouseEye_CC,2023.2.2,Win32,119.1469081,1.28,,,1536,864,40.183,5.26,"309.75, 382.91, 363.12, 378.77, 379.42, 391.67, 387.61",911.26,7.01396874,36.89347557,27.83653633,Passed,123.5931432,,,,,,,,,,,,,,,,,,,,,training,4,12,0,left,a,,,,,518.0044,518.3289,35.84,4.799987793,0,1,0,0,0.3244,fixationPoint,518.329,518.4261,518.4261,519.512,35.84,10240,616.96,a,1,1.0776,,519.5122,519.7127,,,,,,,,62,-176,-68,28,21,166,16,69,127,-126,173,-28,64,-70,75,68,-64,27,-27,169,-32,-170,-118,-75,-24,360,180,90,360,180,270,90,180,180,360,180,,,,,,,,,,,519.7127,519.713,,0,59,59,59,1,10,novel,,,,,,,,,,,,,,,,,,,,,,,,,,,,,,,,,,,,,,,,,,,,,,,,,
,,3,4,${e://Field/PROLIFIC_PID,F,18,2023-11-02_19h22.08.652,MouseEye_CC,2023.2.2,Win32,119.1469081,1.28,,,1536,864,40.183,5.26,"309.75, 382.91, 363.12, 378.77, 379.42, 391.67, 387.61",911.26,7.01396874,36.89347557,27.83653633,Passed,123.5931432,,,,,,,,,,,,,,,,,,,,,training,4,13,0,left,a,,,,,519.7136,520.187,35.84,3.200012207,15.19998169,1,0,0,0.4732,fixationPoint,520.187,520.287,520.2871,523.4615,35.84,10240,616.96,a,1,3.1634,,523.4615,523.6613,,,,,,,,39,164,76,-174,115,-160,70,-20,212,-163,-220,-19,-223,-65,-160,68,-64,27,-27,169,-32,72,175,218,80,360,360,180,180,270,270,180,360,270,180,270,,,,,,,,,,,523.6613,523.6615,,0,60,60,60,1,2,repeated,,,,,,,,,,,,,,,,,,,,,,,,,,,,,,,,,,,,,,,,,,,,,,,,,
,,3,4,${e://Field/PROLIFIC_PID,F,18,2023-11-02_19h22.08.652,MouseEye_CC,2023.2.2,Win32,119.1469081,1.28,,,1536,864,40.183,5.26,"309.75, 382.91, 363.12, 378.77, 379.42, 391.67, 387.61",911.26,7.01396874,36.89347557,27.83653633,Passed,123.5931432,,,,,,,,,,,,,,,,,,,,,training,4,14,0,left,a,,,,,523.6619,524.0034,35.84,0,-0.800018311,1,0,0,0.3414,fixationPoint,524.0034,524.1031,524.1031,526.4693,35.84,10240,616.96,a,1,2.3579,,526.4694,526.6672,,,,,,,,5,-20,212,28,21,120,66,77,23,-20,-123,-224,-218,-218,-30,20,-222,19,-127,80,-120,-115,218,-117,22,90,180,270,270,90,90,90,180,180,180,180,,,,,,,,,,,526.6673,526.6675,,0,61,61,61,1,4,repeated,,,,,,,,,,,,,,,,,,,,,,,,,,,,,,,,,,,,,,,,,,,,,,,,,
,,3,4,${e://Field/PROLIFIC_PID,F,18,2023-11-02_19h22.08.652,MouseEye_CC,2023.2.2,Win32,119.1469081,1.28,,,1536,864,40.183,5.26,"309.75, 382.91, 363.12, 378.77, 379.42, 391.67, 387.61",911.26,7.01396874,36.89347557,27.83653633,Passed,123.5931432,,,,,,,,,,,,,,,,,,,,,training,4,15,180,right,s,,,,,526.6678,527.0361,35.84,-4.799987793,-0.800018311,1,0,0,0.3683,fixationPoint,527.0361,527.1302,527.1302,528.808,35.84,10240,616.96,s,1,1.6665,,528.8081,529.0082,,,,,,,,29,169,125,-20,212,-221,25,-28,64,-218,-30,-75,-24,-19,-223,79,-175,222,-126,16,-173,175,209,212,128,270,360,90,90,360,270,180,270,270,360,360,,,,,,,,,,,529.0082,529.0084,,0,62,62,62,1,14,novel,,,,,,,,,,,,,,,,,,,,,,,,,,,,,,,,,,,,,,,,,,,,,,,,,
,,3,4,${e://Field/PROLIFIC_PID,F,18,2023-11-02_19h22.08.652,MouseEye_CC,2023.2.2,Win32,119.1469081,1.28,,,1536,864,40.183,5.26,"309.75, 382.91, 363.12, 378.77, 379.42, 391.67, 387.61",911.26,7.01396874,36.89347557,27.83653633,Passed,123.5931432,,,,,,,,,,,,,,,,,,,,,training,4,16,180,right,s,,,,,529.0088,529.2996,35.84,0,-2.399993896,1,0,0,0.2906,fixationPoint,529.2997,529.4023,529.4024,532.06,35.84,10240,616.96,s,1,2.6436,,532.0601,532.2608,,,,,,,,63,-116,-73,21,68,212,128,66,72,-221,25,-128,76,-208,172,19,-127,127,-127,163,-120,-121,-18,-72,-128,270,270,90,360,180,180,90,360,270,270,360,,,,,,,,,,,532.2609,535.6761,space,0,63,63,63,1,5,repeated,3.3983,,,,,,,,,,,,,,,,,,,,,,,,,,,,,,,,,,,,,,,,,,,,,,,,
,,3,4,${e://Field/PROLIFIC_PID,F,18,2023-11-02_19h22.08.652,MouseEye_CC,2023.2.2,Win32,119.1469081,1.28,,,1536,864,40.183,5.26,"309.75, 382.91, 363.12, 378.77, 379.42, 391.67, 387.61",911.26,7.01396874,36.89347557,27.83653633,Passed,123.5931432,,,,,,,,,,,,,,,,,,,,,training,5,1,180,right,s,,,,,535.6764,536.3926,35.84,3.200012207,-2.399993896,1,0,0,0.7161,fixationPoint,536.3926,536.4878,536.4878,538.6006,35.84,10240,616.96,s,1,2.1063,,538.6006,538.8005,,,,,,,,88,124,-170,166,16,217,219,169,125,-117,22,-16,126,-126,173,-24,-17,-65,-160,-224,-218,19,-127,169,-32,360,180,180,180,90,90,90,90,360,360,90,,,,,,,,,,,538.8006,538.8051,,0,64,64,64,1,8,repeated,,,,,,,,,,,,,,,,,,,,,,,,,,,,,,,,,,,,,,,,,,,,,,,,,
,,3,4,${e://Field/PROLIFIC_PID,F,18,2023-11-02_19h22.08.652,MouseEye_CC,2023.2.2,Win32,119.1469081,1.28,,,1536,864,40.183,5.26,"309.75, 382.91, 363.12, 378.77, 379.42, 391.67, 387.61",911.26,7.01396874,36.89347557,27.83653633,Passed,123.5931432,,,,,,,,,,,,,,,,,,,,,training,5,2,0,left,a,,,,,538.8054,539.1422,35.84,9.600036621,8,1,0,0,0.3367,fixationPoint,539.1422,539.2421,539.2422,540.6119,35.84,10240,616.96,a,1,1.3635,,540.6119,540.8085,,,,,,,,13,-126,173,218,80,161,170,66,72,-70,-67,-220,-68,-121,-18,124,-170,80,-120,127,-127,-116,112,-174,115,360,360,180,180,90,90,180,360,180,360,270,,,,,,,,,,,540.8085,540.8088,,0,65,65,65,1,16,novel,,,,,,,,,,,,,,,,,,,,,,,,,,,,,,,,,,,,,,,,,,,,,,,,,
,,3,4,${e://Field/PROLIFIC_PID,F,18,2023-11-02_19h22.08.652,MouseEye_CC,2023.2.2,Win32,119.1469081,1.28,,,1536,864,40.183,5.26,"309.75, 382.91, 363.12, 378.77, 379.42, 391.67, 387.61",911.26,7.01396874,36.89347557,27.83653633,Passed,123.5931432,,,,,,,,,,,,,,,,,,,,,training,5,3,0,left,a,,,,,540.8091,541.2336,35.84,1.600036621,-1.600006104,1,0,0,0.4243,fixationPoint,541.2336,541.3329,541.3329,542.7086,35.84,10240,616.96,a,1,1.3665,,542.7087,542.9084,,,,,,,,76,19,-127,175,209,66,72,169,125,-175,164,-128,76,-117,22,-176,-68,-167,-32,-121,-18,163,-120,124,-170,180,90,180,180,180,360,270,90,270,180,360,,,,,,,,,,,542.9085,542.9088,,0,66,66,66,1,11,novel,,,,,,,,,,,,,,,,,,,,,,,,,,,,,,,,,,,,,,,,,,,,,,,,,
,,3,4,${e://Field/PROLIFIC_PID,F,18,2023-11-02_19h22.08.652,MouseEye_CC,2023.2.2,Win32,119.1469081,1.28,,,1536,864,40.183,5.26,"309.75, 382.91, 363.12, 378.77, 379.42, 391.67, 387.61",911.26,7.01396874,36.89347557,27.83653633,Passed,123.5931432,,,,,,,,,,,,,,,,,,,,,training,5,4,180,right,s,,,,,542.9099,543.3251,35.84,3.200012207,-10.3999939,1,0,0,0.4151,fixationPoint,543.3251,543.4206,543.4206,546.3577,35.84,10240,616.96,s,1,2.9251,,546.3577,546.5576,,,,,,,,25,-16,126,26,217,20,116,72,175,-31,-65,-117,-167,-121,-18,126,-28,209,-208,163,-120,-128,76,-116,112,360,90,180,270,90,360,360,180,270,180,90,,,,,,,,,,,546.5576,546.5578,,0,67,67,67,1,3,repeated,,,,,,,,,,,,,,,,,,,,,,,,,,,,,,,,,,,,,,,,,,,,,,,,,
,,3,4,${e://Field/PROLIFIC_PID,F,18,2023-11-02_19h22.08.652,MouseEye_CC,2023.2.2,Win32,119.1469081,1.28,,,1536,864,40.183,5.26,"309.75, 382.91, 363.12, 378.77, 379.42, 391.67, 387.61",911.26,7.01396874,36.89347557,27.83653633,Passed,123.5931432,,,,,,,,,,,,,,,,,,,,,training,5,5,0,left,a,,,,,546.5584,546.9242,35.84,2.400024414,-1.600006104,1,0,0,0.3656,fixationPoint,546.9242,547.022,547.0221,549.3658,35.84,10240,616.96,a,1,2.3307,,549.3659,549.5663,,,,,,,,96,20,-222,20,116,69,127,222,168,-221,25,-28,64,-115,218,-72,-128,-224,-218,-209,-164,79,-175,215,-66,180,360,270,180,360,270,270,90,270,180,270,,,,,,,,,,,549.5664,549.5666,,0,68,68,68,1,12,novel,,,,,,,,,,,,,,,,,,,,,,,,,,,,,,,,,,,,,,,,,,,,,,,,,
,,3,4,${e://Field/PROLIFIC_PID,F,18,2023-11-02_19h22.08.652,MouseEye_CC,2023.2.2,Win32,119.1469081,1.28,,,1536,864,40.183,5.26,"309.75, 382.91, 363.12, 378.77, 379.42, 391.67, 387.61",911.26,7.01396874,36.89347557,27.83653633,Passed,123.5931432,,,,,,,,,,,,,,,,,,,,,training,5,6,0,left,a,,,,,549.5669,549.9492,35.84,1.600036621,-7.200012207,1,0,0,0.3821,fixationPoint,549.9493,550.0488,550.0488,552.7707,35.84,10240,616.96,a,1,2.7154,,552.7708,552.965,,,,,,,,63,-116,-73,21,68,212,128,66,72,-221,25,-128,76,-208,172,19,-127,127,-127,163,-120,-121,-18,-72,-128,270,90,180,180,360,180,270,180,270,360,270,,,,,,,,,,,552.965,552.9651,,0,69,69,69,1,5,repeated,,,,,,,,,,,,,,,,,,,,,,,,,,,,,,,,,,,,,,,,,,,,,,,,,
,,3,4,${e://Field/PROLIFIC_PID,F,18,2023-11-02_19h22.08.652,MouseEye_CC,2023.2.2,Win32,119.1469081,1.28,,,1536,864,40.183,5.26,"309.75, 382.91, 363.12, 378.77, 379.42, 391.67, 387.61",911.26,7.01396874,36.89347557,27.83653633,Passed,123.5931432,,,,,,,,,,,,,,,,,,,,,training,5,7,180,right,s,,,,,552.9655,553.3648,35.84,-4,-5.600006104,1,0,0,0.3993,fixationPoint,553.3649,553.46,553.46,554.7397,35.84,10240,616.96,s,1,1.2714,,554.7398,554.9396,,,,,,,,62,-176,-68,164,76,217,219,80,222,-174,115,-117,22,-20,212,215,-66,72,-221,174,-70,-170,-118,-24,-17,90,180,180,270,90,180,180,90,270,360,270,,,,,,,,,,,554.9397,554.9397,,0,70,70,70,1,10,novel,,,,,,,,,,,,,,,,,,,,,,,,,,,,,,,,,,,,,,,,,,,,,,,,,
,,3,4,${e://Field/PROLIFIC_PID,F,18,2023-11-02_19h22.08.652,MouseEye_CC,2023.2.2,Win32,119.1469081,1.28,,,1536,864,40.183,5.26,"309.75, 382.91, 363.12, 378.77, 379.42, 391.67, 387.61",911.26,7.01396874,36.89347557,27.83653633,Passed,123.5931432,,,,,,,,,,,,,,,,,,,,,training,5,8,180,right,s,,,,,554.9402,555.3065,35.84,4,-17.6000061,1,0,0,0.3663,fixationPoint,555.3066,555.4124,555.4124,557.0044,35.84,10240,616.96,s,1,1.582,,557.0044,557.206,,,,,,,,29,169,125,-175,164,-28,64,-80,213,-163,-220,-169,-161,-75,-24,16,-173,119,-76,126,-28,26,171,26,217,270,360,180,90,180,270,180,90,270,90,180,,,,,,,,,,,557.2061,557.2063,,0,71,71,71,1,14,novel,,,,,,,,,,,,,,,,,,,,,,,,,,,,,,,,,,,,,,,,,,,,,,,,,
,,3,4,${e://Field/PROLIFIC_PID,F,18,2023-11-02_19h22.08.652,MouseEye_CC,2023.2.2,Win32,119.1469081,1.28,,,1536,864,40.183,5.26,"309.75, 382.91, 363.12, 378.77, 379.42, 391.67, 387.61",911.26,7.01396874,36.89347557,27.83653633,Passed,123.5931432,,,,,,,,,,,,,,,,,,,,,training,5,9,0,left,a,,,,,557.2069,557.6226,35.84,8,3.199981689,1,0,0,0.4154,fixationPoint,557.6226,557.7228,557.7228,560.6554,35.84,10240,616.96,a,1,2.9238,,560.6554,560.8553,,,,,,,,5,-20,212,28,21,120,66,77,23,-20,-123,-224,-218,-218,-30,20,-222,19,-127,80,-120,-115,218,-117,22,360,270,180,360,180,90,180,360,90,360,270,,,,,,,,,,,560.8553,560.8555,,0,72,72,72,1,4,repeated,,,,,,,,,,,,,,,,,,,,,,,,,,,,,,,,,,,,,,,,,,,,,,,,,
,,3,4,${e://Field/PROLIFIC_PID,F,18,2023-11-02_19h22.08.652,MouseEye_CC,2023.2.2,Win32,119.1469081,1.28,,,1536,864,40.183,5.26,"309.75, 382.91, 363.12, 378.77, 379.42, 391.67, 387.61",911.26,7.01396874,36.89347557,27.83653633,Passed,123.5931432,,,,,,,,,,,,,,,,,,,,,training,5,10,0,left,a,,,,,560.8558,561.247,35.84,0,-12.80001831,1,0,0,0.391,fixationPoint,561.247,561.3469,561.347,563.8501,35.84,10240,616.96,a,1,2.4939,,563.8501,564.0464,,,,,,,,74,-72,-128,26,171,77,23,218,80,-208,172,-20,212,-70,75,72,-221,211,-168,20,-222,-31,-65,-68,-221,360,270,270,360,270,270,90,360,360,270,90,,,,,,,,,,,564.0465,564.0466,,0,73,73,73,1,9,novel,,,,,,,,,,,,,,,,,,,,,,,,,,,,,,,,,,,,,,,,,,,,,,,,,
,,3,4,${e://Field/PROLIFIC_PID,F,18,2023-11-02_19h22.08.652,MouseEye_CC,2023.2.2,Win32,119.1469081,1.28,,,1536,864,40.183,5.26,"309.75, 382.91, 363.12, 378.77, 379.42, 391.67, 387.61",911.26,7.01396874,36.89347557,27.83653633,Passed,123.5931432,,,,,,,,,,,,,,,,,,,,,training,5,11,180,right,s,,,,,564.0471,565.1053,35.84,19.20001221,-7.200012207,1,0,0,0.3742,fixationPoint,565.1054,565.2007,565.2007,566.8769,35.84,10240,616.96,s,1,1.6714,,566.8769,567.0764,,,,,,,,38,120,66,-68,174,-30,28,-176,26,-169,-161,-176,-68,-75,-24,80,-120,209,-208,169,-32,169,125,26,171,180,270,90,360,90,360,90,360,180,180,270,,,,,,,,,,,567.0764,567.0765,,0,74,74,74,1,13,novel,,,,,,,,,,,,,,,,,,,,,,,,,,,,,,,,,,,,,,,,,,,,,,,,,
,,3,4,${e://Field/PROLIFIC_PID,F,18,2023-11-02_19h22.08.652,MouseEye_CC,2023.2.2,Win32,119.1469081,1.28,,,1536,864,40.183,5.26,"309.75, 382.91, 363.12, 378.77, 379.42, 391.67, 387.61",911.26,7.01396874,36.89347557,27.83653633,Passed,123.5931432,,,,,,,,,,,,,,,,,,,,,training,5,12,180,right,s,,,,,567.0769,567.9292,35.84,24,21.6000061,1,0,0,0.2747,fixationPoint,567.9293,568.0294,568.0295,569.0707,35.84,10240,616.96,s,1,1.0322,,569.0707,569.2706,,,,,,,,27,69,127,-160,70,-115,218,-28,64,-224,-218,-169,-161,-219,-120,124,-170,164,-173,174,-70,21,68,161,170,360,180,270,180,270,90,90,180,90,180,360,,,,,,,,,,,569.2706,569.2707,,0,75,75,75,1,1,repeated,,,,,,,,,,,,,,,,,,,,,,,,,,,,,,,,,,,,,,,,,,,,,,,,,
,,3,4,${e://Field/PROLIFIC_PID,F,18,2023-11-02_19h22.08.652,MouseEye_CC,2023.2.2,Win32,119.1469081,1.28,,,1536,864,40.183,5.26,"309.75, 382.91, 363.12, 378.77, 379.42, 391.67, 387.61",911.26,7.01396874,36.89347557,27.83653633,Passed,123.5931432,,,,,,,,,,,,,,,,,,,,,training,5,13,0,left,a,,,,,569.2711,569.6289,35.84,0.799987793,-8.800018311,1,0,0,0.3576,fixationPoint,569.629,569.7289,569.7289,570.5122,35.84,10240,616.96,a,1,0.7727,,570.5122,570.7121,,,,,,,,4,-80,213,208,24,120,66,114,216,-116,-73,-70,-67,-72,-128,214,-24,27,-27,119,-76,-210,215,-30,28,360,270,360,360,180,360,180,90,270,360,180,,,,,,,,,,,570.7121,570.7122,,0,76,76,76,1,15,novel,,,,,,,,,,,,,,,,,,,,,,,,,,,,,,,,,,,,,,,,,,,,,,,,,
,,3,4,${e://Field/PROLIFIC_PID,F,18,2023-11-02_19h22.08.652,MouseEye_CC,2023.2.2,Win32,119.1469081,1.28,,,1536,864,40.183,5.26,"309.75, 382.91, 363.12, 378.77, 379.42, 391.67, 387.61",911.26,7.01396874,36.89347557,27.83653633,Passed,123.5931432,,,,,,,,,,,,,,,,,,,,,training,5,14,180,right,s,,,,,570.7126,571.4842,35.84,-86.39996338,-431.2000122,1,0,0,0.0414,fixationPoint,571.4843,571.5869,571.5869,573.4949,35.84,10240,616.96,s,1,1.9005,,573.4949,573.6949,,,,,,,,72,-170,-118,66,72,222,168,169,125,-30,28,-212,69,-117,22,174,-70,68,-64,124,-170,-70,-67,-218,-30,360,360,180,90,360,270,90,360,360,270,270,,,,,,,,,,,573.6949,573.695,,0,77,77,77,1,6,repeated,,,,,,,,,,,,,,,,,,,,,,,,,,,,,,,,,,,,,,,,,,,,,,,,,
,,3,4,${e://Field/PROLIFIC_PID,F,18,2023-11-02_19h22.08.652,MouseEye_CC,2023.2.2,Win32,119.1469081,1.28,,,1536,864,40.183,5.26,"309.75, 382.91, 363.12, 378.77, 379.42, 391.67, 387.61",911.26,7.01396874,36.89347557,27.83653633,Passed,123.5931432,,,,,,,,,,,,,,,,,,,,,training,5,15,180,right,s,,,,,573.6953,574.2198,35.84,3.200012207,-2.399993896,1,0,0,0.5245,fixationPoint,574.2199,574.3198,574.3199,576.1427,35.84,10240,616.96,s,1,1.8164,,576.1429,576.337,,,,,,,,97,72,-221,169,125,175,209,26,171,-20,212,-216,125,-160,70,-176,-68,-170,-118,-169,-161,127,-127,80,-120,180,90,360,90,180,90,360,360,180,90,180,,,,,,,,,,,576.3371,576.3373,,0,78,78,78,1,7,repeated,,,,,,,,,,,,,,,,,,,,,,,,,,,,,,,,,,,,,,,,,,,,,,,,,
,,3,4,${e://Field/PROLIFIC_PID,F,18,2023-11-02_19h22.08.652,MouseEye_CC,2023.2.2,Win32,119.1469081,1.28,,,1536,864,40.183,5.26,"309.75, 382.91, 363.12, 378.77, 379.42, 391.67, 387.61",911.26,7.01396874,36.89347557,27.83653633,Passed,123.5931432,,,,,,,,,,,,,,,,,,,,,training,5,16,0,left,a,,,,,576.3377,576.7278,35.84,16.79998779,-4,1,0,0,0.3901,fixationPoint,576.7279,576.8281,576.8281,578.2525,35.84,10240,616.96,a,1,1.4141,,578.2525,578.4527,,,,,,,,39,164,76,-174,115,-160,70,-20,212,-163,-220,-19,-223,-65,-160,68,-64,27,-27,169,-32,72,175,218,80,180,180,180,270,270,270,90,360,180,270,180,,,,,,,,,,,578.4528,581.7353,space,0,79,79,79,1,2,repeated,3.2632,,,,,,,,,,,,,,,,,,,,,,,,,,,,,,,,,,,,,,,,,,,,,,,,
,,3,4,${e://Field/PROLIFIC_PID,F,18,2023-11-02_19h22.08.652,MouseEye_CC,2023.2.2,Win32,119.1469081,1.28,,,1536,864,40.183,5.26,"309.75, 382.91, 363.12, 378.77, 379.42, 391.67, 387.61",911.26,7.01396874,36.89347557,27.83653633,Passed,123.5931432,,,,,,,,,,,,,,,,,,,,,training,6,1,180,right,s,,,,,581.7356,582.9351,35.84,7.200012207,-8.800018311,1,0,0,1.1994,fixationPoint,582.9351,583.0351,583.0351,584.4682,35.84,10240,616.96,a,0,1.4261,,584.4682,588.4733,,,,,,,,63,-116,-73,21,68,212,128,66,72,-221,25,-128,76,-208,172,19,-127,127,-127,163,-120,-121,-18,-72,-128,270,360,90,90,180,270,180,180,360,270,360,,,,,,,,,,,588.4734,588.4822,,0,80,80,80,1,5,repeated,,,,,,,,,,,,,,,,,,,,,,,,,,,,,,,,,,,,,,,,,,,,,,,,,
,,3,4,${e://Field/PROLIFIC_PID,F,18,2023-11-02_19h22.08.652,MouseEye_CC,2023.2.2,Win32,119.1469081,1.28,,,1536,864,40.183,5.26,"309.75, 382.91, 363.12, 378.77, 379.42, 391.67, 387.61",911.26,7.01396874,36.89347557,27.83653633,Passed,123.5931432,,,,,,,,,,,,,,,,,,,,,training,6,2,180,right,s,,,,,588.4825,588.9591,35.84,16,-17.6000061,1,0,0,0.4764,fixationPoint,588.9592,589.0594,589.0594,590.4482,35.84,10240,616.96,s,1,1.382,,590.4482,590.6426,,,,,,,,62,-176,-68,66,72,72,175,121,167,-175,164,-70,75,-73,119,209,-208,27,-68,112,-215,-117,-167,-219,-120,270,90,180,360,270,180,90,180,90,180,90,,,,,,,,,,,590.6426,590.6429,,0,81,81,81,1,10,novel,,,,,,,,,,,,,,,,,,,,,,,,,,,,,,,,,,,,,,,,,,,,,,,,,
,,3,4,${e://Field/PROLIFIC_PID,F,18,2023-11-02_19h22.08.652,MouseEye_CC,2023.2.2,Win32,119.1469081,1.28,,,1536,864,40.183,5.26,"309.75, 382.91, 363.12, 378.77, 379.42, 391.67, 387.61",911.26,7.01396874,36.89347557,27.83653633,Passed,123.5931432,,,,,,,,,,,,,,,,,,,,,training,6,3,0,left,a,,,,,590.6432,591.0254,35.84,4,0.799987793,1,0,0,0.3821,fixationPoint,591.0255,591.1176,591.1176,592.2168,35.84,10240,616.96,a,1,1.0907,,592.2169,592.4169,,,,,,,,72,-170,-118,66,72,222,168,169,125,-30,28,-212,69,-117,22,174,-70,68,-64,124,-170,-70,-67,-218,-30,180,180,270,90,180,180,180,90,90,360,270,,,,,,,,,,,592.4169,592.4169,,0,82,82,82,1,6,repeated,,,,,,,,,,,,,,,,,,,,,,,,,,,,,,,,,,,,,,,,,,,,,,,,,
,,3,4,${e://Field/PROLIFIC_PID,F,18,2023-11-02_19h22.08.652,MouseEye_CC,2023.2.2,Win32,119.1469081,1.28,,,1536,864,40.183,5.26,"309.75, 382.91, 363.12, 378.77, 379.42, 391.67, 387.61",911.26,7.01396874,36.89347557,27.83653633,Passed,123.5931432,,,,,,,,,,,,,,,,,,,,,training,6,4,180,right,s,,,,,592.4173,592.7834,35.84,12,1.600006104,1,0,0,0.3661,fixationPoint,592.7835,592.881,592.881,594.2473,35.84,10240,616.96,s,1,1.3588,,594.2473,594.447,,,,,,,,88,124,-170,166,16,217,219,169,125,-117,22,-16,126,-126,173,-24,-17,-65,-160,-224,-218,19,-127,169,-32,360,90,270,90,180,360,90,90,360,180,270,,,,,,,,,,,594.4471,594.4472,,0,83,83,83,1,8,repeated,,,,,,,,,,,,,,,,,,,,,,,,,,,,,,,,,,,,,,,,,,,,,,,,,
,,3,4,${e://Field/PROLIFIC_PID,F,18,2023-11-02_19h22.08.652,MouseEye_CC,2023.2.2,Win32,119.1469081,1.28,,,1536,864,40.183,5.26,"309.75, 382.91, 363.12, 378.77, 379.42, 391.67, 387.61",911.26,7.01396874,36.89347557,27.83653633,Passed,123.5931432,,,,,,,,,,,,,,,,,,,,,training,6,5,0,left,a,,,,,594.4477,594.8722,35.84,13.60003662,-8,1,0,0,0.4243,fixationPoint,594.8723,594.9667,594.9668,597.1328,35.84,10240,616.96,a,1,2.1593,,597.1328,597.3334,,,,,,,,29,169,125,-16,126,-210,215,-216,125,-219,-120,-72,-128,-31,-65,169,-32,27,-68,79,-175,80,222,175,209,180,180,360,90,90,90,180,180,90,180,90,,,,,,,,,,,597.3334,597.3336,,0,84,84,84,1,14,novel,,,,,,,,,,,,,,,,,,,,,,,,,,,,,,,,,,,,,,,,,,,,,,,,,
,,3,4,${e://Field/PROLIFIC_PID,F,18,2023-11-02_19h22.08.652,MouseEye_CC,2023.2.2,Win32,119.1469081,1.28,,,1536,864,40.183,5.26,"309.75, 382.91, 363.12, 378.77, 379.42, 391.67, 387.61",911.26,7.01396874,36.89347557,27.83653633,Passed,123.5931432,,,,,,,,,,,,,,,,,,,,,training,6,6,0,left,a,,,,,597.334,598.0715,35.84,27.20001221,8.799987793,1,0,0,0.3485,fixationPoint,598.0716,598.1658,598.1659,598.98,35.84,10240,616.96,a,1,0.8071,,598.98,599.1747,,,,,,,,27,69,127,-160,70,-115,218,-28,64,-224,-218,-169,-161,-219,-120,124,-170,164,-173,174,-70,21,68,161,170,90,90,90,360,270,180,90,270,90,360,360,,,,,,,,,,,599.1747,599.1749,,0,85,85,85,1,1,repeated,,,,,,,,,,,,,,,,,,,,,,,,,,,,,,,,,,,,,,,,,,,,,,,,,
,,3,4,${e://Field/PROLIFIC_PID,F,18,2023-11-02_19h22.08.652,MouseEye_CC,2023.2.2,Win32,119.1469081,1.28,,,1536,864,40.183,5.26,"309.75, 382.91, 363.12, 378.77, 379.42, 391.67, 387.61",911.26,7.01396874,36.89347557,27.83653633,Passed,123.5931432,,,,,,,,,,,,,,,,,,,,,training,6,7,180,right,s,,,,,599.1756,599.499,35.84,0,10.3999939,1,0,0,0.3234,fixationPoint,599.499,599.6001,599.6001,601.0154,35.84,10240,616.96,s,1,1.407,,601.0155,601.2153,,,,,,,,96,20,-222,66,72,21,68,212,128,-28,64,-16,126,-221,25,-169,-161,-24,-17,-117,-167,174,-70,215,-66,270,270,360,360,180,180,90,90,270,90,270,,,,,,,,,,,601.2154,601.2155,,0,86,86,86,1,12,novel,,,,,,,,,,,,,,,,,,,,,,,,,,,,,,,,,,,,,,,,,,,,,,,,,
,,3,4,${e://Field/PROLIFIC_PID,F,18,2023-11-02_19h22.08.652,MouseEye_CC,2023.2.2,Win32,119.1469081,1.28,,,1536,864,40.183,5.26,"309.75, 382.91, 363.12, 378.77, 379.42, 391.67, 387.61",911.26,7.01396874,36.89347557,27.83653633,Passed,123.5931432,,,,,,,,,,,,,,,,,,,,,training,6,8,180,right,s,,,,,601.2159,601.6013,35.84,12,-4.800018311,1,0,0,0.3853,fixationPoint,601.6014,601.6989,601.6989,604.2322,35.84,10240,616.96,s,1,2.5232,,604.2323,604.4315,,,,,,,,5,-20,212,28,21,120,66,77,23,-20,-123,-224,-218,-218,-30,20,-222,19,-127,80,-120,-115,218,-117,22,90,270,270,180,270,180,90,360,90,90,270,,,,,,,,,,,604.4315,604.4317,,0,87,87,87,1,4,repeated,,,,,,,,,,,,,,,,,,,,,,,,,,,,,,,,,,,,,,,,,,,,,,,,,
,,3,4,${e://Field/PROLIFIC_PID,F,18,2023-11-02_19h22.08.652,MouseEye_CC,2023.2.2,Win32,119.1469081,1.28,,,1536,864,40.183,5.26,"309.75, 382.91, 363.12, 378.77, 379.42, 391.67, 387.61",911.26,7.01396874,36.89347557,27.83653633,Passed,123.5931432,,,,,,,,,,,,,,,,,,,,,training,6,9,180,right,s,,,,,604.4322,604.8898,35.84,4,-47.20001221,1,0,0,0.1742,fixationPoint,604.8899,604.9858,604.9859,606.6895,35.84,10240,616.96,s,1,1.6942,,606.6896,606.8895,,,,,,,,76,19,-127,26,171,21,68,212,128,-172,214,-117,22,-212,69,-220,-68,-127,-212,-167,-32,68,-64,79,-175,270,90,270,180,360,360,180,180,180,270,360,,,,,,,,,,,606.8895,606.8897,,0,88,88,88,1,11,novel,,,,,,,,,,,,,,,,,,,,,,,,,,,,,,,,,,,,,,,,,,,,,,,,,
,,3,4,${e://Field/PROLIFIC_PID,F,18,2023-11-02_19h22.08.652,MouseEye_CC,2023.2.2,Win32,119.1469081,1.28,,,1536,864,40.183,5.26,"309.75, 382.91, 363.12, 378.77, 379.42, 391.67, 387.61",911.26,7.01396874,36.89347557,27.83653633,Passed,123.5931432,,,,,,,,,,,,,,,,,,,,,training,6,10,180,right,s,,,,,606.89,607.1561,35.84,-15.20001221,-8,1,0,0,0.266,fixationPoint,607.1561,607.2527,607.2528,611.5805,35.84,10240,616.96,s,1,4.318,,611.5805,611.7804,,,,,,,,4,-80,213,66,72,218,80,26,217,-127,-212,-170,-118,-224,-218,68,-64,222,-126,174,-70,-20,212,-115,218,360,180,180,180,360,270,270,180,90,360,180,,,,,,,,,,,611.7804,611.7805,,0,89,89,89,1,15,novel,,,,,,,,,,,,,,,,,,,,,,,,,,,,,,,,,,,,,,,,,,,,,,,,,
,,3,4,${e://Field/PROLIFIC_PID,F,18,2023-11-02_19h22.08.652,MouseEye_CC,2023.2.2,Win32,119.1469081,1.28,,,1536,864,40.183,5.26,"309.75, 382.91, 363.12, 378.77, 379.42, 391.67, 387.61",911.26,7.01396874,36.89347557,27.83653633,Passed,123.5931432,,,,,,,,,,,,,,,,,,,,,training,6,11,180,right,s,,,,,611.7809,612.1721,35.84,12,3.199981689,1,0,0,0.3911,fixationPoint,612.1721,612.267,612.267,614.8715,35.84,10240,616.96,s,1,2.5977,,614.8716,615.0714,,,,,,,,38,120,66,-126,173,-28,64,-221,25,-19,-176,-75,-24,-170,-118,72,-19,222,-126,209,-208,222,168,21,68,270,270,90,180,270,180,270,180,90,90,90,,,,,,,,,,,615.0715,615.0716,,0,90,90,90,1,13,novel,,,,,,,,,,,,,,,,,,,,,,,,,,,,,,,,,,,,,,,,,,,,,,,,,
,,3,4,${e://Field/PROLIFIC_PID,F,18,2023-11-02_19h22.08.652,MouseEye_CC,2023.2.2,Win32,119.1469081,1.28,,,1536,864,40.183,5.26,"309.75, 382.91, 363.12, 378.77, 379.42, 391.67, 387.61",911.26,7.01396874,36.89347557,27.83653633,Passed,123.5931432,,,,,,,,,,,,,,,,,,,,,training,6,12,0,left,a,,,,,615.072,615.8797,35.84,2.400024414,-18.3999939,1,0,0,0.3077,fixationPoint,615.8797,615.9793,615.9794,619.7548,35.84,10240,616.96,a,1,3.7634,,619.7549,619.954,,,,,,,,25,-16,126,26,217,20,116,72,175,-31,-65,-117,-167,-121,-18,126,-28,209,-208,163,-120,-128,76,-116,112,90,90,270,180,270,270,360,90,90,90,180,,,,,,,,,,,619.954,619.9541,,0,91,91,91,1,3,repeated,,,,,,,,,,,,,,,,,,,,,,,,,,,,,,,,,,,,,,,,,,,,,,,,,
,,3,4,${e://Field/PROLIFIC_PID,F,18,2023-11-02_19h22.08.652,MouseEye_CC,2023.2.2,Win32,119.1469081,1.28,,,1536,864,40.183,5.26,"309.75, 382.91, 363.12, 378.77, 379.42, 391.67, 387.61",911.26,7.01396874,36.89347557,27.83653633,Passed,123.5931432,,,,,,,,,,,,,,,,,,,,,training,6,13,0,left,a,,,,,619.9544,620.4877,35.84,1.600036621,-5.600006104,1,0,0,0.5331,fixationPoint,620.4877,620.5842,620.5842,626.8362,35.84,10240,616.96,a,1,6.2407,,626.8363,627.0362,,,,,,,,74,-72,-128,77,23,118,20,212,128,-126,173,-208,172,-221,25,19,-127,27,-27,127,-127,-117,-167,-116,-73,90,360,90,270,270,360,90,360,360,360,270,,,,,,,,,,,627.0362,627.0363,,0,92,92,92,1,9,novel,,,,,,,,,,,,,,,,,,,,,,,,,,,,,,,,,,,,,,,,,,,,,,,,,
,,3,4,${e://Field/PROLIFIC_PID,F,18,2023-11-02_19h22.08.652,MouseEye_CC,2023.2.2,Win32,119.1469081,1.28,,,1536,864,40.183,5.26,"309.75, 382.91, 363.12, 378.77, 379.42, 391.67, 387.61",911.26,7.01396874,36.89347557,27.83653633,Passed,123.5931432,,,,,,,,,,,,,,,,,,,,,training,6,14,0,left,a,,,,,627.0366,627.4533,35.84,-0.799987793,8.799987793,1,0,0,0.4167,fixationPoint,627.4534,627.5534,627.5536,630.4497,35.84,10240,616.96,a,1,2.8805,,630.4497,630.6445,,,,,,,,39,164,76,-174,115,-160,70,-20,212,-163,-220,-19,-223,-65,-160,68,-64,27,-27,169,-32,72,175,218,80,270,270,360,270,360,270,270,360,180,180,360,,,,,,,,,,,630.6446,630.6448,,0,93,93,93,1,2,repeated,,,,,,,,,,,,,,,,,,,,,,,,,,,,,,,,,,,,,,,,,,,,,,,,,
,,3,4,${e://Field/PROLIFIC_PID,F,18,2023-11-02_19h22.08.652,MouseEye_CC,2023.2.2,Win32,119.1469081,1.28,,,1536,864,40.183,5.26,"309.75, 382.91, 363.12, 378.77, 379.42, 391.67, 387.61",911.26,7.01396874,36.89347557,27.83653633,Passed,123.5931432,,,,,,,,,,,,,,,,,,,,,training,6,15,0,left,a,,,,,630.6454,631.0248,35.84,0.799987793,-0.800018311,1,0,0,0.3792,fixationPoint,631.0248,631.1241,631.1242,633.7434,35.84,10240,616.96,a,1,2.6106,,633.7434,633.9434,,,,,,,,13,-126,173,69,127,222,168,161,170,-20,-123,-220,-68,-116,-73,119,-76,174,-70,72,-19,-30,28,-115,218,90,360,360,270,180,360,270,270,360,180,360,,,,,,,,,,,633.9434,633.9435,,0,94,94,94,1,16,novel,,,,,,,,,,,,,,,,,,,,,,,,,,,,,,,,,,,,,,,,,,,,,,,,,
,,3,4,${e://Field/PROLIFIC_PID,F,18,2023-11-02_19h22.08.652,MouseEye_CC,2023.2.2,Win32,119.1469081,1.28,,,1536,864,40.183,5.26,"309.75, 382.91, 363.12, 378.77, 379.42, 391.67, 387.61",911.26,7.01396874,36.89347557,27.83653633,Passed,123.5931432,,,,,,,,,,,,,,,,,,,,,training,6,16,0,left,a,,,,,633.9441,634.3516,35.84,-0.799987793,-5.600006104,1,0,0,0.4075,fixationPoint,634.3517,634.4517,634.4517,636.7346,35.84,10240,616.96,a,1,2.2755,,636.7347,636.9345,,,,,,,,97,72,-221,169,125,175,209,26,171,-20,212,-216,125,-160,70,-176,-68,-170,-118,-169,-161,127,-127,80,-120,270,180,270,90,270,270,270,90,360,270,360,,,,,,,,,,,636.9346,639.9265,space,0,95,95,95,1,7,repeated,2.9703,,,,,,,,,,,,,,,,,,,,,,,,,,,,,,,,,,,,,,,,,,,,,,,,
,,3,4,${e://Field/PROLIFIC_PID,F,18,2023-11-02_19h22.08.652,MouseEye_CC,2023.2.2,Win32,119.1469081,1.28,,,1536,864,40.183,5.26,"309.75, 382.91, 363.12, 378.77, 379.42, 391.67, 387.61",911.26,7.01396874,36.89347557,27.83653633,Passed,123.5931432,,,,,,,,,,,,,,,,,,,,,training,7,1,180,right,s,,,,,639.9271,643.0394,35.84,8.799987793,6.399993896,1,0,0,3.1121,fixationPoint,643.0394,643.1335,643.1336,644.1751,35.84,10240,616.96,s,1,1.0252,,644.1751,644.3759,,,,,,,,25,-16,126,26,217,20,116,72,175,-31,-65,-117,-167,-121,-18,126,-28,209,-208,163,-120,-128,76,-116,112,180,180,180,90,360,360,270,360,90,180,90,,,,,,,,,,,644.3759,644.3814,,0,96,96,96,1,3,repeated,,,,,,,,,,,,,,,,,,,,,,,,,,,,,,,,,,,,,,,,,,,,,,,,,
,,3,4,${e://Field/PROLIFIC_PID,F,18,2023-11-02_19h22.08.652,MouseEye_CC,2023.2.2,Win32,119.1469081,1.28,,,1536,864,40.183,5.26,"309.75, 382.91, 363.12, 378.77, 379.42, 391.67, 387.61",911.26,7.01396874,36.89347557,27.83653633,Passed,123.5931432,,,,,,,,,,,,,,,,,,,,,training,7,2,0,left,a,,,,,644.3817,645.5583,35.84,8.799987793,6.399993896,1,0,0,1.1763,fixationPoint,645.5583,645.658,645.6581,647.586,35.84,10240,616.96,a,1,1.9134,,647.586,647.7828,,,,,,,,97,72,-221,169,125,175,209,26,171,-20,212,-216,125,-160,70,-176,-68,-170,-118,-169,-161,127,-127,80,-120,360,270,360,180,180,360,90,270,270,360,180,,,,,,,,,,,647.7828,647.783,,0,97,97,97,1,7,repeated,,,,,,,,,,,,,,,,,,,,,,,,,,,,,,,,,,,,,,,,,,,,,,,,,
,,3,4,${e://Field/PROLIFIC_PID,F,18,2023-11-02_19h22.08.652,MouseEye_CC,2023.2.2,Win32,119.1469081,1.28,,,1536,864,40.183,5.26,"309.75, 382.91, 363.12, 378.77, 379.42, 391.67, 387.61",911.26,7.01396874,36.89347557,27.83653633,Passed,123.5931432,,,,,,,,,,,,,,,,,,,,,training,7,3,180,right,s,,,,,647.7833,649.9633,35.84,4.799987793,2.399993896,1,0,0,2.1799,fixationPoint,649.9634,650.0579,650.0579,651.9904,35.84,10240,616.96,s,1,1.9171,,651.9905,652.1904,,,,,,,,39,164,76,-174,115,-160,70,-20,212,-163,-220,-19,-223,-65,-160,68,-64,27,-27,169,-32,72,175,218,80,90,180,180,360,270,360,180,360,360,90,270,,,,,,,,,,,652.1904,652.1905,,0,98,98,98,1,2,repeated,,,,,,,,,,,,,,,,,,,,,,,,,,,,,,,,,,,,,,,,,,,,,,,,,
,,3,4,${e://Field/PROLIFIC_PID,F,18,2023-11-02_19h22.08.652,MouseEye_CC,2023.2.2,Win32,119.1469081,1.28,,,1536,864,40.183,5.26,"309.75, 382.91, 363.12, 378.77, 379.42, 391.67, 387.61",911.26,7.01396874,36.89347557,27.83653633,Passed,123.5931432,,,,,,,,,,,,,,,,,,,,,training,7,4,180,right,s,,,,,652.1908,653.7485,35.84,2.400024414,-8,1,0,0,1.5574,fixationPoint,653.7486,653.8484,653.8485,655.8233,35.84,10240,616.96,s,1,1.9676,,655.8233,656.0235,,,,,,,,88,124,-170,166,16,217,219,169,125,-117,22,-16,126,-126,173,-24,-17,-65,-160,-224,-218,19,-127,169,-32,270,90,90,270,360,90,270,270,90,180,180,,,,,,,,,,,656.0236,656.0238,,0,99,99,99,1,8,repeated,,,,,,,,,,,,,,,,,,,,,,,,,,,,,,,,,,,,,,,,,,,,,,,,,
,,3,4,${e://Field/PROLIFIC_PID,F,18,2023-11-02_19h22.08.652,MouseEye_CC,2023.2.2,Win32,119.1469081,1.28,,,1536,864,40.183,5.26,"309.75, 382.91, 363.12, 378.77, 379.42, 391.67, 387.61",911.26,7.01396874,36.89347557,27.83653633,Passed,123.5931432,,,,,,,,,,,,,,,,,,,,,training,7,5,0,left,a,,,,,656.0244,657.7062,35.84,2.400024414,-7.200012207,1,0,0,1.6816,fixationPoint,657.7062,657.8062,657.8062,660.5308,35.84,10240,616.96,a,1,2.7168,,660.5308,660.7307,,,,,,,,62,-176,-68,166,16,66,72,72,175,-68,174,-28,64,-73,119,163,-120,16,-173,119,-76,-65,-160,-224,-218,360,270,180,360,270,270,360,360,360,180,180,,,,,,,,,,,660.7307,660.7309,,0,100,100,100,1,10,novel,,,,,,,,,,,,,,,,,,,,,,,,,,,,,,,,,,,,,,,,,,,,,,,,,
,,3,4,${e://Field/PROLIFIC_PID,F,18,2023-11-02_19h22.08.652,MouseEye_CC,2023.2.2,Win32,119.1469081,1.28,,,1536,864,40.183,5.26,"309.75, 382.91, 363.12, 378.77, 379.42, 391.67, 387.61",911.26,7.01396874,36.89347557,27.83653633,Passed,123.5931432,,,,,,,,,,,,,,,,,,,,,training,7,6,0,left,a,,,,,660.7312,662.4805,35.84,2.400024414,-9.600006104,1,0,0,1.7491,fixationPoint,662.4805,662.5804,662.5804,663.5889,35.84,10240,616.96,a,1,0.9998,,663.589,663.7885,,,,,,,,76,19,-127,72,175,123,112,121,167,-16,126,-208,172,-24,162,-127,-212,-75,-24,-19,-176,119,-76,68,-64,90,270,180,180,270,270,270,360,270,90,90,,,,,,,,,,,663.7885,663.7887,,0,101,101,101,1,11,novel,,,,,,,,,,,,,,,,,,,,,,,,,,,,,,,,,,,,,,,,,,,,,,,,,
,,3,4,${e://Field/PROLIFIC_PID,F,18,2023-11-02_19h22.08.652,MouseEye_CC,2023.2.2,Win32,119.1469081,1.28,,,1536,864,40.183,5.26,"309.75, 382.91, 363.12, 378.77, 379.42, 391.67, 387.61",911.26,7.01396874,36.89347557,27.83653633,Passed,123.5931432,,,,,,,,,,,,,,,,,,,,,training,7,7,180,right,s,,,,,663.789,665.1301,35.84,2.400024414,-9.600006104,1,0,0,1.3409,fixationPoint,665.1301,665.23,665.23,667.1547,35.84,10240,616.96,s,1,1.9162,,667.1547,667.3545,,,,,,,,29,169,125,-175,164,-216,125,-115,218,-24,-17,-70,-67,-31,-65,124,-170,19,-127,72,-19,121,167,20,116,270,270,270,90,270,180,270,90,90,270,180,,,,,,,,,,,667.3546,667.3547,,0,102,102,102,1,14,novel,,,,,,,,,,,,,,,,,,,,,,,,,,,,,,,,,,,,,,,,,,,,,,,,,
,,3,4,${e://Field/PROLIFIC_PID,F,18,2023-11-02_19h22.08.652,MouseEye_CC,2023.2.2,Win32,119.1469081,1.28,,,1536,864,40.183,5.26,"309.75, 382.91, 363.12, 378.77, 379.42, 391.67, 387.61",911.26,7.01396874,36.89347557,27.83653633,Passed,123.5931432,,,,,,,,,,,,,,,,,,,,,training,7,8,180,right,s,,,,,667.3551,668.3102,35.84,19.20001221,-10.3999939,1,0,0,0.541,fixationPoint,668.3102,668.4044,668.4044,670.3766,35.84,10240,616.96,s,1,1.9664,,670.3767,670.5707,,,,,,,,5,-20,212,28,21,120,66,77,23,-20,-123,-224,-218,-218,-30,20,-222,19,-127,80,-120,-115,218,-117,22,90,360,360,360,360,270,180,180,270,90,90,,,,,,,,,,,670.5708,670.5708,,0,103,103,103,1,4,repeated,,,,,,,,,,,,,,,,,,,,,,,,,,,,,,,,,,,,,,,,,,,,,,,,,
,,3,4,${e://Field/PROLIFIC_PID,F,18,2023-11-02_19h22.08.652,MouseEye_CC,2023.2.2,Win32,119.1469081,1.28,,,1536,864,40.183,5.26,"309.75, 382.91, 363.12, 378.77, 379.42, 391.67, 387.61",911.26,7.01396874,36.89347557,27.83653633,Passed,123.5931432,,,,,,,,,,,,,,,,,,,,,training,7,9,0,left,a,,,,,670.5712,671.7373,35.84,21.60003662,-21.6000061,1,0,0,0.4077,fixationPoint,671.7373,671.8373,671.8374,673.1454,35.84,10240,616.96,a,1,1.2979,,673.1455,673.3453,,,,,,,,72,-170,-118,66,72,222,168,169,125,-30,28,-212,69,-117,22,174,-70,68,-64,124,-170,-70,-67,-218,-30,270,180,180,360,180,90,90,270,180,90,270,,,,,,,,,,,673.3453,673.3455,,0,104,104,104,1,6,repeated,,,,,,,,,,,,,,,,,,,,,,,,,,,,,,,,,,,,,,,,,,,,,,,,,
,,3,4,${e://Field/PROLIFIC_PID,F,18,2023-11-02_19h22.08.652,MouseEye_CC,2023.2.2,Win32,119.1469081,1.28,,,1536,864,40.183,5.26,"309.75, 382.91, 363.12, 378.77, 379.42, 391.67, 387.61",911.26,7.01396874,36.89347557,27.83653633,Passed,123.5931432,,,,,,,,,,,,,,,,,,,,,training,7,10,180,right,s,,,,,673.3458,674.0286,35.84,31.20001221,-9.600006104,1,0,0,0.4077,fixationPoint,674.0286,674.1285,674.1285,675.3783,35.84,10240,616.96,s,1,1.2406,,675.3784,675.5782,,,,,,,,38,120,66,-24,162,-73,119,-115,218,-19,-176,-120,-116,-224,-218,174,-70,127,-127,112,-215,169,125,80,222,90,270,180,360,90,180,90,180,90,360,180,,,,,,,,,,,675.5782,675.5783,,0,105,105,105,1,13,novel,,,,,,,,,,,,,,,,,,,,,,,,,,,,,,,,,,,,,,,,,,,,,,,,,
,,3,4,${e://Field/PROLIFIC_PID,F,18,2023-11-02_19h22.08.652,MouseEye_CC,2023.2.2,Win32,119.1469081,1.28,,,1536,864,40.183,5.26,"309.75, 382.91, 363.12, 378.77, 379.42, 391.67, 387.61",911.26,7.01396874,36.89347557,27.83653633,Passed,123.5931432,,,,,,,,,,,,,,,,,,,,,training,7,11,0,left,a,,,,,675.5787,675.9286,35.84,0,-1.600006104,1,0,0,0.3498,fixationPoint,675.9286,676.0282,676.0282,677.4946,35.84,10240,616.96,a,1,1.4557,,677.4946,677.6945,,,,,,,,63,-116,-73,21,68,212,128,66,72,-221,25,-128,76,-208,172,19,-127,127,-127,163,-120,-121,-18,-72,-128,180,360,360,180,180,180,270,270,270,360,270,,,,,,,,,,,677.6946,677.6946,,0,106,106,106,1,5,repeated,,,,,,,,,,,,,,,,,,,,,,,,,,,,,,,,,,,,,,,,,,,,,,,,,
,,3,4,${e://Field/PROLIFIC_PID,F,18,2023-11-02_19h22.08.652,MouseEye_CC,2023.2.2,Win32,119.1469081,1.28,,,1536,864,40.183,5.26,"309.75, 382.91, 363.12, 378.77, 379.42, 391.67, 387.61",911.26,7.01396874,36.89347557,27.83653633,Passed,123.5931432,,,,,,,,,,,,,,,,,,,,,training,7,12,0,left,a,,,,,677.695,678.0867,35.84,13.60003662,0,1,0,0,0.3916,fixationPoint,678.0867,678.1864,678.1864,680.994,35.84,10240,616.96,a,1,2.7966,,680.9941,681.194,,,,,,,,13,-126,173,164,76,20,116,121,167,-219,-120,-220,-68,-120,-116,174,-70,80,-120,168,-220,-128,76,-24,162,90,270,180,360,180,90,180,180,90,270,180,,,,,,,,,,,681.194,681.1941,,0,107,107,107,1,16,novel,,,,,,,,,,,,,,,,,,,,,,,,,,,,,,,,,,,,,,,,,,,,,,,,,
,,3,4,${e://Field/PROLIFIC_PID,F,18,2023-11-02_19h22.08.652,MouseEye_CC,2023.2.2,Win32,119.1469081,1.28,,,1536,864,40.183,5.26,"309.75, 382.91, 363.12, 378.77, 379.42, 391.67, 387.61",911.26,7.01396874,36.89347557,27.83653633,Passed,123.5931432,,,,,,,,,,,,,,,,,,,,,training,7,13,180,right,s,,,,,681.1944,681.6106,35.84,-5.599975586,-10.3999939,1,0,0,0.4161,fixationPoint,681.6106,681.7106,681.7107,682.6916,35.84,10240,616.96,s,1,0.972,,682.6917,682.8938,,,,,,,,4,-80,213,164,76,222,168,118,20,-72,-128,-209,-164,-75,-24,79,-175,72,-221,112,-215,-73,119,-210,215,180,360,270,360,270,90,180,270,90,360,180,,,,,,,,,,,682.8938,682.8939,,0,108,108,108,1,15,novel,,,,,,,,,,,,,,,,,,,,,,,,,,,,,,,,,,,,,,,,,,,,,,,,,
,,3,4,${e://Field/PROLIFIC_PID,F,18,2023-11-02_19h22.08.652,MouseEye_CC,2023.2.2,Win32,119.1469081,1.28,,,1536,864,40.183,5.26,"309.75, 382.91, 363.12, 378.77, 379.42, 391.67, 387.61",911.26,7.01396874,36.89347557,27.83653633,Passed,123.5931432,,,,,,,,,,,,,,,,,,,,,training,7,14,0,left,a,,,,,682.8942,683.2612,35.84,11.20001221,-14.3999939,1,0,0,0.3668,fixationPoint,683.2612,683.3604,683.3604,685.6941,35.84,10240,616.96,a,1,2.3213,,685.6941,685.8932,,,,,,,,96,20,-222,166,16,26,171,114,216,-80,213,-221,25,-117,22,-224,-218,-167,-32,-75,-24,72,-19,79,-175,180,270,90,90,90,180,90,270,360,360,180,,,,,,,,,,,685.8932,685.8934,,0,109,109,109,1,12,novel,,,,,,,,,,,,,,,,,,,,,,,,,,,,,,,,,,,,,,,,,,,,,,,,,
,,3,4,${e://Field/PROLIFIC_PID,F,18,2023-11-02_19h22.08.652,MouseEye_CC,2023.2.2,Win32,119.1469081,1.28,,,1536,864,40.183,5.26,"309.75, 382.91, 363.12, 378.77, 379.42, 391.67, 387.61",911.26,7.01396874,36.89347557,27.83653633,Passed,123.5931432,,,,,,,,,,,,,,,,,,,,,training,7,15,0,left,a,,,,,685.8938,686.2688,35.84,13.60003662,-1.600006104,1,0,0,0.3749,fixationPoint,686.2689,686.36,686.36,687.9679,35.84,10240,616.96,a,1,1.5999,,687.9679,688.1678,,,,,,,,74,-72,-128,69,127,169,125,80,222,-172,214,-73,119,-160,70,222,-126,19,-127,112,-215,-117,-167,-31,-65,270,90,270,360,360,360,180,180,90,90,360,,,,,,,,,,,688.1679,688.1679,,0,110,110,110,1,9,novel,,,,,,,,,,,,,,,,,,,,,,,,,,,,,,,,,,,,,,,,,,,,,,,,,
,,3,4,${e://Field/PROLIFIC_PID,F,18,2023-11-02_19h22.08.652,MouseEye_CC,2023.2.2,Win32,119.1469081,1.28,,,1536,864,40.183,5.26,"309.75, 382.91, 363.12, 378.77, 379.42, 391.67, 387.61",911.26,7.01396874,36.89347557,27.83653633,Passed,123.5931432,,,,,,,,,,,,,,,,,,,,,training,7,16,180,right,s,,,,,688.1683,688.5762,35.84,0.799987793,-15.20001221,1,0,0,0.4078,fixationPoint,688.5762,688.6768,688.6768,690.8091,35.84,10240,616.96,s,1,2.1236,,690.8092,691.009,,,,,,,,27,69,127,-160,70,-115,218,-28,64,-224,-218,-169,-161,-219,-120,124,-170,164,-173,174,-70,21,68,161,170,360,180,270,270,180,180,90,180,90,90,270,,,,,,,,,,,691.009,692.9032,space,0,111,111,111,1,1,repeated,1.8746,,,,,,,,,,,,,,,,,,,,,,,,,,,,,,,,,,,,,,,,,,,,,,,,
,,3,4,${e://Field/PROLIFIC_PID,F,18,2023-11-02_19h22.08.652,MouseEye_CC,2023.2.2,Win32,119.1469081,1.28,,,1536,864,40.183,5.26,"309.75, 382.91, 363.12, 378.77, 379.42, 391.67, 387.61",911.26,7.01396874,36.89347557,27.83653633,Passed,123.5931432,,,,,,,,,,,,,,,,,,,,,training,8,1,180,right,s,,,,,692.9039,695.1231,35.84,4,9.600006104,1,0,0,2.219,fixationPoint,695.1231,695.2258,695.2258,697.1997,35.84,10240,616.96,s,1,1.9655,,697.1998,697.3997,,,,,,,,38,120,66,-115,218,-20,212,-176,26,-75,-24,-121,-18,-120,-116,80,-120,209,-208,164,-173,118,20,20,116,90,270,180,180,270,90,360,180,270,90,90,,,,,,,,,,,697.3998,697.4054,,0,112,112,112,1,13,novel,,,,,,,,,,,,,,,,,,,,,,,,,,,,,,,,,,,,,,,,,,,,,,,,,
,,3,4,${e://Field/PROLIFIC_PID,F,18,2023-11-02_19h22.08.652,MouseEye_CC,2023.2.2,Win32,119.1469081,1.28,,,1536,864,40.183,5.26,"309.75, 382.91, 363.12, 378.77, 379.42, 391.67, 387.61",911.26,7.01396874,36.89347557,27.83653633,Passed,123.5931432,,,,,,,,,,,,,,,,,,,,,training,8,2,0,left,a,,,,,697.4056,698.1497,35.84,8.799987793,-32.80001831,1,0,0,0.5082,fixationPoint,698.1498,698.2496,698.2497,699.2911,35.84,10240,616.96,a,1,1.0338,,699.2911,699.491,,,,,,,,76,19,-127,21,68,175,209,28,21,-30,28,-160,70,-117,22,-163,-220,-19,-176,-75,-24,119,-76,209,-208,270,90,270,90,270,270,180,360,180,180,90,,,,,,,,,,,699.4911,699.4912,,0,113,113,113,1,11,novel,,,,,,,,,,,,,,,,,,,,,,,,,,,,,,,,,,,,,,,,,,,,,,,,,
,,3,4,${e://Field/PROLIFIC_PID,F,18,2023-11-02_19h22.08.652,MouseEye_CC,2023.2.2,Win32,119.1469081,1.28,,,1536,864,40.183,5.26,"309.75, 382.91, 363.12, 378.77, 379.42, 391.67, 387.61",911.26,7.01396874,36.89347557,27.83653633,Passed,123.5931432,,,,,,,,,,,,,,,,,,,,,training,8,3,0,left,a,,,,,699.4919,699.9743,35.84,8,-13.6000061,1,0,0,0.4823,fixationPoint,699.9744,700.0742,700.0743,701.9573,35.84,10240,616.96,a,1,1.8764,,701.9573,702.1572,,,,,,,,5,-20,212,28,21,120,66,77,23,-20,-123,-224,-218,-218,-30,20,-222,19,-127,80,-120,-115,218,-117,22,270,90,360,180,360,270,270,90,90,270,90,,,,,,,,,,,702.1572,702.1574,,0,114,114,114,1,4,repeated,,,,,,,,,,,,,,,,,,,,,,,,,,,,,,,,,,,,,,,,,,,,,,,,,
,,3,4,${e://Field/PROLIFIC_PID,F,18,2023-11-02_19h22.08.652,MouseEye_CC,2023.2.2,Win32,119.1469081,1.28,,,1536,864,40.183,5.26,"309.75, 382.91, 363.12, 378.77, 379.42, 391.67, 387.61",911.26,7.01396874,36.89347557,27.83653633,Passed,123.5931432,,,,,,,,,,,,,,,,,,,,,training,8,4,180,right,s,,,,,702.1578,702.5991,35.84,-2.399963379,-0.800018311,1,0,0,0.4412,fixationPoint,702.5992,702.7065,702.7066,704.4378,35.84,10240,616.96,s,1,1.7228,,704.4378,704.6318,,,,,,,,97,72,-221,169,125,175,209,26,171,-20,212,-216,125,-160,70,-176,-68,-170,-118,-169,-161,127,-127,80,-120,90,180,180,360,180,90,360,90,270,90,360,,,,,,,,,,,704.6319,704.6321,,0,115,115,115,1,7,repeated,,,,,,,,,,,,,,,,,,,,,,,,,,,,,,,,,,,,,,,,,,,,,,,,,
