InstrStartPage.started,InstrStartPage.stopped,participant,designid,prolificid,Gender,Age,date,expName,psychopyVersion,OS,frameRate,ratio_monitor2CRT,VirtualChinrest.started,VirtualChinrest.stopped,xRes,yRes,viewingdistance_cm,pixeldensity_px2mm,BallPos,squarePos,mm2degree,px2degree,CRT_px2degree,PassVirtualChinrest,foveaRadius_inPixel,InstrRedo.started,InstrRedo.stopped,VirtualChinrest_Redo.started,VirtualChinrest_Redo.stopped,Instruction1.started,Instruction1.stopped,keyPractice.started,keyPractice.stopped,key_keyprac.keys,key_keyprac.corr,key_keyprac.rt,key_keyprac.duration,keyPracFeedback.started,keyPracFeedback.stopped,keyPracLoop.thisRepN,keyPracLoop.thisTrialN,keyPracLoop.thisN,keyPracLoop.thisIndex,keyPracLoop.ran,phase,block,trial,targOrientdeg,targOrient,corrAnswer,Instruction2.started,Instruction2.stopped,Instruction3.started,Instruction3.stopped,fixation.started,fixation.stopped,fixationSize,mouseintial.x,mouseintial.y,mouseintial.leftButton,mouseintial.midButton,mouseintial.rightButton,mouseintial.time,mouseintial.clicked_name,greenFixation.started,greenFixation.stopped,trial.started,trial.stopped,letterSize,apertureSize,searchsize,key_respMain.keys,key_respMain.corr,key_respMain.rt,key_respMain.duration,trialFeedback.started,trialFeedback.stopped,trialsPractice.thisRepN,trialsPractice.thisTrialN,trialsPractice.thisN,trialsPractice.thisIndex,trialsPractice.ran,targetQuad,Tcondition,targcell,tlocx,tlocy,d1x,d1y,d2x,d2y,d3x,d3y,d4x,d4y,d5x,d5y,d6x,d6y,d7x,d7y,d8x,d8y,d9x,d9y,d10x,d10y,d11x,d11y,d1Orient,d2Orient,d3Orient,d4Orient,d5Orient,d6Orient,d7Orient,d8Orient,d9Orient,d10Orient,d11Orient,CheckInstr.started,CheckInstr.stopped,key_checkInstr.keys,key_checkInstr.corr,key_checkInstr.rt,key_checkInstr.duration,CheckInstr_FB.started,CheckInstr_FB.stopped,Instruction_MainExp.started,Instruction_MainExp.stopped,TakeABreak.started,TakeABreak.stopped,key_respBreak.keys,trials.thisRepN,trials.thisTrialN,trials.thisN,trials.thisIndex,trials.ran,configurationNumber,CCCondition,key_respBreak.rt,key_respBreak.duration,displayTestingPhase.started,displayTestingPhase.stopped,key_respTesting.keys,key_respTesting.corr,key_respTesting.rt,key_respTesting.duration,TakeABreak2.started,TakeABreak2.stopped,key_RespBreak.keys,Testingtrials.thisRepN,Testingtrials.thisTrialN,Testingtrials.thisN,Testingtrials.thisIndex,Testingtrials.ran,key_RespBreak.rt,key_RespBreak.duration,RecogQuestion.started,RecogQuestion.stopped,key_AnswerQues.keys,key_AnswerQues.rt,key_AnswerQues.duration,Disclose.started,Disclose.stopped,InstrRT.started,InstrRT.stopped,fixation_RT.started,fixation_RT.stopped,mouseInitial.x,mouseInitial.y,mouseInitial.leftButton,mouseInitial.midButton,mouseInitial.rightButton,mouseInitial.time,mouseInitial.clicked_name,displayRT.started,displayRT.stopped,key_respRT.keys,key_respRT.corr,key_respRT.rt,key_respRT.duration,RTtrials.thisRepN,RTtrials.thisTrialN,RTtrials.thisN,RTtrials.thisIndex,RTtrials.ran,EndOfExperiment.started,EndOfExperiment.stopped
0.0004,7.9378,5,8,${e://Field/PROLIFIC_PID,F,18,2023-11-02_19h19.06.055,MouseEye_CC,2023.2.2,Win32,59.97001499,1,,,,,,,,,,,,,,,,,,,,,,,,,,,,,,,,,,,,,,,,,,,,,,,,,,,,,,,,,,,,,,,,,,,,,,,,,,,,,,,,,,,,,,,,,,,,,,,,,,,,,,,,,,,,,,,,,,,,,,,,,,,,,,,,,,,,,,,,,,,,,,,,,,,,,,,,,,,,,,,,,,,,,,,,,,,,,,,,,
,,5,8,${e://Field/PROLIFIC_PID,F,18,2023-11-02_19h19.06.055,MouseEye_CC,2023.2.2,Win32,59.97001499,1.271071322,7.9383,105.0157,1376,774,38.537,5.26,"438.71, 363.2, 448.12, 419.32, 453.71, 460.2, 149.15",911.26,6.726658371,35.38222303,27.83653633,Passed,118.5304472,,,,,,,,,,,,,,,,,,,,,,,,,,,,,,,,,,,,,,,,,,,,,,,,,,,,,,,,,,,,,,,,,,,,,,,,,,,,,,,,,,,,,,,,,,,,,,,,,,,,,,,,,,,,,,,,,,,,,,,,,,,,,,,,,,,,,,,,,,,,,,,,,,,,,,,,,,,,,,,,,,,,
,,5,8,${e://Field/PROLIFIC_PID,F,18,2023-11-02_19h19.06.055,MouseEye_CC,2023.2.2,Win32,59.97001499,1.271071322,,,1376,774,38.537,5.26,"438.71, 363.2, 448.12, 419.32, 453.71, 460.2, 149.15",911.26,6.726658371,35.38222303,27.83653633,Passed,118.5304472,105.016,105.0177,,,,,,,,,,,,,,,,,,,,,,,,,,,,,,,,,,,,,,,,,,,,,,,,,,,,,,,,,,,,,,,,,,,,,,,,,,,,,,,,,,,,,,,,,,,,,,,,,,,,,,,,,,,,,,,,,,,,,,,,,,,,,,,,,,,,,,,,,,,,,,,,,,,,,,,,,,,,,,,,,,
,,5,8,${e://Field/PROLIFIC_PID,F,18,2023-11-02_19h19.06.055,MouseEye_CC,2023.2.2,Win32,59.97001499,1.023548146,,,1376,774,36.113,4.52,"438.71, 363.2, 448.12, 419.32, 453.71, 460.2, 149.15",911.26,6.303547598,28.49203514,27.83653633,Passed,95.44831772,,,105.0179,165.0982,,,,,,,,,,,,,,,,,,,,,,,,,,,,,,,,,,,,,,,,,,,,,,,,,,,,,,,,,,,,,,,,,,,,,,,,,,,,,,,,,,,,,,,,,,,,,,,,,,,,,,,,,,,,,,,,,,,,,,,,,,,,,,,,,,,,,,,,,,,,,,,,,,,,,,,,,,,,,,,,
,,5,8,${e://Field/PROLIFIC_PID,F,18,2023-11-02_19h19.06.055,MouseEye_CC,2023.2.2,Win32,59.97001499,1.023548146,,,1376,774,36.113,4.52,"438.71, 363.2, 448.12, 419.32, 453.71, 460.2, 149.15",911.26,6.303547598,28.49203514,27.83653633,Passed,95.44831772,,,,,165.0986,179.4346,,,,,,,,,,,,,,,,,,,,,,,,,,,,,,,,,,,,,,,,,,,,,,,,,,,,,,,,,,,,,,,,,,,,,,,,,,,,,,,,,,,,,,,,,,,,,,,,,,,,,,,,,,,,,,,,,,,,,,,,,,,,,,,,,,,,,,,,,,,,,,,,,,,,,,,,,,,,,,
,,5,8,${e://Field/PROLIFIC_PID,F,18,2023-11-02_19h19.06.055,MouseEye_CC,2023.2.2,Win32,59.97001499,1.023548146,,,1376,774,36.113,4.52,"438.71, 363.2, 448.12, 419.32, 453.71, 460.2, 149.15",911.26,6.303547598,28.49203514,27.83653633,Passed,95.44831772,,,,,,,179.4615,180.8477,a,1,0.8556,,180.8481,181.3475,0,0,0,0,1,practice,1,1,0,left,a,,,,,,,,,,,,,,,,,,,,,,,,,,,,,,,,,,,,,,,,,,,,,,,,,,,,,,,,,,,,,,,,,,,,,,,,,,,,,,,,,,,,,,,,,,,,,,,,,,,,,,,,,,,,,,,,,,,,,,,,,,,,,,,,,,,,,,,,,,,
,,5,8,${e://Field/PROLIFIC_PID,F,18,2023-11-02_19h19.06.055,MouseEye_CC,2023.2.2,Win32,59.97001499,1.023548146,,,1376,774,36.113,4.52,"438.71, 363.2, 448.12, 419.32, 453.71, 460.2, 149.15",911.26,6.303547598,28.49203514,27.83653633,Passed,95.44831772,,,,,,,181.3486,182.6976,a,1,0.8225,,182.6977,183.2005,0,1,1,1,1,practice,1,2,0,left,a,,,,,,,,,,,,,,,,,,,,,,,,,,,,,,,,,,,,,,,,,,,,,,,,,,,,,,,,,,,,,,,,,,,,,,,,,,,,,,,,,,,,,,,,,,,,,,,,,,,,,,,,,,,,,,,,,,,,,,,,,,,,,,,,,,,,,,,,,,,
,,5,8,${e://Field/PROLIFIC_PID,F,18,2023-11-02_19h19.06.055,MouseEye_CC,2023.2.2,Win32,59.97001499,1.023548146,,,1376,774,36.113,4.52,"438.71, 363.2, 448.12, 419.32, 453.71, 460.2, 149.15",911.26,6.303547598,28.49203514,27.83653633,Passed,95.44831772,,,,,,,183.201,184.1804,a,1,0.4441,,184.1808,184.6806,0,2,2,2,1,practice,1,3,0,left,a,,,,,,,,,,,,,,,,,,,,,,,,,,,,,,,,,,,,,,,,,,,,,,,,,,,,,,,,,,,,,,,,,,,,,,,,,,,,,,,,,,,,,,,,,,,,,,,,,,,,,,,,,,,,,,,,,,,,,,,,,,,,,,,,,,,,,,,,,,,
,,5,8,${e://Field/PROLIFIC_PID,F,18,2023-11-02_19h19.06.055,MouseEye_CC,2023.2.2,Win32,59.97001499,1.023548146,,,1376,774,36.113,4.52,"438.71, 363.2, 448.12, 419.32, 453.71, 460.2, 149.15",911.26,6.303547598,28.49203514,27.83653633,Passed,95.44831772,,,,,,,184.6813,185.7139,s,1,0.5025,,185.7139,186.2137,0,3,3,3,1,practice,1,4,180,right,s,,,,,,,,,,,,,,,,,,,,,,,,,,,,,,,,,,,,,,,,,,,,,,,,,,,,,,,,,,,,,,,,,,,,,,,,,,,,,,,,,,,,,,,,,,,,,,,,,,,,,,,,,,,,,,,,,,,,,,,,,,,,,,,,,,,,,,,,,,,
,,5,8,${e://Field/PROLIFIC_PID,F,18,2023-11-02_19h19.06.055,MouseEye_CC,2023.2.2,Win32,59.97001499,1.023548146,,,1376,774,36.113,4.52,"438.71, 363.2, 448.12, 419.32, 453.71, 460.2, 149.15",911.26,6.303547598,28.49203514,27.83653633,Passed,95.44831772,,,,,,,186.2143,187.1806,s,1,0.4251,,187.1807,187.6804,0,4,4,4,1,practice,1,5,180,right,s,,,,,,,,,,,,,,,,,,,,,,,,,,,,,,,,,,,,,,,,,,,,,,,,,,,,,,,,,,,,,,,,,,,,,,,,,,,,,,,,,,,,,,,,,,,,,,,,,,,,,,,,,,,,,,,,,,,,,,,,,,,,,,,,,,,,,,,,,,,
,,5,8,${e://Field/PROLIFIC_PID,F,18,2023-11-02_19h19.06.055,MouseEye_CC,2023.2.2,Win32,59.97001499,1.023548146,,,1376,774,36.113,4.52,"438.71, 363.2, 448.12, 419.32, 453.71, 460.2, 149.15",911.26,6.303547598,28.49203514,27.83653633,Passed,95.44831772,,,,,,,187.6809,188.6471,a,1,0.4179,,188.6471,189.147,0,5,5,5,1,practice,1,6,0,left,a,,,,,,,,,,,,,,,,,,,,,,,,,,,,,,,,,,,,,,,,,,,,,,,,,,,,,,,,,,,,,,,,,,,,,,,,,,,,,,,,,,,,,,,,,,,,,,,,,,,,,,,,,,,,,,,,,,,,,,,,,,,,,,,,,,,,,,,,,,,
,,5,8,${e://Field/PROLIFIC_PID,F,18,2023-11-02_19h19.06.055,MouseEye_CC,2023.2.2,Win32,59.97001499,1.023548146,,,1376,774,36.113,4.52,"438.71, 363.2, 448.12, 419.32, 453.71, 460.2, 149.15",911.26,6.303547598,28.49203514,27.83653633,Passed,95.44831772,,,,,,,,,,,,,,,,,,,,,,,,,,189.1484,199.6478,,,,,,,,,,,,,,,,,,,,,,,,,,,,,,,,,,,,,,,,,,,,,,,,,,,,,,,,,,,,,,,,,,,,,,,,,,,,,,,,,,,,,,,,,,,,,,,,,,,,,,,,,,,,,,,,,,,,,,,,,,,,,,,,,,,,,,,,,
,,5,8,${e://Field/PROLIFIC_PID,F,18,2023-11-02_19h19.06.055,MouseEye_CC,2023.2.2,Win32,59.97001499,1.023548146,,,1376,774,36.113,4.52,"438.71, 363.2, 448.12, 419.32, 453.71, 460.2, 149.15",911.26,6.303547598,28.49203514,27.83653633,Passed,95.44831772,,,,,,,,,,,,,,,,,,,,,,,,,,,,199.648,205.0313,,,,,,,,,,,,,,,,,,,,,,,,,,,,,,,,,,,,,,,,,,,,,,,,,,,,,,,,,,,,,,,,,,,,,,,,,,,,,,,,,,,,,,,,,,,,,,,,,,,,,,,,,,,,,,,,,,,,,,,,,,,,,,,,,,,,,,,
,,5,8,${e://Field/PROLIFIC_PID,F,18,2023-11-02_19h19.06.055,MouseEye_CC,2023.2.2,Win32,59.97001499,1.023548146,,,1376,774,36.113,4.52,"438.71, 363.2, 448.12, 419.32, 453.71, 460.2, 149.15",911.26,6.303547598,28.49203514,27.83653633,Passed,95.44831772,,,,,,,,,,,,,,,,,,,,practice,0,1,0,left,a,,,,,205.0608,208.0575,28.65934808,-0.238830566,-6.313476563,1,0,0,2.9962,fixationPoint,208.0578,208.147,208.1477,209.6472,28.65934808,8188.385164,493.3502062,a,1,1.4646,,209.6474,209.8469,0,0,0,0,1,4,sparse,90,217,-164,68,123,222,26,214,216,-218,159,-120,223,-110,82,-115,-130,-224,-120,-68,-219,79,-175,19,-128,90,270,360,90,270,270,180,90,90,90,270,,,,,,,,,,,,,,,,,,,,,,,,,,,,,,,,,,,,,,,,,,,,,,,,,,,,,,,,,,,,,,,,,,,,,
,,5,8,${e://Field/PROLIFIC_PID,F,18,2023-11-02_19h19.06.055,MouseEye_CC,2023.2.2,Win32,59.97001499,1.023548146,,,1376,774,36.113,4.52,"438.71, 363.2, 448.12, 419.32, 453.71, 460.2, 149.15",911.26,6.303547598,28.49203514,27.83653633,Passed,95.44831772,,,,,,,,,,,,,,,,,,,,practice,0,2,0,left,a,,,,,209.8477,210.7469,28.65934808,-0.238830566,-6.313476563,1,0,0,0.8989,fixationPoint,210.747,210.8467,210.8467,213.0136,28.65934808,8188.385164,493.3502062,a,1,2.1567,,213.0136,213.2131,0,1,1,1,1,1,rich,39,169,66,-126,125,-169,169,-130,19,-169,-116,-125,-167,-224,-216,218,-129,171,-218,18,-208,166,26,17,170,180,90,360,270,90,90,90,270,180,180,270,,,,,,,,,,,,,,,,,,,,,,,,,,,,,,,,,,,,,,,,,,,,,,,,,,,,,,,,,,,,,,,,,,,,,
,,5,8,${e://Field/PROLIFIC_PID,F,18,2023-11-02_19h19.06.055,MouseEye_CC,2023.2.2,Win32,59.97001499,1.023548146,,,1376,774,36.113,4.52,"438.71, 363.2, 448.12, 419.32, 453.71, 460.2, 149.15",911.26,6.303547598,28.49203514,27.83653633,Passed,95.44831772,,,,,,,,,,,,,,,,,,,,practice,0,3,0,left,a,,,,,213.214,214.1634,28.65934808,-0.238830566,-6.313476563,1,0,0,0.9491,fixationPoint,214.1634,214.2633,214.2635,215.38,28.65934808,8188.385164,493.3502062,a,1,1.1094,,215.3802,215.5799,0,2,2,2,1,2,sparse,22,-162,126,222,26,17,170,126,172,-25,-117,-175,-206,-224,-216,116,-19,130,-174,217,-164,-218,159,-21,162,90,90,180,360,360,270,360,360,360,360,180,,,,,,,,,,,,,,,,,,,,,,,,,,,,,,,,,,,,,,,,,,,,,,,,,,,,,,,,,,,,,,,,,,,,,
,,5,8,${e://Field/PROLIFIC_PID,F,18,2023-11-02_19h19.06.055,MouseEye_CC,2023.2.2,Win32,59.97001499,1.023548146,,,1376,774,36.113,4.52,"438.71, 363.2, 448.12, 419.32, 453.71, 460.2, 149.15",911.26,6.303547598,28.49203514,27.83653633,Passed,95.44831772,,,,,,,,,,,,,,,,,,,,practice,0,4,180,right,s,,,,,215.5806,216.6799,28.65934808,-0.238830566,-6.313476563,1,0,0,1.099,fixationPoint,216.6799,216.7797,216.7799,218.214,28.65934808,8188.385164,493.3502062,s,1,1.4286,,218.214,218.4133,0,3,3,3,1,4,sparse,76,19,-128,159,121,214,216,219,165,-218,159,-162,126,-219,119,-169,-116,-111,-31,-175,-206,18,-208,81,-114,90,270,180,180,270,180,360,360,360,270,360,,,,,,,,,,,,,,,,,,,,,,,,,,,,,,,,,,,,,,,,,,,,,,,,,,,,,,,,,,,,,,,,,,,,,
,,5,8,${e://Field/PROLIFIC_PID,F,18,2023-11-02_19h19.06.055,MouseEye_CC,2023.2.2,Win32,59.97001499,1.023548146,,,1376,774,36.113,4.52,"438.71, 363.2, 448.12, 419.32, 453.71, 460.2, 149.15",911.26,6.303547598,28.49203514,27.83653633,Passed,95.44831772,,,,,,,,,,,,,,,,,,,,practice,0,5,180,right,s,,,,,218.4139,219.2302,28.65934808,-0.238830566,-6.313476563,1,0,0,0.8161,fixationPoint,219.2303,219.3301,219.3302,222.4466,28.65934808,8188.385164,493.3502062,s,1,3.1001,,222.4467,222.6465,0,4,4,4,1,3,sparse,85,-19,-173,219,165,68,123,214,216,-160,68,-64,120,-226,34,162,-21,224,-216,167,-163,-167,-74,-224,-216,360,360,360,90,180,270,90,360,270,270,360,,,,,,,,,,,,,,,,,,,,,,,,,,,,,,,,,,,,,,,,,,,,,,,,,,,,,,,,,,,,,,,,,,,,,
,,5,8,${e://Field/PROLIFIC_PID,F,18,2023-11-02_19h19.06.055,MouseEye_CC,2023.2.2,Win32,59.97001499,1.023548146,,,1376,774,36.113,4.52,"438.71, 363.2, 448.12, 419.32, 453.71, 460.2, 149.15",911.26,6.303547598,28.49203514,27.83653633,Passed,95.44831772,,,,,,,,,,,,,,,,,,,,practice,0,6,180,right,s,,,,,222.6472,223.2798,28.65934808,-0.238830566,-6.313476563,1,0,0,0.6323,fixationPoint,223.2799,223.3798,223.3799,228.5465,28.65934808,8188.385164,493.3502062,s,1,5.1503,,228.5466,228.7465,0,5,5,5,1,3,sparse,95,-21,-224,126,172,219,165,166,26,-166,207,-223,206,-219,119,169,-75,18,-208,224,-216,-72,-121,-115,-130,180,180,360,180,360,180,270,180,90,180,360,,,,,,,,,,,,,,,,,,,,,,,,,,,,,,,,,,,,,,,,,,,,,,,,,,,,,,,,,,,,,,,,,,,,,
,,5,8,${e://Field/PROLIFIC_PID,F,18,2023-11-02_19h19.06.055,MouseEye_CC,2023.2.2,Win32,59.97001499,1.023548146,,,1376,774,36.113,4.52,"438.71, 363.2, 448.12, 419.32, 453.71, 460.2, 149.15",911.26,6.303547598,28.49203514,27.83653633,Passed,95.44831772,,,,,,,,,,,,,,,,,,,,practice,0,7,0,left,a,,,,,228.7471,229.4297,28.65934808,-0.238830566,-6.313476563,1,0,0,0.6824,fixationPoint,229.4299,229.5296,229.5296,231.8296,28.65934808,8188.385164,493.3502062,a,1,2.2862,,231.8298,232.0296,0,6,6,6,1,1,rich,7,62,223,-166,207,-226,34,-162,126,-169,-116,-168,-160,-161,-27,15,-162,162,-21,79,-175,219,165,219,129,180,180,360,180,270,360,180,360,270,180,360,,,,,,,,,,,,,,,,,,,,,,,,,,,,,,,,,,,,,,,,,,,,,,,,,,,,,,,,,,,,,,,,,,,,,
,,5,8,${e://Field/PROLIFIC_PID,F,18,2023-11-02_19h19.06.055,MouseEye_CC,2023.2.2,Win32,59.97001499,1.023548146,,,1376,774,36.113,4.52,"438.71, 363.2, 448.12, 419.32, 453.71, 460.2, 149.15",911.26,6.303547598,28.49203514,27.83653633,Passed,95.44831772,,,,,,,,,,,,,,,,,,,,practice,0,8,180,right,s,,,,,232.0303,232.7296,28.65934808,-0.238830566,-6.313476563,1,0,0,0.6991,fixationPoint,232.7297,232.8298,232.8299,239.8132,28.65934808,8188.385164,493.3502062,s,1,6.9672,,239.8133,240.0129,0,7,7,7,1,2,sparse,24,-64,120,18,215,126,172,33,121,-206,-170,-64,-162,-218,-78,130,-174,211,-74,168,-130,-164,32,-21,162,90,180,270,360,180,90,180,180,180,360,270,,,,,,,,,,,,,,,,,,,,,,,,,,,,,,,,,,,,,,,,,,,,,,,,,,,,,,,,,,,,,,,,,,,,,
,,5,8,${e://Field/PROLIFIC_PID,F,18,2023-11-02_19h19.06.055,MouseEye_CC,2023.2.2,Win32,59.97001499,1.023548146,,,1376,774,36.113,4.52,"438.71, 363.2, 448.12, 419.32, 453.71, 460.2, 149.15",911.26,6.303547598,28.49203514,27.83653633,Passed,95.44831772,,,,,,,,,,,,,,,,,,,,practice,0,9,180,right,s,,,,,240.0136,240.663,28.65934808,-0.238830566,-6.313476563,1,0,0,0.6492,fixationPoint,240.663,240.7628,240.7629,242.1629,28.65934808,8188.385164,493.3502062,s,1,1.3925,,242.1631,242.363,0,8,8,8,1,3,sparse,85,-19,-173,127,30,62,223,217,67,-110,82,-21,162,-80,218,167,-163,126,-79,130,-174,-125,-167,-68,-219,360,360,360,180,360,360,180,270,90,360,180,,,,,,,,,,,,,,,,,,,,,,,,,,,,,,,,,,,,,,,,,,,,,,,,,,,,,,,,,,,,,,,,,,,,,
,,5,8,${e://Field/PROLIFIC_PID,F,18,2023-11-02_19h19.06.055,MouseEye_CC,2023.2.2,Win32,59.97001499,1.023548146,,,1376,774,36.113,4.52,"438.71, 363.2, 448.12, 419.32, 453.71, 460.2, 149.15",911.26,6.303547598,28.49203514,27.83653633,Passed,95.44831772,,,,,,,,,,,,,,,,,,,,practice,0,10,180,right,s,,,,,242.3637,242.9131,28.65934808,-0.238830566,-6.313476563,1,0,0,0.5492,fixationPoint,242.9131,243.0127,243.0128,245.1798,28.65934808,8188.385164,493.3502062,s,1,2.1611,,245.1798,245.3795,0,9,9,9,1,1,rich,9,160,209,-166,207,-226,34,-120,223,-224,-120,-118,-217,-218,-78,112,-209,126,-113,169,-75,178,160,110,129,180,90,90,270,360,270,360,180,360,180,360,,,,,,,,,,,,,,,,,,,,,,,,,,,,,,,,,,,,,,,,,,,,,,,,,,,,,,,,,,,,,,,,,,,,,
,,5,8,${e://Field/PROLIFIC_PID,F,18,2023-11-02_19h19.06.055,MouseEye_CC,2023.2.2,Win32,59.97001499,1.023548146,,,1376,774,36.113,4.52,"438.71, 363.2, 448.12, 419.32, 453.71, 460.2, 149.15",911.26,6.303547598,28.49203514,27.83653633,Passed,95.44831772,,,,,,,,,,,,,,,,,,,,practice,0,11,180,right,s,,,,,245.3801,245.996,28.65934808,-0.238830566,-6.313476563,1,0,0,0.6157,fixationPoint,245.9961,246.0961,246.0962,249.0462,28.65934808,8188.385164,493.3502062,s,1,2.9334,,249.0463,249.2459,0,10,10,10,1,4,sparse,80,218,-129,62,223,159,121,110,129,-218,159,-223,206,-75,173,-169,-116,-118,-217,-125,-167,217,-164,169,-75,360,270,360,180,360,180,180,270,360,180,90,,,,,,,,,,,,,,,,,,,,,,,,,,,,,,,,,,,,,,,,,,,,,,,,,,,,,,,,,,,,,,,,,,,,,
,,5,8,${e://Field/PROLIFIC_PID,F,18,2023-11-02_19h19.06.055,MouseEye_CC,2023.2.2,Win32,59.97001499,1.023548146,,,1376,774,36.113,4.52,"438.71, 363.2, 448.12, 419.32, 453.71, 460.2, 149.15",911.26,6.303547598,28.49203514,27.83653633,Passed,95.44831772,,,,,,,,,,,,,,,,,,,,practice,0,12,0,left,a,,,,,249.2466,249.7293,28.65934808,-0.238830566,-6.313476563,1,0,0,0.4825,fixationPoint,249.7294,249.8294,249.8295,253.846,28.65934808,8188.385164,493.3502062,a,1,4.001,,253.846,254.0458,0,11,11,11,1,3,sparse,75,-25,-117,110,129,125,63,214,216,-164,32,-27,117,-126,125,171,-218,126,-113,167,-163,-21,-224,-212,-21,270,180,180,360,180,270,360,270,360,180,270,,,,,,,,,,,,,,,,,,,,,,,,,,,,,,,,,,,,,,,,,,,,,,,,,,,,,,,,,,,,,,,,,,,,,
,,5,8,${e://Field/PROLIFIC_PID,F,18,2023-11-02_19h19.06.055,MouseEye_CC,2023.2.2,Win32,59.97001499,1.023548146,,,1376,774,36.113,4.52,"438.71, 363.2, 448.12, 419.32, 453.71, 460.2, 149.15",911.26,6.303547598,28.49203514,27.83653633,Passed,95.44831772,,,,,,,,,,,,,,,,,,,,,,,,,,,,,,,,,,,,,,,,,,,,,,,,,,,,,,,,,,,,,,,,,,,,,,,,,,,,,,,,,,,,,,,,,,,,,,,,254.0469,259.3299,a,1,5.2565,,,,,,,,,,,,,,,,,,,,,,,,,,,,,,,,,,,,,,,,,,,,,,,,,,,,,,,,,,,,,,,,
,,5,8,${e://Field/PROLIFIC_PID,F,18,2023-11-02_19h19.06.055,MouseEye_CC,2023.2.2,Win32,59.97001499,1.023548146,,,1376,774,36.113,4.52,"438.71, 363.2, 448.12, 419.32, 453.71, 460.2, 149.15",911.26,6.303547598,28.49203514,27.83653633,Passed,95.44831772,,,,,,,,,,,,,,,,,,,,,,,,,,,,,,,,,,,,,,,,,,,,,,,,,,,,,,,,,,,,,,,,,,,,,,,,,,,,,,,,,,,,,,,,,,,,,,,,,,,,,,259.3302,262.1469,,,,,,,,,,,,,,,,,,,,,,,,,,,,,,,,,,,,,,,,,,,,,,,,,,,,,,,,,,,,,
,,5,8,${e://Field/PROLIFIC_PID,F,18,2023-11-02_19h19.06.055,MouseEye_CC,2023.2.2,Win32,59.97001499,1.023548146,,,1376,774,36.113,4.52,"438.71, 363.2, 448.12, 419.32, 453.71, 460.2, 149.15",911.26,6.303547598,28.49203514,27.83653633,Passed,95.44831772,,,,,,,,,,,,,,,,,,,,,,,,,,,,,,,,,,,,,,,,,,,,,,,,,,,,,,,,,,,,,,,,,,,,,,,,,,,,,,,,,,,,,,,,,,,,,,,,,,,,,,,,262.1471,271.4969,,,,,,,,,,,,,,,,,,,,,,,,,,,,,,,,,,,,,,,,,,,,,,,,,,,,,,,,,,,
,,5,8,${e://Field/PROLIFIC_PID,F,18,2023-11-02_19h19.06.055,MouseEye_CC,2023.2.2,Win32,59.97001499,1.023548146,,,1376,774,36.113,4.52,"438.71, 363.2, 448.12, 419.32, 453.71, 460.2, 149.15",911.26,6.303547598,28.49203514,27.83653633,Passed,95.44831772,,,,,,,,,,,,,,,,,,,,training,1,1,180,right,s,,,,,271.6643,272.8292,28.65934808,-0.238830566,-6.313476563,1,0,0,1.1647,fixationPoint,272.8294,272.9287,272.9288,275.0456,28.65934808,8188.385164,493.3502062,s,1,2.1025,,275.0458,275.2453,,,,,,,,19,160,161,-216,64,-221,169,-174,217,-126,-216,-213,-74,-116,-125,123,-220,216,-224,73,-20,112,64,80,220,270,90,360,90,270,360,180,360,360,90,90,,,,,,,,,,,275.2458,275.2497,,0,0,0,0,1,13,novel,,,,,,,,,,,,,,,,,,,,,,,,,,,,,,,,,,,,,,,,,,,,,,,,,
,,5,8,${e://Field/PROLIFIC_PID,F,18,2023-11-02_19h19.06.055,MouseEye_CC,2023.2.2,Win32,59.97001499,1.023548146,,,1376,774,36.113,4.52,"438.71, 363.2, 448.12, 419.32, 453.71, 460.2, 149.15",911.26,6.303547598,28.49203514,27.83653633,Passed,95.44831772,,,,,,,,,,,,,,,,,,,,training,1,2,0,left,a,,,,,275.2503,275.7789,28.65934808,-0.238830566,-6.313476563,1,0,0,0.5283,fixationPoint,275.779,275.8789,275.879,277.0454,28.65934808,8188.385164,493.3502062,a,1,1.1599,,277.0455,277.2454,,,,,,,,31,-216,64,222,113,160,161,208,211,-126,-164,-16,-26,-213,-74,28,-24,72,-166,165,-19,-120,120,-172,170,360,180,90,90,180,180,180,360,90,270,180,,,,,,,,,,,277.2454,277.2457,,0,1,1,1,1,15,novel,,,,,,,,,,,,,,,,,,,,,,,,,,,,,,,,,,,,,,,,,,,,,,,,,
,,5,8,${e://Field/PROLIFIC_PID,F,18,2023-11-02_19h19.06.055,MouseEye_CC,2023.2.2,Win32,59.97001499,1.023548146,,,1376,774,36.113,4.52,"438.71, 363.2, 448.12, 419.32, 453.71, 460.2, 149.15",911.26,6.303547598,28.49203514,27.83653633,Passed,95.44831772,,,,,,,,,,,,,,,,,,,,training,1,3,180,right,s,,,,,277.2463,277.6787,28.65934808,-0.238830566,-6.313476563,1,0,0,0.4322,fixationPoint,277.6787,277.7788,277.7789,280.5453,28.65934808,8188.385164,493.3502062,s,1,2.7538,,280.5453,280.7451,,,,,,,,32,-166,79,208,211,112,64,124,172,-124,-69,-170,-68,-126,-164,209,-18,208,-126,164,-211,-218,124,-174,23,90,360,270,360,90,270,90,360,360,90,270,,,,,,,,,,,280.7452,280.7454,,0,2,2,2,1,16,novel,,,,,,,,,,,,,,,,,,,,,,,,,,,,,,,,,,,,,,,,,,,,,,,,,
,,5,8,${e://Field/PROLIFIC_PID,F,18,2023-11-02_19h19.06.055,MouseEye_CC,2023.2.2,Win32,59.97001499,1.023548146,,,1376,774,36.113,4.52,"438.71, 363.2, 448.12, 419.32, 453.71, 460.2, 149.15",911.26,6.303547598,28.49203514,27.83653633,Passed,95.44831772,,,,,,,,,,,,,,,,,,,,training,1,4,180,right,s,,,,,280.746,281.1453,28.65934808,-0.238830566,-6.313476563,1,0,0,0.3989,fixationPoint,281.1453,281.2462,281.2463,283.2455,28.65934808,8188.385164,493.3502062,s,1,1.9921,,283.2455,283.4452,,,,,,,,30,222,113,-21,120,-29,210,-213,222,-214,-170,-126,-216,-223,-31,123,-220,28,-64,119,-172,164,219,20,27,90,270,90,270,360,180,180,90,180,90,360,,,,,,,,,,,283.4453,283.4456,,0,3,3,3,1,14,novel,,,,,,,,,,,,,,,,,,,,,,,,,,,,,,,,,,,,,,,,,,,,,,,,,
,,5,8,${e://Field/PROLIFIC_PID,F,18,2023-11-02_19h19.06.055,MouseEye_CC,2023.2.2,Win32,59.97001499,1.023548146,,,1376,774,36.113,4.52,"438.71, 363.2, 448.12, 419.32, 453.71, 460.2, 149.15",911.26,6.303547598,28.49203514,27.83653633,Passed,95.44831772,,,,,,,,,,,,,,,,,,,,training,1,5,0,left,a,,,,,283.4462,283.8285,28.65934808,-0.238830566,-6.313476563,1,0,0,0.3821,fixationPoint,283.8286,283.9289,283.9291,285.2453,28.65934808,8188.385164,493.3502062,a,1,1.3004,,285.2454,285.4453,,,,,,,,40,209,72,-221,169,-116,74,-29,210,-218,-127,-70,-117,-173,-114,209,-18,224,-75,28,-64,112,64,160,161,270,180,270,180,90,180,360,180,180,90,180,,,,,,,,,,,285.4454,285.4457,,0,4,4,4,1,2,repeated,,,,,,,,,,,,,,,,,,,,,,,,,,,,,,,,,,,,,,,,,,,,,,,,,
,,5,8,${e://Field/PROLIFIC_PID,F,18,2023-11-02_19h19.06.055,MouseEye_CC,2023.2.2,Win32,59.97001499,1.023548146,,,1376,774,36.113,4.52,"438.71, 363.2, 448.12, 419.32, 453.71, 460.2, 149.15",911.26,6.303547598,28.49203514,27.83653633,Passed,95.44831772,,,,,,,,,,,,,,,,,,,,training,1,6,180,right,s,,,,,285.4463,285.9118,28.65934808,-0.238830566,-6.313476563,1,0,0,0.4652,fixationPoint,285.912,286.0124,286.0124,288.9454,28.65934808,8188.385164,493.3502062,s,1,2.9216,,288.9454,289.1451,,,,,,,,71,-218,-127,208,211,124,172,125,118,-176,122,-224,32,-216,64,28,-221,215,-168,28,-24,-80,-23,-223,-31,360,360,270,180,180,90,270,180,270,360,360,,,,,,,,,,,289.1453,289.1456,,0,5,5,5,1,6,repeated,,,,,,,,,,,,,,,,,,,,,,,,,,,,,,,,,,,,,,,,,,,,,,,,,
,,5,8,${e://Field/PROLIFIC_PID,F,18,2023-11-02_19h19.06.055,MouseEye_CC,2023.2.2,Win32,59.97001499,1.023548146,,,1376,774,36.113,4.52,"438.71, 363.2, 448.12, 419.32, 453.71, 460.2, 149.15",911.26,6.303547598,28.49203514,27.83653633,Passed,95.44831772,,,,,,,,,,,,,,,,,,,,training,1,7,0,left,a,,,,,289.1462,289.5119,28.65934808,-0.238830566,-6.313476563,1,0,0,0.3655,fixationPoint,289.512,289.6117,289.6118,293.0126,28.65934808,8188.385164,493.3502062,a,1,3.3833,,293.0127,293.2119,,,,,,,,97,69,-220,20,27,164,219,222,113,-176,122,-116,74,-174,23,-124,-69,-223,-31,-216,-215,165,-19,224,-75,90,180,360,270,360,270,270,90,90,360,360,,,,,,,,,,,293.2119,293.2123,,0,6,6,6,1,11,novel,,,,,,,,,,,,,,,,,,,,,,,,,,,,,,,,,,,,,,,,,,,,,,,,,
,,5,8,${e://Field/PROLIFIC_PID,F,18,2023-11-02_19h19.06.055,MouseEye_CC,2023.2.2,Win32,59.97001499,1.023548146,,,1376,774,36.113,4.52,"438.71, 363.2, 448.12, 419.32, 453.71, 460.2, 149.15",911.26,6.303547598,28.49203514,27.83653633,Passed,95.44831772,,,,,,,,,,,,,,,,,,,,training,1,8,0,left,a,,,,,293.2129,293.595,28.65934808,-0.238830566,-6.313476563,1,0,0,0.3819,fixationPoint,293.595,293.6951,293.6952,295.1786,28.65934808,8188.385164,493.3502062,a,1,1.4668,,295.1786,295.3783,,,,,,,,84,-73,-165,213,32,126,29,125,118,-174,23,-216,64,-119,213,28,-221,165,-19,209,-18,-168,-174,-70,-117,180,270,270,180,180,90,90,360,360,270,180,,,,,,,,,,,295.3784,295.3787,,0,7,7,7,1,9,novel,,,,,,,,,,,,,,,,,,,,,,,,,,,,,,,,,,,,,,,,,,,,,,,,,
,,5,8,${e://Field/PROLIFIC_PID,F,18,2023-11-02_19h19.06.055,MouseEye_CC,2023.2.2,Win32,59.97001499,1.023548146,,,1376,774,36.113,4.52,"438.71, 363.2, 448.12, 419.32, 453.71, 460.2, 149.15",911.26,6.303547598,28.49203514,27.83653633,Passed,95.44831772,,,,,,,,,,,,,,,,,,,,training,1,9,0,left,a,,,,,295.3794,295.8616,28.65934808,-0.238830566,-6.313476563,1,0,0,0.4821,fixationPoint,295.8617,295.9616,295.9617,298.0622,28.65934808,8188.385164,493.3502062,a,1,2.0835,,298.0623,298.2616,,,,,,,,69,173,-77,78,67,80,220,167,124,-65,77,-166,79,-174,23,-70,-117,-213,-74,-32,-124,69,-124,216,-224,270,360,270,90,180,90,270,180,270,270,270,,,,,,,,,,,298.2617,298.2619,,0,8,8,8,1,8,repeated,,,,,,,,,,,,,,,,,,,,,,,,,,,,,,,,,,,,,,,,,,,,,,,,,
,,5,8,${e://Field/PROLIFIC_PID,F,18,2023-11-02_19h19.06.055,MouseEye_CC,2023.2.2,Win32,59.97001499,1.023548146,,,1376,774,36.113,4.52,"438.71, 363.2, 448.12, 419.32, 453.71, 460.2, 149.15",911.26,6.303547598,28.49203514,27.83653633,Passed,95.44831772,,,,,,,,,,,,,,,,,,,,training,1,10,0,left,a,,,,,298.2626,298.6281,28.65934808,-0.238830566,-6.313476563,1,0,0,0.3655,fixationPoint,298.6283,298.7284,298.7285,300.0949,28.65934808,8188.385164,493.3502062,a,1,1.3504,,300.095,300.2949,,,,,,,,61,-213,-74,80,220,208,211,164,219,-213,222,-221,169,-172,170,69,-124,119,-172,79,-76,-17,-222,-80,-23,270,360,360,180,180,90,180,270,90,270,360,,,,,,,,,,,300.295,300.2952,,0,9,9,9,1,10,novel,,,,,,,,,,,,,,,,,,,,,,,,,,,,,,,,,,,,,,,,,,,,,,,,,
,,5,8,${e://Field/PROLIFIC_PID,F,18,2023-11-02_19h19.06.055,MouseEye_CC,2023.2.2,Win32,59.97001499,1.023548146,,,1376,774,36.113,4.52,"438.71, 363.2, 448.12, 419.32, 453.71, 460.2, 149.15",911.26,6.303547598,28.49203514,27.83653633,Passed,95.44831772,,,,,,,,,,,,,,,,,,,,training,1,11,180,right,s,,,,,300.2958,300.7117,28.65934808,-0.238830566,-6.313476563,1,0,0,0.4158,fixationPoint,300.7118,300.8116,300.8117,303.3117,28.65934808,8188.385164,493.3502062,s,1,2.4832,,303.3119,303.5115,,,,,,,,82,-168,-174,176,69,167,124,78,67,-176,122,-218,124,-21,120,224,-75,165,-19,28,-221,-216,-215,-32,-124,360,360,180,90,360,180,180,270,270,360,360,,,,,,,,,,,303.5116,303.5119,,0,10,10,10,1,5,repeated,,,,,,,,,,,,,,,,,,,,,,,,,,,,,,,,,,,,,,,,,,,,,,,,,
,,5,8,${e://Field/PROLIFIC_PID,F,18,2023-11-02_19h19.06.055,MouseEye_CC,2023.2.2,Win32,59.97001499,1.023548146,,,1376,774,36.113,4.52,"438.71, 363.2, 448.12, 419.32, 453.71, 460.2, 149.15",911.26,6.303547598,28.49203514,27.83653633,Passed,95.44831772,,,,,,,,,,,,,,,,,,,,training,1,12,180,right,s,,,,,303.5124,303.8283,28.65934808,-0.238830566,-6.313476563,1,0,0,0.3156,fixationPoint,303.8284,303.9282,303.9282,306.0117,28.65934808,8188.385164,493.3502062,s,1,2.0659,,306.0119,306.2114,,,,,,,,17,76,165,-216,64,-116,160,-218,124,-68,-209,-114,-32,-170,-68,209,-18,173,-77,119,-172,176,69,160,161,360,90,90,180,360,180,360,360,90,180,180,,,,,,,,,,,306.2116,306.2119,,0,11,11,11,1,1,repeated,,,,,,,,,,,,,,,,,,,,,,,,,,,,,,,,,,,,,,,,,,,,,,,,,
,,5,8,${e://Field/PROLIFIC_PID,F,18,2023-11-02_19h19.06.055,MouseEye_CC,2023.2.2,Win32,59.97001499,1.023548146,,,1376,774,36.113,4.52,"438.71, 363.2, 448.12, 419.32, 453.71, 460.2, 149.15",911.26,6.303547598,28.49203514,27.83653633,Passed,95.44831772,,,,,,,,,,,,,,,,,,,,training,1,13,0,left,a,,,,,306.2128,306.5615,28.65934808,-0.238830566,-6.313476563,1,0,0,0.3486,fixationPoint,306.5615,306.6618,306.6619,310.3615,28.65934808,8188.385164,493.3502062,s,0,3.6931,,310.3615,314.3615,,,,,,,,60,209,-18,20,72,25,112,112,64,-116,160,-218,124,-128,16,-213,-74,-30,-161,-126,-164,216,-224,112,-32,90,90,90,180,270,270,180,180,180,90,270,,,,,,,,,,,314.3615,314.3753,,0,12,12,12,1,12,novel,,,,,,,,,,,,,,,,,,,,,,,,,,,,,,,,,,,,,,,,,,,,,,,,,
,,5,8,${e://Field/PROLIFIC_PID,F,18,2023-11-02_19h19.06.055,MouseEye_CC,2023.2.2,Win32,59.97001499,1.023548146,,,1376,774,36.113,4.52,"438.71, 363.2, 448.12, 419.32, 453.71, 460.2, 149.15",911.26,6.303547598,28.49203514,27.83653633,Passed,95.44831772,,,,,,,,,,,,,,,,,,,,training,1,14,0,left,a,,,,,314.3759,315.3951,28.65934808,-0.238830566,-6.313476563,1,0,0,1.019,fixationPoint,315.3952,315.4952,315.4952,318.4785,28.65934808,8188.385164,493.3502062,a,1,2.9652,,318.4786,318.6783,,,,,,,,41,-224,32,160,161,30,166,125,118,-173,-114,-126,-164,-16,-26,119,-172,28,-221,112,-32,-174,23,-213,222,270,360,180,360,270,360,360,180,270,270,360,,,,,,,,,,,318.6784,318.6785,,0,13,13,13,1,4,repeated,,,,,,,,,,,,,,,,,,,,,,,,,,,,,,,,,,,,,,,,,,,,,,,,,
,,5,8,${e://Field/PROLIFIC_PID,F,18,2023-11-02_19h19.06.055,MouseEye_CC,2023.2.2,Win32,59.97001499,1.023548146,,,1376,774,36.113,4.52,"438.71, 363.2, 448.12, 419.32, 453.71, 460.2, 149.15",911.26,6.303547598,28.49203514,27.83653633,Passed,95.44831772,,,,,,,,,,,,,,,,,,,,training,1,15,180,right,s,,,,,318.6803,319.0447,28.65934808,-0.238830566,-6.313476563,1,0,0,0.3642,fixationPoint,319.0449,319.1445,319.1447,320.4447,28.65934808,8188.385164,493.3502062,s,1,1.2828,,320.4448,320.6446,,,,,,,,4,-72,224,112,64,222,113,30,166,-126,-164,-170,-68,-80,-23,20,-161,121,-70,79,-76,-176,122,-77,162,90,180,180,90,180,270,360,360,360,270,360,,,,,,,,,,,320.6446,320.6449,,0,14,14,14,1,3,repeated,,,,,,,,,,,,,,,,,,,,,,,,,,,,,,,,,,,,,,,,,,,,,,,,,
,,5,8,${e://Field/PROLIFIC_PID,F,18,2023-11-02_19h19.06.055,MouseEye_CC,2023.2.2,Win32,59.97001499,1.023548146,,,1376,774,36.113,4.52,"438.71, 363.2, 448.12, 419.32, 453.71, 460.2, 149.15",911.26,6.303547598,28.49203514,27.83653633,Passed,95.44831772,,,,,,,,,,,,,,,,,,,,training,1,16,180,right,s,,,,,320.6454,320.978,28.65934808,-0.238830566,-6.313476563,1,0,0,0.3324,fixationPoint,320.9781,321.0778,321.078,329.0446,28.65934808,8188.385164,493.3502062,s,1,7.9513,,329.0447,329.2445,,,,,,,,70,224,-75,112,64,213,32,20,27,-224,32,-31,169,-119,213,-173,-216,-126,-216,-116,-125,69,-124,165,-19,360,360,360,90,180,180,90,180,270,90,90,,,,,,,,,,,329.2446,338.0946,space,0,15,15,15,1,7,repeated,8.8153,,,,,,,,,,,,,,,,,,,,,,,,,,,,,,,,,,,,,,,,,,,,,,,,
,,5,8,${e://Field/PROLIFIC_PID,F,18,2023-11-02_19h19.06.055,MouseEye_CC,2023.2.2,Win32,59.97001499,1.023548146,,,1376,774,36.113,4.52,"438.71, 363.2, 448.12, 419.32, 453.71, 460.2, 149.15",911.26,6.303547598,28.49203514,27.83653633,Passed,95.44831772,,,,,,,,,,,,,,,,,,,,training,2,1,0,left,a,,,,,338.1108,339.0277,28.65934808,-0.238830566,-6.313476563,1,0,0,0.9168,fixationPoint,339.0279,339.1279,339.1279,342.7279,28.65934808,8188.385164,493.3502062,a,1,3.5831,,342.728,342.9277,,,,,,,,71,-218,-127,208,211,124,172,125,118,-176,122,-224,32,-216,64,28,-221,215,-168,28,-24,-80,-23,-223,-31,180,360,90,180,360,360,90,90,270,360,90,,,,,,,,,,,342.9277,342.9295,,0,16,16,16,1,6,repeated,,,,,,,,,,,,,,,,,,,,,,,,,,,,,,,,,,,,,,,,,,,,,,,,,
,,5,8,${e://Field/PROLIFIC_PID,F,18,2023-11-02_19h19.06.055,MouseEye_CC,2023.2.2,Win32,59.97001499,1.023548146,,,1376,774,36.113,4.52,"438.71, 363.2, 448.12, 419.32, 453.71, 460.2, 149.15",911.26,6.303547598,28.49203514,27.83653633,Passed,95.44831772,,,,,,,,,,,,,,,,,,,,training,2,2,180,right,s,,,,,342.9301,343.2608,28.65934808,-0.238830566,-6.313476563,1,0,0,0.3306,fixationPoint,343.261,343.3608,343.361,344.7443,28.65934808,8188.385164,493.3502062,s,1,1.3728,,344.7443,344.9442,,,,,,,,41,-224,32,160,161,30,166,125,118,-173,-114,-126,-164,-16,-26,119,-172,28,-221,112,-32,-174,23,-213,222,270,360,90,90,90,360,360,270,270,360,270,,,,,,,,,,,344.9442,344.9445,,0,17,17,17,1,4,repeated,,,,,,,,,,,,,,,,,,,,,,,,,,,,,,,,,,,,,,,,,,,,,,,,,
,,5,8,${e://Field/PROLIFIC_PID,F,18,2023-11-02_19h19.06.055,MouseEye_CC,2023.2.2,Win32,59.97001499,1.023548146,,,1376,774,36.113,4.52,"438.71, 363.2, 448.12, 419.32, 453.71, 460.2, 149.15",911.26,6.303547598,28.49203514,27.83653633,Passed,95.44831772,,,,,,,,,,,,,,,,,,,,training,2,3,0,left,a,,,,,344.9452,345.2609,28.65934808,-0.238830566,-6.313476563,1,0,0,0.3154,fixationPoint,345.261,345.3609,345.361,346.1278,28.65934808,8188.385164,493.3502062,a,1,0.7608,,346.1279,346.3275,,,,,,,,31,-216,64,74,116,222,113,24,212,-173,-114,-168,-174,-17,-222,117,-124,165,-19,27,-120,-67,126,-119,213,180,360,270,360,90,270,90,360,90,90,270,,,,,,,,,,,346.3276,346.3278,,0,18,18,18,1,15,novel,,,,,,,,,,,,,,,,,,,,,,,,,,,,,,,,,,,,,,,,,,,,,,,,,
,,5,8,${e://Field/PROLIFIC_PID,F,18,2023-11-02_19h19.06.055,MouseEye_CC,2023.2.2,Win32,59.97001499,1.023548146,,,1376,774,36.113,4.52,"438.71, 363.2, 448.12, 419.32, 453.71, 460.2, 149.15",911.26,6.303547598,28.49203514,27.83653633,Passed,95.44831772,,,,,,,,,,,,,,,,,,,,training,2,4,0,left,a,,,,,346.3285,346.6607,28.65934808,-0.238830566,-6.313476563,1,0,0,0.3318,fixationPoint,346.6608,346.761,346.7611,348.0942,28.65934808,8188.385164,493.3502062,a,1,1.316,,348.0943,348.2945,,,,,,,,84,-73,-165,125,118,74,23,80,220,-31,169,-116,74,-176,122,224,-75,117,-124,69,-220,-26,-66,-116,-125,270,180,90,90,270,90,270,270,360,90,180,,,,,,,,,,,348.2946,348.2948,,0,19,19,19,1,9,novel,,,,,,,,,,,,,,,,,,,,,,,,,,,,,,,,,,,,,,,,,,,,,,,,,
,,5,8,${e://Field/PROLIFIC_PID,F,18,2023-11-02_19h19.06.055,MouseEye_CC,2023.2.2,Win32,59.97001499,1.023548146,,,1376,774,36.113,4.52,"438.71, 363.2, 448.12, 419.32, 453.71, 460.2, 149.15",911.26,6.303547598,28.49203514,27.83653633,Passed,95.44831772,,,,,,,,,,,,,,,,,,,,training,2,5,0,left,a,,,,,348.2953,348.5774,28.65934808,-0.238830566,-6.313476563,1,0,0,0.2819,fixationPoint,348.5775,348.6776,348.6776,349.4111,28.65934808,8188.385164,493.3502062,a,1,0.7178,,349.4112,349.6108,,,,,,,,32,-166,79,208,211,74,116,78,67,-68,-209,-116,-125,-213,-74,112,-32,168,-121,117,-124,-213,222,-119,213,90,90,180,180,180,90,360,90,180,360,180,,,,,,,,,,,349.6108,349.6111,,0,20,20,20,1,16,novel,,,,,,,,,,,,,,,,,,,,,,,,,,,,,,,,,,,,,,,,,,,,,,,,,
,,5,8,${e://Field/PROLIFIC_PID,F,18,2023-11-02_19h19.06.055,MouseEye_CC,2023.2.2,Win32,59.97001499,1.023548146,,,1376,774,36.113,4.52,"438.71, 363.2, 448.12, 419.32, 453.71, 460.2, 149.15",911.26,6.303547598,28.49203514,27.83653633,Passed,95.44831772,,,,,,,,,,,,,,,,,,,,training,2,6,0,left,a,,,,,349.6118,349.9608,28.65934808,-0.238830566,-6.313476563,1,0,0,0.3488,fixationPoint,349.9608,350.0609,350.061,352.1283,28.65934808,8188.385164,493.3502062,a,1,2.0532,,352.1283,352.3275,,,,,,,,60,209,-18,209,72,124,172,208,211,-28,79,-213,222,-116,74,-68,-209,-170,-32,-214,-170,73,-20,175,-168,180,180,270,90,270,270,270,360,360,360,180,,,,,,,,,,,352.3276,352.3278,,0,21,21,21,1,12,novel,,,,,,,,,,,,,,,,,,,,,,,,,,,,,,,,,,,,,,,,,,,,,,,,,
,,5,8,${e://Field/PROLIFIC_PID,F,18,2023-11-02_19h19.06.055,MouseEye_CC,2023.2.2,Win32,59.97001499,1.023548146,,,1376,774,36.113,4.52,"438.71, 363.2, 448.12, 419.32, 453.71, 460.2, 149.15",911.26,6.303547598,28.49203514,27.83653633,Passed,95.44831772,,,,,,,,,,,,,,,,,,,,training,2,7,180,right,s,,,,,352.3285,352.5944,28.65934808,-0.238830566,-6.313476563,1,0,0,0.2656,fixationPoint,352.5945,352.6941,352.6942,354.0774,28.65934808,8188.385164,493.3502062,s,1,1.3761,,354.0775,354.2773,,,,,,,,82,-168,-174,176,69,167,124,78,67,-176,122,-218,124,-21,120,224,-75,165,-19,28,-221,-216,-215,-32,-124,180,180,270,270,270,180,360,180,90,180,270,,,,,,,,,,,354.2774,354.2775,,0,22,22,22,1,5,repeated,,,,,,,,,,,,,,,,,,,,,,,,,,,,,,,,,,,,,,,,,,,,,,,,,
,,5,8,${e://Field/PROLIFIC_PID,F,18,2023-11-02_19h19.06.055,MouseEye_CC,2023.2.2,Win32,59.97001499,1.023548146,,,1376,774,36.113,4.52,"438.71, 363.2, 448.12, 419.32, 453.71, 460.2, 149.15",911.26,6.303547598,28.49203514,27.83653633,Passed,95.44831772,,,,,,,,,,,,,,,,,,,,training,2,8,0,left,a,,,,,354.2781,354.5941,28.65934808,-0.238830566,-6.313476563,1,0,0,0.3157,fixationPoint,354.5941,354.6939,354.694,355.9947,28.65934808,8188.385164,493.3502062,a,1,1.2926,,355.9947,356.1945,,,,,,,,4,-72,224,112,64,222,113,30,166,-126,-164,-170,-68,-80,-23,20,-161,121,-70,79,-76,-176,122,-77,162,360,90,90,90,180,360,90,270,90,180,360,,,,,,,,,,,356.1946,356.195,,0,23,23,23,1,3,repeated,,,,,,,,,,,,,,,,,,,,,,,,,,,,,,,,,,,,,,,,,,,,,,,,,
,,5,8,${e://Field/PROLIFIC_PID,F,18,2023-11-02_19h19.06.055,MouseEye_CC,2023.2.2,Win32,59.97001499,1.023548146,,,1376,774,36.113,4.52,"438.71, 363.2, 448.12, 419.32, 453.71, 460.2, 149.15",911.26,6.303547598,28.49203514,27.83653633,Passed,95.44831772,,,,,,,,,,,,,,,,,,,,training,2,9,180,right,s,,,,,356.1956,356.5611,28.65934808,-0.238830566,-6.313476563,1,0,0,0.3653,fixationPoint,356.5612,356.6608,356.6609,359.8942,28.65934808,8188.385164,493.3502062,s,1,3.2167,,359.8942,360.0939,,,,,,,,17,76,165,-216,64,-116,160,-218,124,-68,-209,-114,-32,-170,-68,209,-18,173,-77,119,-172,176,69,160,161,360,90,90,180,270,90,90,180,90,180,90,,,,,,,,,,,360.094,360.0943,,0,24,24,24,1,1,repeated,,,,,,,,,,,,,,,,,,,,,,,,,,,,,,,,,,,,,,,,,,,,,,,,,
,,5,8,${e://Field/PROLIFIC_PID,F,18,2023-11-02_19h19.06.055,MouseEye_CC,2023.2.2,Win32,59.97001499,1.023548146,,,1376,774,36.113,4.52,"438.71, 363.2, 448.12, 419.32, 453.71, 460.2, 149.15",911.26,6.303547598,28.49203514,27.83653633,Passed,95.44831772,,,,,,,,,,,,,,,,,,,,training,2,10,180,right,s,,,,,360.095,360.4441,28.65934808,-0.238830566,-6.313476563,1,0,0,0.3489,fixationPoint,360.4442,360.544,360.544,363.1274,28.65934808,8188.385164,493.3502062,s,1,2.5744,,363.1275,363.3271,,,,,,,,40,209,72,-221,169,-116,74,-29,210,-218,-127,-70,-117,-173,-114,209,-18,224,-75,28,-64,112,64,160,161,270,180,90,360,270,90,360,90,90,360,270,,,,,,,,,,,363.3272,363.3275,,0,25,25,25,1,2,repeated,,,,,,,,,,,,,,,,,,,,,,,,,,,,,,,,,,,,,,,,,,,,,,,,,
,,5,8,${e://Field/PROLIFIC_PID,F,18,2023-11-02_19h19.06.055,MouseEye_CC,2023.2.2,Win32,59.97001499,1.023548146,,,1376,774,36.113,4.52,"438.71, 363.2, 448.12, 419.32, 453.71, 460.2, 149.15",911.26,6.303547598,28.49203514,27.83653633,Passed,95.44831772,,,,,,,,,,,,,,,,,,,,training,2,11,180,right,s,,,,,363.3282,363.8453,28.65934808,-0.238830566,-6.313476563,1,0,0,0.517,fixationPoint,363.8454,363.9436,363.9437,369.8939,28.65934808,8188.385164,493.3502062,s,1,5.9402,,369.894,370.0938,,,,,,,,97,69,-220,208,211,74,116,24,212,-128,16,-218,124,-120,120,-173,-216,-30,-161,-126,-216,79,-76,119,-172,270,360,180,360,90,270,360,270,270,180,270,,,,,,,,,,,370.0938,370.0941,,0,26,26,26,1,11,novel,,,,,,,,,,,,,,,,,,,,,,,,,,,,,,,,,,,,,,,,,,,,,,,,,
,,5,8,${e://Field/PROLIFIC_PID,F,18,2023-11-02_19h19.06.055,MouseEye_CC,2023.2.2,Win32,59.97001499,1.023548146,,,1376,774,36.113,4.52,"438.71, 363.2, 448.12, 419.32, 453.71, 460.2, 149.15",911.26,6.303547598,28.49203514,27.83653633,Passed,95.44831772,,,,,,,,,,,,,,,,,,,,training,2,12,0,left,a,,,,,370.0947,370.3771,28.65934808,-0.238830566,-6.313476563,1,0,0,0.2822,fixationPoint,370.3772,370.4772,370.4772,372.1771,28.65934808,8188.385164,493.3502062,a,1,1.6913,,372.1772,372.3772,,,,,,,,61,-213,-74,30,166,124,172,175,28,-116,74,-29,210,-120,120,208,-126,224,-75,216,-224,-214,-170,-216,-215,270,270,360,360,270,180,360,360,270,90,90,,,,,,,,,,,372.3773,372.3775,,0,27,27,27,1,10,novel,,,,,,,,,,,,,,,,,,,,,,,,,,,,,,,,,,,,,,,,,,,,,,,,,
,,5,8,${e://Field/PROLIFIC_PID,F,18,2023-11-02_19h19.06.055,MouseEye_CC,2023.2.2,Win32,59.97001499,1.023548146,,,1376,774,36.113,4.52,"438.71, 363.2, 448.12, 419.32, 453.71, 460.2, 149.15",911.26,6.303547598,28.49203514,27.83653633,Passed,95.44831772,,,,,,,,,,,,,,,,,,,,training,2,13,0,left,a,,,,,372.3781,372.8273,28.65934808,-0.238830566,-6.313476563,1,0,0,0.449,fixationPoint,372.8274,372.927,372.9271,375.4937,28.65934808,8188.385164,493.3502062,a,1,2.5511,,375.4938,375.6934,,,,,,,,69,173,-77,78,67,80,220,167,124,-65,77,-166,79,-174,23,-70,-117,-213,-74,-32,-124,69,-124,216,-224,270,180,180,360,90,270,270,180,180,360,90,,,,,,,,,,,375.6935,375.6938,,0,28,28,28,1,8,repeated,,,,,,,,,,,,,,,,,,,,,,,,,,,,,,,,,,,,,,,,,,,,,,,,,
,,5,8,${e://Field/PROLIFIC_PID,F,18,2023-11-02_19h19.06.055,MouseEye_CC,2023.2.2,Win32,59.97001499,1.023548146,,,1376,774,36.113,4.52,"438.71, 363.2, 448.12, 419.32, 453.71, 460.2, 149.15",911.26,6.303547598,28.49203514,27.83653633,Passed,95.44831772,,,,,,,,,,,,,,,,,,,,training,2,14,180,right,s,,,,,375.6944,376.0102,28.65934808,-0.238830566,-6.313476563,1,0,0,0.3157,fixationPoint,376.0103,376.1106,376.1107,378.9109,28.65934808,8188.385164,493.3502062,s,1,2.7817,,378.911,379.1105,,,,,,,,30,222,113,-174,23,-166,79,-29,210,-218,-127,-116,-125,-126,-164,216,-224,72,-166,175,-168,209,167,25,112,90,180,360,90,90,270,270,90,180,360,90,,,,,,,,,,,379.1105,379.1108,,0,29,29,29,1,14,novel,,,,,,,,,,,,,,,,,,,,,,,,,,,,,,,,,,,,,,,,,,,,,,,,,
,,5,8,${e://Field/PROLIFIC_PID,F,18,2023-11-02_19h19.06.055,MouseEye_CC,2023.2.2,Win32,59.97001499,1.023548146,,,1376,774,36.113,4.52,"438.71, 363.2, 448.12, 419.32, 453.71, 460.2, 149.15",911.26,6.303547598,28.49203514,27.83653633,Passed,95.44831772,,,,,,,,,,,,,,,,,,,,training,2,15,180,right,s,,,,,379.1114,379.427,28.65934808,-0.238830566,-6.313476563,1,0,0,0.3153,fixationPoint,379.4272,379.5271,379.5271,382.5103,28.65934808,8188.385164,493.3502062,s,1,2.9668,,382.5104,382.7104,,,,,,,,70,224,-75,112,64,213,32,20,27,-224,32,-31,169,-119,213,-173,-216,-126,-216,-116,-125,69,-124,165,-19,180,90,180,360,90,90,90,180,180,90,90,,,,,,,,,,,382.7104,382.7107,,0,30,30,30,1,7,repeated,,,,,,,,,,,,,,,,,,,,,,,,,,,,,,,,,,,,,,,,,,,,,,,,,
,,5,8,${e://Field/PROLIFIC_PID,F,18,2023-11-02_19h19.06.055,MouseEye_CC,2023.2.2,Win32,59.97001499,1.023548146,,,1376,774,36.113,4.52,"438.71, 363.2, 448.12, 419.32, 453.71, 460.2, 149.15",911.26,6.303547598,28.49203514,27.83653633,Passed,95.44831772,,,,,,,,,,,,,,,,,,,,training,2,16,180,right,s,,,,,382.7114,383.0103,28.65934808,-0.238830566,-6.313476563,1,0,0,0.2987,fixationPoint,383.0104,383.1101,383.1101,385.0935,28.65934808,8188.385164,493.3502062,s,1,1.9758,,385.0937,385.2934,,,,,,,,19,160,161,-116,160,-213,222,-31,169,-213,-74,-173,-114,-73,-165,165,-19,72,-166,27,-120,176,69,78,67,270,90,360,270,270,360,360,180,180,90,360,,,,,,,,,,,385.2936,392.5602,space,0,31,31,31,1,13,novel,7.2404,,,,,,,,,,,,,,,,,,,,,,,,,,,,,,,,,,,,,,,,,,,,,,,,
,,5,8,${e://Field/PROLIFIC_PID,F,18,2023-11-02_19h19.06.055,MouseEye_CC,2023.2.2,Win32,59.97001499,1.023548146,,,1376,774,36.113,4.52,"438.71, 363.2, 448.12, 419.32, 453.71, 460.2, 149.15",911.26,6.303547598,28.49203514,27.83653633,Passed,95.44831772,,,,,,,,,,,,,,,,,,,,training,3,1,180,right,s,,,,,392.5786,393.4768,28.65934808,-0.238830566,-6.313476563,1,0,0,0.898,fixationPoint,393.477,393.5768,393.5769,396.2433,28.65934808,8188.385164,493.3502062,s,1,2.6518,,396.2434,396.4433,,,,,,,,41,-224,32,160,161,30,166,125,118,-173,-114,-126,-164,-16,-26,119,-172,28,-221,112,-32,-174,23,-213,222,90,90,90,180,360,90,360,360,90,270,270,,,,,,,,,,,396.4433,396.4452,,0,32,32,32,1,4,repeated,,,,,,,,,,,,,,,,,,,,,,,,,,,,,,,,,,,,,,,,,,,,,,,,,
,,5,8,${e://Field/PROLIFIC_PID,F,18,2023-11-02_19h19.06.055,MouseEye_CC,2023.2.2,Win32,59.97001499,1.023548146,,,1376,774,36.113,4.52,"438.71, 363.2, 448.12, 419.32, 453.71, 460.2, 149.15",911.26,6.303547598,28.49203514,27.83653633,Passed,95.44831772,,,,,,,,,,,,,,,,,,,,training,3,2,0,left,a,,,,,396.446,396.7433,28.65934808,-0.238830566,-6.313476563,1,0,0,0.2971,fixationPoint,396.7434,396.8431,396.8433,397.9937,28.65934808,8188.385164,493.3502062,a,1,1.1415,,397.9938,398.1932,,,,,,,,71,-218,-127,208,211,124,172,125,118,-176,122,-224,32,-216,64,28,-221,215,-168,28,-24,-80,-23,-223,-31,180,180,270,360,90,270,270,360,180,270,180,,,,,,,,,,,398.1933,398.1936,,0,33,33,33,1,6,repeated,,,,,,,,,,,,,,,,,,,,,,,,,,,,,,,,,,,,,,,,,,,,,,,,,
,,5,8,${e://Field/PROLIFIC_PID,F,18,2023-11-02_19h19.06.055,MouseEye_CC,2023.2.2,Win32,59.97001499,1.023548146,,,1376,774,36.113,4.52,"438.71, 363.2, 448.12, 419.32, 453.71, 460.2, 149.15",911.26,6.303547598,28.49203514,27.83653633,Passed,95.44831772,,,,,,,,,,,,,,,,,,,,training,3,3,0,left,a,,,,,398.1941,398.3765,28.65934808,-0.238830566,-6.313476563,1,0,0,0.1823,fixationPoint,398.3766,398.477,398.477,399.3935,28.65934808,8188.385164,493.3502062,a,1,0.9007,,399.3937,399.5937,,,,,,,,30,222,113,-77,162,-67,17,-19,16,-218,-127,-26,-66,-214,-170,79,-76,123,-220,216,-224,112,64,24,212,360,360,180,270,90,90,270,360,90,270,270,,,,,,,,,,,399.5938,399.5943,,0,34,34,34,1,14,novel,,,,,,,,,,,,,,,,,,,,,,,,,,,,,,,,,,,,,,,,,,,,,,,,,
,,5,8,${e://Field/PROLIFIC_PID,F,18,2023-11-02_19h19.06.055,MouseEye_CC,2023.2.2,Win32,59.97001499,1.023548146,,,1376,774,36.113,4.52,"438.71, 363.2, 448.12, 419.32, 453.71, 460.2, 149.15",911.26,6.303547598,28.49203514,27.83653633,Passed,95.44831772,,,,,,,,,,,,,,,,,,,,training,3,4,0,left,a,,,,,399.5951,399.8931,28.65934808,-0.238830566,-6.313476563,1,0,0,0.2978,fixationPoint,399.8932,399.9934,399.9934,402.7288,28.65934808,8188.385164,493.3502062,a,1,2.7298,,402.7288,402.9266,,,,,,,,17,76,165,-216,64,-116,160,-218,124,-68,-209,-114,-32,-170,-68,209,-18,173,-77,119,-172,176,69,160,161,270,180,270,270,90,360,360,90,270,360,270,,,,,,,,,,,402.9266,402.9268,,0,35,35,35,1,1,repeated,,,,,,,,,,,,,,,,,,,,,,,,,,,,,,,,,,,,,,,,,,,,,,,,,
,,5,8,${e://Field/PROLIFIC_PID,F,18,2023-11-02_19h19.06.055,MouseEye_CC,2023.2.2,Win32,59.97001499,1.023548146,,,1376,774,36.113,4.52,"438.71, 363.2, 448.12, 419.32, 453.71, 460.2, 149.15",911.26,6.303547598,28.49203514,27.83653633,Passed,95.44831772,,,,,,,,,,,,,,,,,,,,training,3,5,180,right,s,,,,,402.9274,403.2101,28.65934808,-0.238830566,-6.313476563,1,0,0,0.2824,fixationPoint,403.2101,403.3097,403.3098,404.7939,28.65934808,8188.385164,493.3502062,s,1,1.4664,,404.794,404.993,,,,,,,,60,209,-18,25,112,112,64,213,32,-224,32,-67,17,-19,16,-170,-32,-124,-69,-73,-165,216,-224,168,-121,270,90,270,360,90,180,270,180,180,360,270,,,,,,,,,,,404.9931,404.9933,,0,36,36,36,1,12,novel,,,,,,,,,,,,,,,,,,,,,,,,,,,,,,,,,,,,,,,,,,,,,,,,,
,,5,8,${e://Field/PROLIFIC_PID,F,18,2023-11-02_19h19.06.055,MouseEye_CC,2023.2.2,Win32,59.97001499,1.023548146,,,1376,774,36.113,4.52,"438.71, 363.2, 448.12, 419.32, 453.71, 460.2, 149.15",911.26,6.303547598,28.49203514,27.83653633,Passed,95.44831772,,,,,,,,,,,,,,,,,,,,training,3,6,0,left,a,,,,,404.9939,405.2598,28.65934808,-0.238830566,-6.313476563,1,0,0,0.2657,fixationPoint,405.2598,405.3598,405.3599,407.1265,28.65934808,8188.385164,493.3502062,a,1,1.7501,,407.1266,407.3263,,,,,,,,61,-213,-74,167,124,209,167,126,29,-67,17,-19,16,-128,16,224,-75,175,-168,216,-224,-68,-209,-170,-68,90,270,90,270,180,270,270,90,270,90,90,,,,,,,,,,,407.3264,407.3267,,0,37,37,37,1,10,novel,,,,,,,,,,,,,,,,,,,,,,,,,,,,,,,,,,,,,,,,,,,,,,,,,
,,5,8,${e://Field/PROLIFIC_PID,F,18,2023-11-02_19h19.06.055,MouseEye_CC,2023.2.2,Win32,59.97001499,1.023548146,,,1376,774,36.113,4.52,"438.71, 363.2, 448.12, 419.32, 453.71, 460.2, 149.15",911.26,6.303547598,28.49203514,27.83653633,Passed,95.44831772,,,,,,,,,,,,,,,,,,,,training,3,7,0,left,a,,,,,407.3275,407.5932,28.65934808,-0.238830566,-6.313476563,1,0,0,0.2656,fixationPoint,407.5934,407.693,407.693,409.6765,28.65934808,8188.385164,493.3502062,a,1,1.9677,,409.6766,409.8766,,,,,,,,69,173,-77,78,67,80,220,167,124,-65,77,-166,79,-174,23,-70,-117,-213,-74,-32,-124,69,-124,216,-224,90,90,360,90,270,270,180,90,90,360,360,,,,,,,,,,,409.8766,409.8768,,0,38,38,38,1,8,repeated,,,,,,,,,,,,,,,,,,,,,,,,,,,,,,,,,,,,,,,,,,,,,,,,,
,,5,8,${e://Field/PROLIFIC_PID,F,18,2023-11-02_19h19.06.055,MouseEye_CC,2023.2.2,Win32,59.97001499,1.023548146,,,1376,774,36.113,4.52,"438.71, 363.2, 448.12, 419.32, 453.71, 460.2, 149.15",911.26,6.303547598,28.49203514,27.83653633,Passed,95.44831772,,,,,,,,,,,,,,,,,,,,training,3,8,0,left,a,,,,,409.8774,410.0267,28.65934808,-0.238830566,-6.313476563,1,0,0,0.1491,fixationPoint,410.0267,410.1262,410.1264,412.7264,28.65934808,8188.385164,493.3502062,a,1,2.5832,,412.7264,412.9265,,,,,,,,40,209,72,-221,169,-116,74,-29,210,-218,-127,-70,-117,-173,-114,209,-18,224,-75,28,-64,112,64,160,161,180,360,360,90,180,360,360,90,180,270,90,,,,,,,,,,,412.9267,412.927,,0,39,39,39,1,2,repeated,,,,,,,,,,,,,,,,,,,,,,,,,,,,,,,,,,,,,,,,,,,,,,,,,
,,5,8,${e://Field/PROLIFIC_PID,F,18,2023-11-02_19h19.06.055,MouseEye_CC,2023.2.2,Win32,59.97001499,1.023548146,,,1376,774,36.113,4.52,"438.71, 363.2, 448.12, 419.32, 453.71, 460.2, 149.15",911.26,6.303547598,28.49203514,27.83653633,Passed,95.44831772,,,,,,,,,,,,,,,,,,,,training,3,9,0,left,a,,,,,412.9276,413.1934,28.65934808,-0.238830566,-6.313476563,1,0,0,0.2658,fixationPoint,413.1936,413.2933,413.2933,415.0429,28.65934808,8188.385164,493.3502062,a,1,1.7408,,415.0431,415.2428,,,,,,,,84,-73,-165,76,165,24,212,20,72,-116,74,-119,213,-221,169,121,-70,28,-64,164,-211,-216,-215,-170,-68,270,90,270,180,90,180,360,270,360,180,180,,,,,,,,,,,415.2429,415.2431,,0,40,40,40,1,9,novel,,,,,,,,,,,,,,,,,,,,,,,,,,,,,,,,,,,,,,,,,,,,,,,,,
,,5,8,${e://Field/PROLIFIC_PID,F,18,2023-11-02_19h19.06.055,MouseEye_CC,2023.2.2,Win32,59.97001499,1.023548146,,,1376,774,36.113,4.52,"438.71, 363.2, 448.12, 419.32, 453.71, 460.2, 149.15",911.26,6.303547598,28.49203514,27.83653633,Passed,95.44831772,,,,,,,,,,,,,,,,,,,,training,3,10,180,right,s,,,,,415.2438,415.5596,28.65934808,-0.238830566,-6.313476563,1,0,0,0.3156,fixationPoint,415.5596,415.6598,415.6599,417.2765,28.65934808,8188.385164,493.3502062,s,1,1.5992,,417.2766,417.4764,,,,,,,,70,224,-75,112,64,213,32,20,27,-224,32,-31,169,-119,213,-173,-216,-126,-216,-116,-125,69,-124,165,-19,270,360,90,180,360,270,270,90,270,180,180,,,,,,,,,,,417.4764,417.4767,,0,41,41,41,1,7,repeated,,,,,,,,,,,,,,,,,,,,,,,,,,,,,,,,,,,,,,,,,,,,,,,,,
,,5,8,${e://Field/PROLIFIC_PID,F,18,2023-11-02_19h19.06.055,MouseEye_CC,2023.2.2,Win32,59.97001499,1.023548146,,,1376,774,36.113,4.52,"438.71, 363.2, 448.12, 419.32, 453.71, 460.2, 149.15",911.26,6.303547598,28.49203514,27.83653633,Passed,95.44831772,,,,,,,,,,,,,,,,,,,,training,3,11,180,right,s,,,,,417.4774,417.743,28.65934808,-0.238830566,-6.313476563,1,0,0,0.2655,fixationPoint,417.7431,417.8431,417.8431,420.8596,28.65934808,8188.385164,493.3502062,s,1,3.0005,,420.8597,421.06,,,,,,,,97,69,-220,160,161,74,116,222,113,-221,169,-72,224,-120,120,-170,-68,-26,-66,-68,-209,72,-166,168,-121,360,270,180,180,90,360,270,90,270,270,90,,,,,,,,,,,421.0601,421.0603,,0,42,42,42,1,11,novel,,,,,,,,,,,,,,,,,,,,,,,,,,,,,,,,,,,,,,,,,,,,,,,,,
,,5,8,${e://Field/PROLIFIC_PID,F,18,2023-11-02_19h19.06.055,MouseEye_CC,2023.2.2,Win32,59.97001499,1.023548146,,,1376,774,36.113,4.52,"438.71, 363.2, 448.12, 419.32, 453.71, 460.2, 149.15",911.26,6.303547598,28.49203514,27.83653633,Passed,95.44831772,,,,,,,,,,,,,,,,,,,,training,3,12,0,left,a,,,,,421.0608,421.2762,28.65934808,-0.238830566,-6.313476563,1,0,0,0.2153,fixationPoint,421.2762,421.376,421.3761,422.4096,28.65934808,8188.385164,493.3502062,a,1,1.0243,,422.4098,422.6095,,,,,,,,4,-72,224,112,64,222,113,30,166,-126,-164,-170,-68,-80,-23,20,-161,121,-70,79,-76,-176,122,-77,162,270,360,360,90,90,180,270,180,270,90,90,,,,,,,,,,,422.6096,422.61,,0,43,43,43,1,3,repeated,,,,,,,,,,,,,,,,,,,,,,,,,,,,,,,,,,,,,,,,,,,,,,,,,
,,5,8,${e://Field/PROLIFIC_PID,F,18,2023-11-02_19h19.06.055,MouseEye_CC,2023.2.2,Win32,59.97001499,1.023548146,,,1376,774,36.113,4.52,"438.71, 363.2, 448.12, 419.32, 453.71, 460.2, 149.15",911.26,6.303547598,28.49203514,27.83653633,Passed,95.44831772,,,,,,,,,,,,,,,,,,,,training,3,13,180,right,s,,,,,422.6105,422.8927,28.65934808,-0.238830566,-6.313476563,1,0,0,0.282,fixationPoint,422.8927,422.9935,422.9935,424.9262,28.65934808,8188.385164,493.3502062,s,1,1.92,,424.9264,425.126,,,,,,,,31,-216,64,20,27,74,23,176,69,-64,-67,-168,-174,-70,-117,208,-126,175,-168,73,-20,-29,210,-224,32,180,180,360,90,360,270,270,180,90,270,360,,,,,,,,,,,425.126,425.1263,,0,44,44,44,1,15,novel,,,,,,,,,,,,,,,,,,,,,,,,,,,,,,,,,,,,,,,,,,,,,,,,,
,,5,8,${e://Field/PROLIFIC_PID,F,18,2023-11-02_19h19.06.055,MouseEye_CC,2023.2.2,Win32,59.97001499,1.023548146,,,1376,774,36.113,4.52,"438.71, 363.2, 448.12, 419.32, 453.71, 460.2, 149.15",911.26,6.303547598,28.49203514,27.83653633,Passed,95.44831772,,,,,,,,,,,,,,,,,,,,training,3,14,180,right,s,,,,,425.1269,425.2931,28.65934808,-0.238830566,-6.313476563,1,0,0,0.1659,fixationPoint,425.2932,425.3926,425.3926,430.8263,28.65934808,8188.385164,493.3502062,s,1,5.4169,,430.8264,431.0261,,,,,,,,82,-168,-174,176,69,167,124,78,67,-176,122,-218,124,-21,120,224,-75,165,-19,28,-221,-216,-215,-32,-124,180,180,360,270,90,90,360,180,180,90,90,,,,,,,,,,,431.0261,431.0263,,0,45,45,45,1,5,repeated,,,,,,,,,,,,,,,,,,,,,,,,,,,,,,,,,,,,,,,,,,,,,,,,,
,,5,8,${e://Field/PROLIFIC_PID,F,18,2023-11-02_19h19.06.055,MouseEye_CC,2023.2.2,Win32,59.97001499,1.023548146,,,1376,774,36.113,4.52,"438.71, 363.2, 448.12, 419.32, 453.71, 460.2, 149.15",911.26,6.303547598,28.49203514,27.83653633,Passed,95.44831772,,,,,,,,,,,,,,,,,,,,training,3,15,180,right,s,,,,,431.0269,431.1428,28.65934808,-0.238830566,-6.313476563,1,0,0,0.1156,fixationPoint,431.1429,431.2433,431.2434,432.593,28.65934808,8188.385164,493.3502062,s,1,1.3412,,432.593,432.7931,,,,,,,,19,160,161,-72,224,-176,122,-67,17,-216,-215,-116,-125,-223,-31,165,-19,209,-18,28,-221,126,29,124,172,270,90,180,360,270,360,270,90,90,270,270,,,,,,,,,,,432.7932,432.7934,,0,46,46,46,1,13,novel,,,,,,,,,,,,,,,,,,,,,,,,,,,,,,,,,,,,,,,,,,,,,,,,,
,,5,8,${e://Field/PROLIFIC_PID,F,18,2023-11-02_19h19.06.055,MouseEye_CC,2023.2.2,Win32,59.97001499,1.023548146,,,1376,774,36.113,4.52,"438.71, 363.2, 448.12, 419.32, 453.71, 460.2, 149.15",911.26,6.303547598,28.49203514,27.83653633,Passed,95.44831772,,,,,,,,,,,,,,,,,,,,training,3,16,180,right,s,,,,,432.7941,432.9264,28.65934808,-0.238830566,-6.313476563,1,0,0,0.1322,fixationPoint,432.9265,433.0259,433.026,434.7595,28.65934808,8188.385164,493.3502062,s,1,1.7165,,434.7597,434.9592,,,,,,,,32,-166,79,208,211,20,27,124,172,-68,-209,-73,-165,-80,-23,28,-64,79,-76,73,-20,-31,169,-221,169,90,180,270,360,270,180,360,90,90,90,180,,,,,,,,,,,434.9593,437.9927,space,0,47,47,47,1,16,novel,3.013,,,,,,,,,,,,,,,,,,,,,,,,,,,,,,,,,,,,,,,,,,,,,,,,
,,5,8,${e://Field/PROLIFIC_PID,F,18,2023-11-02_19h19.06.055,MouseEye_CC,2023.2.2,Win32,59.97001499,1.023548146,,,1376,774,36.113,4.52,"438.71, 363.2, 448.12, 419.32, 453.71, 460.2, 149.15",911.26,6.303547598,28.49203514,27.83653633,Passed,95.44831772,,,,,,,,,,,,,,,,,,,,training,4,1,180,right,s,,,,,437.9934,440.1761,28.65934808,-0.238830566,-6.313476563,1,0,0,2.1825,fixationPoint,440.1761,440.2765,440.2765,440.9758,28.65934808,8188.385164,493.3502062,s,1,0.6923,,440.9758,441.176,,,,,,,,69,173,-77,78,67,80,220,167,124,-65,77,-166,79,-174,23,-70,-117,-213,-74,-32,-124,69,-124,216,-224,360,90,270,360,360,360,90,270,90,270,270,,,,,,,,,,,441.1761,441.1795,,0,48,48,48,1,8,repeated,,,,,,,,,,,,,,,,,,,,,,,,,,,,,,,,,,,,,,,,,,,,,,,,,
,,5,8,${e://Field/PROLIFIC_PID,F,18,2023-11-02_19h19.06.055,MouseEye_CC,2023.2.2,Win32,59.97001499,1.023548146,,,1376,774,36.113,4.52,"438.71, 363.2, 448.12, 419.32, 453.71, 460.2, 149.15",911.26,6.303547598,28.49203514,27.83653633,Passed,95.44831772,,,,,,,,,,,,,,,,,,,,training,4,2,0,left,a,,,,,441.1802,441.4425,28.65934808,-0.238830566,-6.313476563,1,0,0,0.262,fixationPoint,441.4426,441.5429,441.5429,442.9591,28.65934808,8188.385164,493.3502062,a,1,1.4062,,442.9593,443.1596,,,,,,,,4,-72,224,112,64,222,113,30,166,-126,-164,-170,-68,-80,-23,20,-161,121,-70,79,-76,-176,122,-77,162,90,90,90,360,180,270,90,180,360,90,180,,,,,,,,,,,443.1596,443.1599,,0,49,49,49,1,3,repeated,,,,,,,,,,,,,,,,,,,,,,,,,,,,,,,,,,,,,,,,,,,,,,,,,
,,5,8,${e://Field/PROLIFIC_PID,F,18,2023-11-02_19h19.06.055,MouseEye_CC,2023.2.2,Win32,59.97001499,1.023548146,,,1376,774,36.113,4.52,"438.71, 363.2, 448.12, 419.32, 453.71, 460.2, 149.15",911.26,6.303547598,28.49203514,27.83653633,Passed,95.44831772,,,,,,,,,,,,,,,,,,,,training,4,3,0,left,a,,,,,443.1606,444.1591,28.65934808,-0.238830566,-6.313476563,1,0,0,0.9983,fixationPoint,444.1593,444.2591,444.2592,445.3762,28.65934808,8188.385164,493.3502062,a,1,1.106,,445.3762,445.5758,,,,,,,,61,-213,-74,20,72,160,161,74,116,-77,162,-72,224,-176,122,224,-75,123,-220,72,-166,-16,-26,-17,-222,360,270,360,180,270,270,270,270,180,90,180,,,,,,,,,,,445.5759,445.5761,,0,50,50,50,1,10,novel,,,,,,,,,,,,,,,,,,,,,,,,,,,,,,,,,,,,,,,,,,,,,,,,,
,,5,8,${e://Field/PROLIFIC_PID,F,18,2023-11-02_19h19.06.055,MouseEye_CC,2023.2.2,Win32,59.97001499,1.023548146,,,1376,774,36.113,4.52,"438.71, 363.2, 448.12, 419.32, 453.71, 460.2, 149.15",911.26,6.303547598,28.49203514,27.83653633,Passed,95.44831772,,,,,,,,,,,,,,,,,,,,training,4,4,180,right,s,,,,,445.5768,445.8591,28.65934808,-0.238830566,-6.313476563,1,0,0,0.282,fixationPoint,445.8592,445.9591,445.9592,447.3928,28.65934808,8188.385164,493.3502062,s,1,1.4173,,447.3928,447.5924,,,,,,,,70,224,-75,112,64,213,32,20,27,-224,32,-31,169,-119,213,-173,-216,-126,-216,-116,-125,69,-124,165,-19,180,180,360,90,360,360,360,270,270,90,180,,,,,,,,,,,447.5925,447.5927,,0,51,51,51,1,7,repeated,,,,,,,,,,,,,,,,,,,,,,,,,,,,,,,,,,,,,,,,,,,,,,,,,
,,5,8,${e://Field/PROLIFIC_PID,F,18,2023-11-02_19h19.06.055,MouseEye_CC,2023.2.2,Win32,59.97001499,1.023548146,,,1376,774,36.113,4.52,"438.71, 363.2, 448.12, 419.32, 453.71, 460.2, 149.15",911.26,6.303547598,28.49203514,27.83653633,Passed,95.44831772,,,,,,,,,,,,,,,,,,,,training,4,5,0,left,a,,,,,447.5933,447.8591,28.65934808,-0.238830566,-6.313476563,1,0,0,0.2655,fixationPoint,447.8592,447.9592,447.9593,451.8757,28.65934808,8188.385164,493.3502062,a,1,3.9065,,451.8758,452.0756,,,,,,,,19,160,161,-224,32,-119,213,-29,210,-173,-114,-68,-209,-216,-215,164,-211,28,-64,121,-70,209,72,80,220,90,270,180,360,270,270,360,360,180,360,90,,,,,,,,,,,452.0757,452.0759,,0,52,52,52,1,13,novel,,,,,,,,,,,,,,,,,,,,,,,,,,,,,,,,,,,,,,,,,,,,,,,,,
,,5,8,${e://Field/PROLIFIC_PID,F,18,2023-11-02_19h19.06.055,MouseEye_CC,2023.2.2,Win32,59.97001499,1.023548146,,,1376,774,36.113,4.52,"438.71, 363.2, 448.12, 419.32, 453.71, 460.2, 149.15",911.26,6.303547598,28.49203514,27.83653633,Passed,95.44831772,,,,,,,,,,,,,,,,,,,,training,4,6,180,right,s,,,,,452.0766,452.2422,28.65934808,-0.238830566,-6.313476563,1,0,0,0.1655,fixationPoint,452.2424,452.3423,452.3423,458.6424,28.65934808,8188.385164,493.3502062,s,1,6.293,,458.6424,458.8423,,,,,,,,97,69,-220,175,28,112,64,20,72,-166,79,-67,17,-119,213,-170,-32,-70,-117,-30,-161,168,-121,164,-211,360,360,180,90,180,180,180,360,270,360,180,,,,,,,,,,,458.8424,458.8425,,0,53,53,53,1,11,novel,,,,,,,,,,,,,,,,,,,,,,,,,,,,,,,,,,,,,,,,,,,,,,,,,
,,5,8,${e://Field/PROLIFIC_PID,F,18,2023-11-02_19h19.06.055,MouseEye_CC,2023.2.2,Win32,59.97001499,1.023548146,,,1376,774,36.113,4.52,"438.71, 363.2, 448.12, 419.32, 453.71, 460.2, 149.15",911.26,6.303547598,28.49203514,27.83653633,Passed,95.44831772,,,,,,,,,,,,,,,,,,,,training,4,7,0,left,a,,,,,458.8432,458.9588,28.65934808,-0.238830566,-6.313476563,1,0,0,0.1154,fixationPoint,458.9589,459.0587,459.0588,460.9924,28.65934808,8188.385164,493.3502062,a,1,1.9212,,460.9925,461.1923,,,,,,,,31,-216,64,76,165,176,69,222,113,-73,-165,-223,-31,-80,-23,119,-172,209,-18,69,-124,-218,124,-213,222,180,270,270,180,270,90,180,270,180,90,90,,,,,,,,,,,461.1924,461.1927,,0,54,54,54,1,15,novel,,,,,,,,,,,,,,,,,,,,,,,,,,,,,,,,,,,,,,,,,,,,,,,,,
,,5,8,${e://Field/PROLIFIC_PID,F,18,2023-11-02_19h19.06.055,MouseEye_CC,2023.2.2,Win32,59.97001499,1.023548146,,,1376,774,36.113,4.52,"438.71, 363.2, 448.12, 419.32, 453.71, 460.2, 149.15",911.26,6.303547598,28.49203514,27.83653633,Passed,95.44831772,,,,,,,,,,,,,,,,,,,,training,4,8,0,left,a,,,,,461.1933,461.3088,28.65934808,-0.238830566,-6.313476563,1,0,0,0.1154,fixationPoint,461.3089,461.4088,461.4088,464.4759,28.65934808,8188.385164,493.3502062,a,1,3.0611,,464.4759,464.6758,,,,,,,,32,-166,79,213,32,20,72,175,28,-68,-209,-126,-164,-126,-216,28,-221,216,-224,69,-220,-72,224,-224,32,270,360,270,90,180,180,180,90,270,270,270,,,,,,,,,,,464.6759,464.6761,,0,55,55,55,1,16,novel,,,,,,,,,,,,,,,,,,,,,,,,,,,,,,,,,,,,,,,,,,,,,,,,,
,,5,8,${e://Field/PROLIFIC_PID,F,18,2023-11-02_19h19.06.055,MouseEye_CC,2023.2.2,Win32,59.97001499,1.023548146,,,1376,774,36.113,4.52,"438.71, 363.2, 448.12, 419.32, 453.71, 460.2, 149.15",911.26,6.303547598,28.49203514,27.83653633,Passed,95.44831772,,,,,,,,,,,,,,,,,,,,training,4,9,180,right,s,,,,,464.6769,464.7921,28.65934808,-0.238830566,-6.313476563,1,0,0,0.1151,fixationPoint,464.7923,464.8924,464.8924,466.0091,28.65934808,8188.385164,493.3502062,a,0,1.0987,,466.0091,470.0085,,,,,,,,71,-218,-127,208,211,124,172,125,118,-176,122,-224,32,-216,64,28,-221,215,-168,28,-24,-80,-23,-223,-31,360,360,90,360,270,360,180,180,270,360,270,,,,,,,,,,,470.0086,470.0237,,0,56,56,56,1,6,repeated,,,,,,,,,,,,,,,,,,,,,,,,,,,,,,,,,,,,,,,,,,,,,,,,,
,,5,8,${e://Field/PROLIFIC_PID,F,18,2023-11-02_19h19.06.055,MouseEye_CC,2023.2.2,Win32,59.97001499,1.023548146,,,1376,774,36.113,4.52,"438.71, 363.2, 448.12, 419.32, 453.71, 460.2, 149.15",911.26,6.303547598,28.49203514,27.83653633,Passed,95.44831772,,,,,,,,,,,,,,,,,,,,training,4,10,0,left,a,,,,,470.0243,470.6593,28.65934808,-0.238830566,-6.313476563,1,0,0,0.6349,fixationPoint,470.6594,470.759,470.7591,474.8587,28.65934808,8188.385164,493.3502062,a,1,4.084,,474.8587,475.0594,,,,,,,,82,-168,-174,176,69,167,124,78,67,-176,122,-218,124,-21,120,224,-75,165,-19,28,-221,-216,-215,-32,-124,90,360,180,360,360,90,90,270,180,180,270,,,,,,,,,,,475.0595,475.0596,,0,57,57,57,1,5,repeated,,,,,,,,,,,,,,,,,,,,,,,,,,,,,,,,,,,,,,,,,,,,,,,,,
,,5,8,${e://Field/PROLIFIC_PID,F,18,2023-11-02_19h19.06.055,MouseEye_CC,2023.2.2,Win32,59.97001499,1.023548146,,,1376,774,36.113,4.52,"438.71, 363.2, 448.12, 419.32, 453.71, 460.2, 149.15",911.26,6.303547598,28.49203514,27.83653633,Passed,95.44831772,,,,,,,,,,,,,,,,,,,,training,4,11,180,right,s,,,,,475.0603,475.242,28.65934808,-0.238830566,-6.313476563,1,0,0,0.1815,fixationPoint,475.2421,475.3421,475.3422,476.5586,28.65934808,8188.385164,493.3502062,s,1,1.2089,,476.5587,476.7584,,,,,,,,30,222,113,-120,120,-28,79,-29,210,-223,-31,-64,-67,-213,-74,79,-76,119,-172,27,-120,208,211,30,166,180,90,90,180,180,360,180,90,90,270,360,,,,,,,,,,,476.7585,476.7588,,0,58,58,58,1,14,novel,,,,,,,,,,,,,,,,,,,,,,,,,,,,,,,,,,,,,,,,,,,,,,,,,
,,5,8,${e://Field/PROLIFIC_PID,F,18,2023-11-02_19h19.06.055,MouseEye_CC,2023.2.2,Win32,59.97001499,1.023548146,,,1376,774,36.113,4.52,"438.71, 363.2, 448.12, 419.32, 453.71, 460.2, 149.15",911.26,6.303547598,28.49203514,27.83653633,Passed,95.44831772,,,,,,,,,,,,,,,,,,,,training,4,12,0,left,a,,,,,476.7594,477.5253,28.65934808,-0.238830566,-6.313476563,1,0,0,0.7655,fixationPoint,477.5254,477.6254,477.6254,480.8418,28.65934808,8188.385164,493.3502062,a,1,3.2092,,480.8419,481.0417,,,,,,,,41,-224,32,160,161,30,166,125,118,-173,-114,-126,-164,-16,-26,119,-172,28,-221,112,-32,-174,23,-213,222,180,270,270,90,360,90,90,360,90,180,360,,,,,,,,,,,481.0419,481.0421,,0,59,59,59,1,4,repeated,,,,,,,,,,,,,,,,,,,,,,,,,,,,,,,,,,,,,,,,,,,,,,,,,
,,5,8,${e://Field/PROLIFIC_PID,F,18,2023-11-02_19h19.06.055,MouseEye_CC,2023.2.2,Win32,59.97001499,1.023548146,,,1376,774,36.113,4.52,"438.71, 363.2, 448.12, 419.32, 453.71, 460.2, 149.15",911.26,6.303547598,28.49203514,27.83653633,Passed,95.44831772,,,,,,,,,,,,,,,,,,,,training,4,13,0,left,a,,,,,481.0428,481.1922,28.65934808,-0.238830566,-6.313476563,1,0,0,0.1493,fixationPoint,481.1923,481.2922,481.2923,485.4753,28.65934808,8188.385164,493.3502062,a,1,4.1732,,485.4754,485.6751,,,,,,,,17,76,165,-216,64,-116,160,-218,124,-68,-209,-114,-32,-170,-68,209,-18,173,-77,119,-172,176,69,160,161,360,180,180,90,360,90,270,360,360,270,360,,,,,,,,,,,485.6751,485.6753,,0,60,60,60,1,1,repeated,,,,,,,,,,,,,,,,,,,,,,,,,,,,,,,,,,,,,,,,,,,,,,,,,
,,5,8,${e://Field/PROLIFIC_PID,F,18,2023-11-02_19h19.06.055,MouseEye_CC,2023.2.2,Win32,59.97001499,1.023548146,,,1376,774,36.113,4.52,"438.71, 363.2, 448.12, 419.32, 453.71, 460.2, 149.15",911.26,6.303547598,28.49203514,27.83653633,Passed,95.44831772,,,,,,,,,,,,,,,,,,,,training,4,14,180,right,s,,,,,485.676,485.8424,28.65934808,-0.238830566,-6.313476563,1,0,0,0.1662,fixationPoint,485.8425,485.9417,485.9418,487.3422,28.65934808,8188.385164,493.3502062,s,1,1.3834,,487.3422,487.5416,,,,,,,,84,-73,-165,20,27,25,112,209,72,-218,124,-28,79,-65,77,224,-75,28,-24,121,-70,-216,-215,-114,-32,180,360,180,360,360,180,90,180,270,360,270,,,,,,,,,,,487.5416,487.5418,,0,61,61,61,1,9,novel,,,,,,,,,,,,,,,,,,,,,,,,,,,,,,,,,,,,,,,,,,,,,,,,,
,,5,8,${e://Field/PROLIFIC_PID,F,18,2023-11-02_19h19.06.055,MouseEye_CC,2023.2.2,Win32,59.97001499,1.023548146,,,1376,774,36.113,4.52,"438.71, 363.2, 448.12, 419.32, 453.71, 460.2, 149.15",911.26,6.303547598,28.49203514,27.83653633,Passed,95.44831772,,,,,,,,,,,,,,,,,,,,training,4,15,180,right,s,,,,,487.5424,487.7085,28.65934808,-0.238830566,-6.313476563,1,0,0,0.166,fixationPoint,487.7085,487.8084,487.8085,489.9923,28.65934808,8188.385164,493.3502062,s,1,2.167,,489.9924,490.1916,,,,,,,,40,209,72,-221,169,-116,74,-29,210,-218,-127,-70,-117,-173,-114,209,-18,224,-75,28,-64,112,64,160,161,180,360,180,270,360,270,360,360,180,90,360,,,,,,,,,,,490.1917,490.1919,,0,62,62,62,1,2,repeated,,,,,,,,,,,,,,,,,,,,,,,,,,,,,,,,,,,,,,,,,,,,,,,,,
,,5,8,${e://Field/PROLIFIC_PID,F,18,2023-11-02_19h19.06.055,MouseEye_CC,2023.2.2,Win32,59.97001499,1.023548146,,,1376,774,36.113,4.52,"438.71, 363.2, 448.12, 419.32, 453.71, 460.2, 149.15",911.26,6.303547598,28.49203514,27.83653633,Passed,95.44831772,,,,,,,,,,,,,,,,,,,,training,4,16,180,right,s,,,,,490.1925,490.6749,28.65934808,-0.238830566,-6.313476563,1,0,0,0.4821,fixationPoint,490.675,490.7748,490.7749,493.6088,28.65934808,8188.385164,493.3502062,s,1,2.8186,,493.6089,493.8084,,,,,,,,60,209,-18,80,220,124,215,74,116,-116,160,-221,169,-120,120,-114,-32,-216,-215,-73,-165,208,-126,79,-76,360,180,270,270,180,180,180,180,270,360,360,,,,,,,,,,,493.8085,498.6583,space,0,63,63,63,1,12,novel,4.8277,,,,,,,,,,,,,,,,,,,,,,,,,,,,,,,,,,,,,,,,,,,,,,,,
,,5,8,${e://Field/PROLIFIC_PID,F,18,2023-11-02_19h19.06.055,MouseEye_CC,2023.2.2,Win32,59.97001499,1.023548146,,,1376,774,36.113,4.52,"438.71, 363.2, 448.12, 419.32, 453.71, 460.2, 149.15",911.26,6.303547598,28.49203514,27.83653633,Passed,95.44831772,,,,,,,,,,,,,,,,,,,,training,5,1,0,left,a,,,,,498.6732,499.3416,28.65934808,-0.238830566,-6.313476563,1,0,0,0.6682,fixationPoint,499.3417,499.4414,499.4414,500.4083,28.65934808,8188.385164,493.3502062,a,1,0.9606,,500.4085,500.6082,,,,,,,,69,173,-77,78,67,80,220,167,124,-65,77,-166,79,-174,23,-70,-117,-213,-74,-32,-124,69,-124,216,-224,180,90,180,180,270,180,270,180,90,90,270,,,,,,,,,,,500.6082,500.6103,,0,64,64,64,1,8,repeated,,,,,,,,,,,,,,,,,,,,,,,,,,,,,,,,,,,,,,,,,,,,,,,,,
,,5,8,${e://Field/PROLIFIC_PID,F,18,2023-11-02_19h19.06.055,MouseEye_CC,2023.2.2,Win32,59.97001499,1.023548146,,,1376,774,36.113,4.52,"438.71, 363.2, 448.12, 419.32, 453.71, 460.2, 149.15",911.26,6.303547598,28.49203514,27.83653633,Passed,95.44831772,,,,,,,,,,,,,,,,,,,,training,5,2,180,right,s,,,,,500.6108,500.9249,28.65934808,3.343261719,-10.61193848,1,0,0,0.3138,fixationPoint,500.925,501.0251,501.0252,502.3081,28.65934808,8188.385164,493.3502062,s,1,1.272,,502.3082,502.5081,,,,,,,,71,-218,-127,208,211,124,172,125,118,-176,122,-224,32,-216,64,28,-221,215,-168,28,-24,-80,-23,-223,-31,180,270,180,360,180,270,180,90,360,90,180,,,,,,,,,,,502.5083,502.5086,,0,65,65,65,1,6,repeated,,,,,,,,,,,,,,,,,,,,,,,,,,,,,,,,,,,,,,,,,,,,,,,,,
,,5,8,${e://Field/PROLIFIC_PID,F,18,2023-11-02_19h19.06.055,MouseEye_CC,2023.2.2,Win32,59.97001499,1.023548146,,,1376,774,36.113,4.52,"438.71, 363.2, 448.12, 419.32, 453.71, 460.2, 149.15",911.26,6.303547598,28.49203514,27.83653633,Passed,95.44831772,,,,,,,,,,,,,,,,,,,,training,5,3,180,right,s,,,,,502.5093,502.8915,28.65934808,3.343261719,-10.61193848,1,0,0,0.3819,fixationPoint,502.8916,502.9914,502.9914,504.3416,28.65934808,8188.385164,493.3502062,s,1,1.333,,504.3417,504.5417,,,,,,,,41,-224,32,160,161,30,166,125,118,-173,-114,-126,-164,-16,-26,119,-172,28,-221,112,-32,-174,23,-213,222,270,90,180,180,180,90,180,90,360,180,360,,,,,,,,,,,504.5418,504.542,,0,66,66,66,1,4,repeated,,,,,,,,,,,,,,,,,,,,,,,,,,,,,,,,,,,,,,,,,,,,,,,,,
,,5,8,${e://Field/PROLIFIC_PID,F,18,2023-11-02_19h19.06.055,MouseEye_CC,2023.2.2,Win32,59.97001499,1.023548146,,,1376,774,36.113,4.52,"438.71, 363.2, 448.12, 419.32, 453.71, 460.2, 149.15",911.26,6.303547598,28.49203514,27.83653633,Passed,95.44831772,,,,,,,,,,,,,,,,,,,,training,5,4,180,right,s,,,,,504.5425,504.708,28.65934808,3.343261719,-10.61193848,1,0,0,0.1653,fixationPoint,504.708,504.8082,504.8083,505.9081,28.65934808,8188.385164,493.3502062,s,1,1.0825,,505.9082,506.1078,,,,,,,,61,-213,-74,20,72,80,220,167,124,-67,17,-29,210,-166,79,117,-124,28,-221,173,-77,-214,-170,-173,-216,180,90,360,180,270,270,90,90,180,180,270,,,,,,,,,,,506.1079,506.1082,,0,67,67,67,1,10,novel,,,,,,,,,,,,,,,,,,,,,,,,,,,,,,,,,,,,,,,,,,,,,,,,,
,,5,8,${e://Field/PROLIFIC_PID,F,18,2023-11-02_19h19.06.055,MouseEye_CC,2023.2.2,Win32,59.97001499,1.023548146,,,1376,774,36.113,4.52,"438.71, 363.2, 448.12, 419.32, 453.71, 460.2, 149.15",911.26,6.303547598,28.49203514,27.83653633,Passed,95.44831772,,,,,,,,,,,,,,,,,,,,training,5,5,0,left,a,,,,,506.1088,506.325,28.65934808,3.343261719,-10.61193848,1,0,0,0.2159,fixationPoint,506.325,506.4251,506.4251,507.8581,28.65934808,8188.385164,493.3502062,a,1,1.4233,,507.8582,508.0581,,,,,,,,82,-168,-174,176,69,167,124,78,67,-176,122,-218,124,-21,120,224,-75,165,-19,28,-221,-216,-215,-32,-124,90,180,180,360,270,360,270,270,360,90,180,,,,,,,,,,,508.0582,508.0584,,0,68,68,68,1,5,repeated,,,,,,,,,,,,,,,,,,,,,,,,,,,,,,,,,,,,,,,,,,,,,,,,,
,,5,8,${e://Field/PROLIFIC_PID,F,18,2023-11-02_19h19.06.055,MouseEye_CC,2023.2.2,Win32,59.97001499,1.023548146,,,1376,774,36.113,4.52,"438.71, 363.2, 448.12, 419.32, 453.71, 460.2, 149.15",911.26,6.303547598,28.49203514,27.83653633,Passed,95.44831772,,,,,,,,,,,,,,,,,,,,training,5,6,0,left,a,,,,,508.0589,509.0418,28.65934808,3.343261719,-10.61193848,1,0,0,0.9827,fixationPoint,509.0418,509.1412,509.1413,511.3413,28.65934808,8188.385164,493.3502062,a,1,2.1868,,511.3414,511.5411,,,,,,,,60,209,-18,208,211,209,72,74,116,-21,120,-221,169,-28,79,-223,-31,-73,-165,-124,-69,112,-32,173,-77,180,90,360,90,180,180,360,270,360,90,180,,,,,,,,,,,511.5413,511.5415,,0,69,69,69,1,12,novel,,,,,,,,,,,,,,,,,,,,,,,,,,,,,,,,,,,,,,,,,,,,,,,,,
,,5,8,${e://Field/PROLIFIC_PID,F,18,2023-11-02_19h19.06.055,MouseEye_CC,2023.2.2,Win32,59.97001499,1.023548146,,,1376,774,36.113,4.52,"438.71, 363.2, 448.12, 419.32, 453.71, 460.2, 149.15",911.26,6.303547598,28.49203514,27.83653633,Passed,95.44831772,,,,,,,,,,,,,,,,,,,,training,5,7,180,right,s,,,,,511.5423,511.9246,28.65934808,-3.104492188,-6.313476563,1,0,0,0.3821,fixationPoint,511.9247,512.0247,512.0247,513.008,28.65934808,8188.385164,493.3502062,s,1,0.9706,,513.008,513.2081,,,,,,,,19,160,161,-174,217,-218,124,-67,17,-170,-68,-126,-164,-218,-127,28,-221,121,-70,119,-172,25,112,208,211,90,90,270,90,180,90,90,180,270,360,90,,,,,,,,,,,513.2081,513.2084,,0,70,70,70,1,13,novel,,,,,,,,,,,,,,,,,,,,,,,,,,,,,,,,,,,,,,,,,,,,,,,,,
,,5,8,${e://Field/PROLIFIC_PID,F,18,2023-11-02_19h19.06.055,MouseEye_CC,2023.2.2,Win32,59.97001499,1.023548146,,,1376,774,36.113,4.52,"438.71, 363.2, 448.12, 419.32, 453.71, 460.2, 149.15",911.26,6.303547598,28.49203514,27.83653633,Passed,95.44831772,,,,,,,,,,,,,,,,,,,,training,5,8,180,right,s,,,,,513.2091,513.4918,28.65934808,-3.104492188,-6.313476563,1,0,0,0.2826,fixationPoint,513.4919,513.5915,513.5916,515.0747,28.65934808,8188.385164,493.3502062,s,1,1.4679,,515.0748,515.2747,,,,,,,,32,-166,79,213,32,74,116,209,167,-73,-165,-124,-69,-80,-23,216,-224,69,-124,121,-70,-28,79,-116,160,180,90,270,270,360,90,270,270,90,360,90,,,,,,,,,,,515.2747,515.2749,,0,71,71,71,1,16,novel,,,,,,,,,,,,,,,,,,,,,,,,,,,,,,,,,,,,,,,,,,,,,,,,,
,,5,8,${e://Field/PROLIFIC_PID,F,18,2023-11-02_19h19.06.055,MouseEye_CC,2023.2.2,Win32,59.97001499,1.023548146,,,1376,774,36.113,4.52,"438.71, 363.2, 448.12, 419.32, 453.71, 460.2, 149.15",911.26,6.303547598,28.49203514,27.83653633,Passed,95.44831772,,,,,,,,,,,,,,,,,,,,training,5,9,0,left,a,,,,,515.2758,515.4414,28.65934808,-3.104492188,-6.313476563,1,0,0,0.1651,fixationPoint,515.4414,515.5416,515.5416,516.9748,28.65934808,8188.385164,493.3502062,a,1,1.4236,,516.9749,517.1745,,,,,,,,84,-73,-165,78,67,20,27,208,211,-19,16,-176,122,-77,162,123,-220,119,-172,27,-120,-30,-161,-126,-164,270,270,360,180,180,270,270,90,180,270,180,,,,,,,,,,,517.1746,517.1749,,0,72,72,72,1,9,novel,,,,,,,,,,,,,,,,,,,,,,,,,,,,,,,,,,,,,,,,,,,,,,,,,
,,5,8,${e://Field/PROLIFIC_PID,F,18,2023-11-02_19h19.06.055,MouseEye_CC,2023.2.2,Win32,59.97001499,1.023548146,,,1376,774,36.113,4.52,"438.71, 363.2, 448.12, 419.32, 453.71, 460.2, 149.15",911.26,6.303547598,28.49203514,27.83653633,Passed,95.44831772,,,,,,,,,,,,,,,,,,,,training,5,10,0,left,a,,,,,517.1755,517.4746,28.65934808,-3.104492188,-6.313476563,1,0,0,0.2989,fixationPoint,517.4746,517.575,517.5751,520.1751,28.65934808,8188.385164,493.3502062,a,1,2.5868,,520.1753,520.3749,,,,,,,,40,209,72,-221,169,-116,74,-29,210,-218,-127,-70,-117,-173,-114,209,-18,224,-75,28,-64,112,64,160,161,90,90,270,360,90,360,270,180,360,360,360,,,,,,,,,,,520.3749,520.3752,,0,73,73,73,1,2,repeated,,,,,,,,,,,,,,,,,,,,,,,,,,,,,,,,,,,,,,,,,,,,,,,,,
,,5,8,${e://Field/PROLIFIC_PID,F,18,2023-11-02_19h19.06.055,MouseEye_CC,2023.2.2,Win32,59.97001499,1.023548146,,,1376,774,36.113,4.52,"438.71, 363.2, 448.12, 419.32, 453.71, 460.2, 149.15",911.26,6.303547598,28.49203514,27.83653633,Passed,95.44831772,,,,,,,,,,,,,,,,,,,,training,5,11,180,right,s,,,,,520.3758,521.2912,28.65934808,-3.104492188,-6.313476563,1,0,0,0.9152,fixationPoint,521.2913,521.391,521.3911,522.9416,28.65934808,8188.385164,493.3502062,s,1,1.5369,,522.9417,523.1411,,,,,,,,70,224,-75,112,64,213,32,20,27,-224,32,-31,169,-119,213,-173,-216,-126,-216,-116,-125,69,-124,165,-19,180,180,270,90,270,360,90,360,270,180,360,,,,,,,,,,,523.1413,523.1414,,0,74,74,74,1,7,repeated,,,,,,,,,,,,,,,,,,,,,,,,,,,,,,,,,,,,,,,,,,,,,,,,,
,,5,8,${e://Field/PROLIFIC_PID,F,18,2023-11-02_19h19.06.055,MouseEye_CC,2023.2.2,Win32,59.97001499,1.023548146,,,1376,774,36.113,4.52,"438.71, 363.2, 448.12, 419.32, 453.71, 460.2, 149.15",911.26,6.303547598,28.49203514,27.83653633,Passed,95.44831772,,,,,,,,,,,,,,,,,,,,training,5,12,180,right,s,,,,,523.1421,523.4412,28.65934808,-3.104492188,-6.313476563,1,0,0,0.2989,fixationPoint,523.4413,523.5412,523.5412,526.3413,28.65934808,8188.385164,493.3502062,s,1,2.7881,,526.3414,526.5414,,,,,,,,97,69,-220,160,161,76,165,78,67,-128,16,-116,160,-120,120,-124,-69,-173,-114,-32,-124,173,-77,28,-64,90,90,270,90,360,360,180,270,90,360,270,,,,,,,,,,,526.5414,526.5417,,0,75,75,75,1,11,novel,,,,,,,,,,,,,,,,,,,,,,,,,,,,,,,,,,,,,,,,,,,,,,,,,
,,5,8,${e://Field/PROLIFIC_PID,F,18,2023-11-02_19h19.06.055,MouseEye_CC,2023.2.2,Win32,59.97001499,1.023548146,,,1376,774,36.113,4.52,"438.71, 363.2, 448.12, 419.32, 453.71, 460.2, 149.15",911.26,6.303547598,28.49203514,27.83653633,Passed,95.44831772,,,,,,,,,,,,,,,,,,,,training,5,13,0,left,a,,,,,526.5424,526.6579,28.65934808,-3.104492188,-6.313476563,1,0,0,0.1154,fixationPoint,526.658,526.7581,526.7581,527.9745,28.65934808,8188.385164,493.3502062,a,1,1.1993,,527.9746,528.1745,,,,,,,,31,-216,64,20,72,25,112,125,118,-32,-124,-80,-23,-64,-67,165,-19,28,-24,168,-121,-213,222,-172,170,90,360,270,180,180,180,90,180,180,360,90,,,,,,,,,,,528.1746,528.1749,,0,76,76,76,1,15,novel,,,,,,,,,,,,,,,,,,,,,,,,,,,,,,,,,,,,,,,,,,,,,,,,,
,,5,8,${e://Field/PROLIFIC_PID,F,18,2023-11-02_19h19.06.055,MouseEye_CC,2023.2.2,Win32,59.97001499,1.023548146,,,1376,774,36.113,4.52,"438.71, 363.2, 448.12, 419.32, 453.71, 460.2, 149.15",911.26,6.303547598,28.49203514,27.83653633,Passed,95.44831772,,,,,,,,,,,,,,,,,,,,training,5,14,180,right,s,,,,,528.1754,528.391,28.65934808,-3.104492188,-6.313476563,1,0,0,0.2155,fixationPoint,528.3911,528.4909,528.491,532.0247,28.65934808,8188.385164,493.3502062,s,1,3.5255,,532.0248,532.2276,,,,,,,,4,-72,224,112,64,222,113,30,166,-126,-164,-170,-68,-80,-23,20,-161,121,-70,79,-76,-176,122,-77,162,180,90,270,90,270,90,90,90,180,360,270,,,,,,,,,,,532.2278,532.2279,,0,77,77,77,1,3,repeated,,,,,,,,,,,,,,,,,,,,,,,,,,,,,,,,,,,,,,,,,,,,,,,,,
,,5,8,${e://Field/PROLIFIC_PID,F,18,2023-11-02_19h19.06.055,MouseEye_CC,2023.2.2,Win32,59.97001499,1.023548146,,,1376,774,36.113,4.52,"438.71, 363.2, 448.12, 419.32, 453.71, 460.2, 149.15",911.26,6.303547598,28.49203514,27.83653633,Passed,95.44831772,,,,,,,,,,,,,,,,,,,,training,5,15,0,left,a,,,,,532.2287,532.4117,28.65934808,-3.104492188,-6.313476563,1,0,0,0.1828,fixationPoint,532.4117,532.5114,532.5116,533.4579,28.65934808,8188.385164,493.3502062,a,1,0.9234,,533.4579,533.6574,,,,,,,,30,222,113,-120,120,-21,120,-176,122,-214,-170,-218,-127,-126,-164,73,-20,119,-172,215,-168,20,27,20,72,270,360,90,90,270,180,180,270,360,90,180,,,,,,,,,,,533.6575,533.6578,,0,78,78,78,1,14,novel,,,,,,,,,,,,,,,,,,,,,,,,,,,,,,,,,,,,,,,,,,,,,,,,,
,,5,8,${e://Field/PROLIFIC_PID,F,18,2023-11-02_19h19.06.055,MouseEye_CC,2023.2.2,Win32,59.97001499,1.023548146,,,1376,774,36.113,4.52,"438.71, 363.2, 448.12, 419.32, 453.71, 460.2, 149.15",911.26,6.303547598,28.49203514,27.83653633,Passed,95.44831772,,,,,,,,,,,,,,,,,,,,training,5,16,0,left,a,,,,,533.6586,533.8576,28.65934808,-3.104492188,-6.313476563,1,0,0,0.1988,fixationPoint,533.8577,533.9576,533.9577,535.2578,28.65934808,8188.385164,493.3502062,a,1,1.2683,,535.2579,535.4576,,,,,,,,17,76,165,-216,64,-116,160,-218,124,-68,-209,-114,-32,-170,-68,209,-18,173,-77,119,-172,176,69,160,161,360,180,360,360,90,90,90,180,180,180,360,,,,,,,,,,,535.4578,543.478,space,0,79,79,79,1,1,repeated,7.9992,,,,,,,,,,,,,,,,,,,,,,,,,,,,,,,,,,,,,,,,,,,,,,,,
,,5,8,${e://Field/PROLIFIC_PID,F,18,2023-11-02_19h19.06.055,MouseEye_CC,2023.2.2,Win32,59.97001499,1.023548146,,,1376,774,36.113,4.52,"438.71, 363.2, 448.12, 419.32, 453.71, 460.2, 149.15",911.26,6.303547598,28.49203514,27.83653633,Passed,95.44831772,,,,,,,,,,,,,,,,,,,,training,6,1,0,left,a,,,,,543.4941,544.5775,28.65934808,-6.686584473,-11.32839966,1,0,0,1.0832,fixationPoint,544.5775,544.6771,544.6772,546.1076,28.65934808,8188.385164,493.3502062,a,1,1.4137,,546.1077,546.3102,,,,,,,,97,69,-220,164,219,20,72,125,118,-67,17,-224,32,-172,170,-223,-31,-213,-74,-116,-125,121,-70,164,-211,90,90,90,90,270,180,180,270,270,90,360,,,,,,,,,,,546.3102,546.3124,,0,80,80,80,1,11,novel,,,,,,,,,,,,,,,,,,,,,,,,,,,,,,,,,,,,,,,,,,,,,,,,,
,,5,8,${e://Field/PROLIFIC_PID,F,18,2023-11-02_19h19.06.055,MouseEye_CC,2023.2.2,Win32,59.97001499,1.023548146,,,1376,774,36.113,4.52,"438.71, 363.2, 448.12, 419.32, 453.71, 460.2, 149.15",911.26,6.303547598,28.49203514,27.83653633,Passed,95.44831772,,,,,,,,,,,,,,,,,,,,training,6,2,0,left,a,,,,,546.313,546.6909,28.65934808,-1.671569824,-4.16418457,1,0,0,0.3777,fixationPoint,546.6911,546.7913,546.7915,548.1077,28.65934808,8188.385164,493.3502062,a,1,1.2885,,548.1079,548.3102,,,,,,,,31,-216,64,126,29,164,219,78,67,-68,-209,-216,-215,-173,-216,72,-166,20,-161,28,-64,-116,160,-166,79,180,360,180,90,360,360,180,360,180,180,90,,,,,,,,,,,548.3103,548.3106,,0,81,81,81,1,15,novel,,,,,,,,,,,,,,,,,,,,,,,,,,,,,,,,,,,,,,,,,,,,,,,,,
,,5,8,${e://Field/PROLIFIC_PID,F,18,2023-11-02_19h19.06.055,MouseEye_CC,2023.2.2,Win32,59.97001499,1.023548146,,,1376,774,36.113,4.52,"438.71, 363.2, 448.12, 419.32, 453.71, 460.2, 149.15",911.26,6.303547598,28.49203514,27.83653633,Passed,95.44831772,,,,,,,,,,,,,,,,,,,,training,6,3,180,right,s,,,,,548.3113,548.524,28.65934808,-1.671569824,-4.16418457,1,0,0,0.2125,fixationPoint,548.5241,548.6242,548.6243,551.6275,28.65934808,8188.385164,493.3502062,s,1,2.9837,,551.6276,551.827,,,,,,,,71,-218,-127,208,211,124,172,125,118,-176,122,-224,32,-216,64,28,-221,215,-168,28,-24,-80,-23,-223,-31,270,90,360,180,270,180,360,180,180,360,360,,,,,,,,,,,551.827,551.8272,,0,82,82,82,1,6,repeated,,,,,,,,,,,,,,,,,,,,,,,,,,,,,,,,,,,,,,,,,,,,,,,,,
,,5,8,${e://Field/PROLIFIC_PID,F,18,2023-11-02_19h19.06.055,MouseEye_CC,2023.2.2,Win32,59.97001499,1.023548146,,,1376,774,36.113,4.52,"438.71, 363.2, 448.12, 419.32, 453.71, 460.2, 149.15",911.26,6.303547598,28.49203514,27.83653633,Passed,95.44831772,,,,,,,,,,,,,,,,,,,,training,6,4,180,right,s,,,,,551.8278,551.9914,28.65934808,-1.671569824,-4.16418457,1,0,0,0.1632,fixationPoint,551.9915,552.0907,552.0908,554.561,28.65934808,8188.385164,493.3502062,s,1,2.451,,554.5611,554.7599,,,,,,,,84,-73,-165,124,172,125,118,208,211,-166,79,-120,120,-174,23,20,-161,119,-172,216,-224,-114,-32,-223,-31,270,360,180,360,270,360,360,180,90,360,270,,,,,,,,,,,554.76,554.7602,,0,83,83,83,1,9,novel,,,,,,,,,,,,,,,,,,,,,,,,,,,,,,,,,,,,,,,,,,,,,,,,,
,,5,8,${e://Field/PROLIFIC_PID,F,18,2023-11-02_19h19.06.055,MouseEye_CC,2023.2.2,Win32,59.97001499,1.023548146,,,1376,774,36.113,4.52,"438.71, 363.2, 448.12, 419.32, 453.71, 460.2, 149.15",911.26,6.303547598,28.49203514,27.83653633,Passed,95.44831772,,,,,,,,,,,,,,,,,,,,training,6,5,0,left,a,,,,,554.7609,554.9579,28.65934808,-1.671569824,-4.16418457,1,0,0,0.1965,fixationPoint,554.958,555.0576,555.0577,557.591,28.65934808,8188.385164,493.3502062,a,1,2.5016,,557.5912,557.7907,,,,,,,,17,76,165,-216,64,-116,160,-218,124,-68,-209,-114,-32,-170,-68,209,-18,173,-77,119,-172,176,69,160,161,270,90,180,90,360,90,180,360,90,90,180,,,,,,,,,,,557.7909,557.7913,,0,84,84,84,1,1,repeated,,,,,,,,,,,,,,,,,,,,,,,,,,,,,,,,,,,,,,,,,,,,,,,,,
,,5,8,${e://Field/PROLIFIC_PID,F,18,2023-11-02_19h19.06.055,MouseEye_CC,2023.2.2,Win32,59.97001499,1.023548146,,,1376,774,36.113,4.52,"438.71, 363.2, 448.12, 419.32, 453.71, 460.2, 149.15",911.26,6.303547598,28.49203514,27.83653633,Passed,95.44831772,,,,,,,,,,,,,,,,,,,,training,6,6,180,right,s,,,,,557.7919,557.9908,28.65934808,-1.671569824,-4.16418457,1,0,0,0.1987,fixationPoint,557.991,558.0935,558.0936,559.1909,28.65934808,8188.385164,493.3502062,s,1,1.0758,,559.191,559.3934,,,,,,,,4,-72,224,112,64,222,113,30,166,-126,-164,-170,-68,-80,-23,20,-161,121,-70,79,-76,-176,122,-77,162,270,180,360,270,180,270,180,270,90,360,270,,,,,,,,,,,559.3935,559.3937,,0,85,85,85,1,3,repeated,,,,,,,,,,,,,,,,,,,,,,,,,,,,,,,,,,,,,,,,,,,,,,,,,
,,5,8,${e://Field/PROLIFIC_PID,F,18,2023-11-02_19h19.06.055,MouseEye_CC,2023.2.2,Win32,59.97001499,1.023548146,,,1376,774,36.113,4.52,"438.71, 363.2, 448.12, 419.32, 453.71, 460.2, 149.15",911.26,6.303547598,28.49203514,27.83653633,Passed,95.44831772,,,,,,,,,,,,,,,,,,,,training,6,7,0,left,a,,,,,559.3945,559.6077,28.65934808,-1.671569824,-4.16418457,1,0,0,0.2128,fixationPoint,559.6078,559.7079,559.7081,561.3942,28.65934808,8188.385164,493.3502062,a,1,1.6677,,561.3942,561.5933,,,,,,,,70,224,-75,112,64,213,32,20,27,-224,32,-31,169,-119,213,-173,-216,-126,-216,-116,-125,69,-124,165,-19,270,270,90,360,90,360,360,360,270,180,270,,,,,,,,,,,561.5934,561.5937,,0,86,86,86,1,7,repeated,,,,,,,,,,,,,,,,,,,,,,,,,,,,,,,,,,,,,,,,,,,,,,,,,
,,5,8,${e://Field/PROLIFIC_PID,F,18,2023-11-02_19h19.06.055,MouseEye_CC,2023.2.2,Win32,59.97001499,1.023548146,,,1376,774,36.113,4.52,"438.71, 363.2, 448.12, 419.32, 453.71, 460.2, 149.15",911.26,6.303547598,28.49203514,27.83653633,Passed,95.44831772,,,,,,,,,,,,,,,,,,,,training,6,8,180,right,s,,,,,561.5944,561.774,28.65934808,-1.671569824,-4.16418457,1,0,0,0.1792,fixationPoint,561.7741,561.8741,561.8743,564.724,28.65934808,8188.385164,493.3502062,s,1,2.8257,,564.7242,564.9239,,,,,,,,60,209,-18,125,118,167,124,175,28,-221,169,-19,16,-116,160,-170,-68,-16,-26,-216,-215,175,-168,119,-172,180,270,180,270,270,90,180,270,90,180,270,,,,,,,,,,,564.9241,564.9244,,0,87,87,87,1,12,novel,,,,,,,,,,,,,,,,,,,,,,,,,,,,,,,,,,,,,,,,,,,,,,,,,
,,5,8,${e://Field/PROLIFIC_PID,F,18,2023-11-02_19h19.06.055,MouseEye_CC,2023.2.2,Win32,59.97001499,1.023548146,,,1376,774,36.113,4.52,"438.71, 363.2, 448.12, 419.32, 453.71, 460.2, 149.15",911.26,6.303547598,28.49203514,27.83653633,Passed,95.44831772,,,,,,,,,,,,,,,,,,,,training,6,9,0,left,a,,,,,564.925,565.1112,28.65934808,-1.671569824,-4.16418457,1,0,0,0.186,fixationPoint,565.1113,565.2076,565.2077,566.2908,28.65934808,8188.385164,493.3502062,a,1,1.0607,,566.2909,566.4927,,,,,,,,61,-213,-74,175,28,124,215,126,29,-21,120,-166,79,-128,16,224,-75,79,-76,20,-161,-114,-32,-17,-222,90,180,270,270,90,90,270,180,270,270,270,,,,,,,,,,,566.4927,566.4929,,0,88,88,88,1,10,novel,,,,,,,,,,,,,,,,,,,,,,,,,,,,,,,,,,,,,,,,,,,,,,,,,
,,5,8,${e://Field/PROLIFIC_PID,F,18,2023-11-02_19h19.06.055,MouseEye_CC,2023.2.2,Win32,59.97001499,1.023548146,,,1376,774,36.113,4.52,"438.71, 363.2, 448.12, 419.32, 453.71, 460.2, 149.15",911.26,6.303547598,28.49203514,27.83653633,Passed,95.44831772,,,,,,,,,,,,,,,,,,,,training,6,10,0,left,a,,,,,566.4936,566.7245,28.65934808,-1.671569824,-4.16418457,1,0,0,0.2304,fixationPoint,566.7246,566.8236,566.8237,570.9415,28.65934808,8188.385164,493.3502062,a,1,4.0861,,570.9416,571.1408,,,,,,,,30,222,113,-176,122,-116,74,-116,160,-114,-32,-16,-26,-26,-66,117,-124,112,-32,216,-224,20,72,76,165,90,180,270,90,90,270,180,90,180,90,360,,,,,,,,,,,571.1409,571.1412,,0,89,89,89,1,14,novel,,,,,,,,,,,,,,,,,,,,,,,,,,,,,,,,,,,,,,,,,,,,,,,,,
,,5,8,${e://Field/PROLIFIC_PID,F,18,2023-11-02_19h19.06.055,MouseEye_CC,2023.2.2,Win32,59.97001499,1.023548146,,,1376,774,36.113,4.52,"438.71, 363.2, 448.12, 419.32, 453.71, 460.2, 149.15",911.26,6.303547598,28.49203514,27.83653633,Passed,95.44831772,,,,,,,,,,,,,,,,,,,,training,6,11,0,left,a,,,,,571.1418,571.3907,28.65934808,-1.671569824,-4.16418457,1,0,0,0.2486,fixationPoint,571.3908,571.4931,571.4932,572.5937,28.65934808,8188.385164,493.3502062,a,1,1.0841,,572.5937,572.791,,,,,,,,41,-224,32,160,161,30,166,125,118,-173,-114,-126,-164,-16,-26,119,-172,28,-221,112,-32,-174,23,-213,222,90,180,180,180,180,270,180,360,360,180,90,,,,,,,,,,,572.7912,572.7915,,0,90,90,90,1,4,repeated,,,,,,,,,,,,,,,,,,,,,,,,,,,,,,,,,,,,,,,,,,,,,,,,,
,,5,8,${e://Field/PROLIFIC_PID,F,18,2023-11-02_19h19.06.055,MouseEye_CC,2023.2.2,Win32,59.97001499,1.023548146,,,1376,774,36.113,4.52,"438.71, 363.2, 448.12, 419.32, 453.71, 460.2, 149.15",911.26,6.303547598,28.49203514,27.83653633,Passed,95.44831772,,,,,,,,,,,,,,,,,,,,training,6,12,180,right,s,,,,,572.7921,572.9243,28.65934808,-1.671569824,-4.16418457,1,0,0,0.1319,fixationPoint,572.9244,573.0264,573.0264,574.9773,28.65934808,8188.385164,493.3502062,s,1,1.9339,,574.9774,575.1763,,,,,,,,32,-166,79,30,166,112,64,126,29,-68,-209,-32,-124,-126,-164,209,-18,28,-24,215,-168,-19,16,-21,120,180,360,360,180,270,90,270,360,270,180,180,,,,,,,,,,,575.1764,575.1766,,0,91,91,91,1,16,novel,,,,,,,,,,,,,,,,,,,,,,,,,,,,,,,,,,,,,,,,,,,,,,,,,
,,5,8,${e://Field/PROLIFIC_PID,F,18,2023-11-02_19h19.06.055,MouseEye_CC,2023.2.2,Win32,59.97001499,1.023548146,,,1376,774,36.113,4.52,"438.71, 363.2, 448.12, 419.32, 453.71, 460.2, 149.15",911.26,6.303547598,28.49203514,27.83653633,Passed,95.44831772,,,,,,,,,,,,,,,,,,,,training,6,13,180,right,s,,,,,575.1773,575.3271,28.65934808,-1.671569824,-4.16418457,1,0,0,0.1496,fixationPoint,575.3271,575.4264,575.4265,577.107,28.65934808,8188.385164,493.3502062,s,1,1.6627,,577.1072,577.3076,,,,,,,,82,-168,-174,176,69,167,124,78,67,-176,122,-218,124,-21,120,224,-75,165,-19,28,-221,-216,-215,-32,-124,270,90,180,270,180,360,360,180,90,180,180,,,,,,,,,,,577.308,577.3083,,0,92,92,92,1,5,repeated,,,,,,,,,,,,,,,,,,,,,,,,,,,,,,,,,,,,,,,,,,,,,,,,,
,,5,8,${e://Field/PROLIFIC_PID,F,18,2023-11-02_19h19.06.055,MouseEye_CC,2023.2.2,Win32,59.97001499,1.023548146,,,1376,774,36.113,4.52,"438.71, 363.2, 448.12, 419.32, 453.71, 460.2, 149.15",911.26,6.303547598,28.49203514,27.83653633,Passed,95.44831772,,,,,,,,,,,,,,,,,,,,training,6,14,180,right,s,,,,,577.3089,577.4243,28.65934808,-1.671569824,-4.16418457,1,0,0,0.1152,fixationPoint,577.4244,577.524,577.5241,585.0068,28.65934808,8188.385164,493.3502062,a,0,7.4599,,585.0069,589.007,,,,,,,,40,209,72,-221,169,-116,74,-29,210,-218,-127,-70,-117,-173,-114,209,-18,224,-75,28,-64,112,64,160,161,360,360,270,90,270,90,270,360,360,180,180,,,,,,,,,,,589.0071,589.0073,,0,93,93,93,1,2,repeated,,,,,,,,,,,,,,,,,,,,,,,,,,,,,,,,,,,,,,,,,,,,,,,,,
,,5,8,${e://Field/PROLIFIC_PID,F,18,2023-11-02_19h19.06.055,MouseEye_CC,2023.2.2,Win32,59.97001499,1.023548146,,,1376,774,36.113,4.52,"438.71, 363.2, 448.12, 419.32, 453.71, 460.2, 149.15",911.26,6.303547598,28.49203514,27.83653633,Passed,95.44831772,,,,,,,,,,,,,,,,,,,,training,6,15,180,right,s,,,,,589.008,589.3904,28.65934808,-1.671569824,-4.16418457,1,0,0,0.3822,fixationPoint,589.3904,589.4898,589.4898,591.5408,28.65934808,8188.385164,493.3502062,s,1,2.0454,,591.5409,591.7402,,,,,,,,19,160,161,-213,222,-67,126,-176,122,-126,-216,-17,-222,-124,-69,123,-220,173,-77,112,-32,208,211,76,165,360,180,90,180,360,360,90,360,180,180,270,,,,,,,,,,,591.7402,591.7405,,0,94,94,94,1,13,novel,,,,,,,,,,,,,,,,,,,,,,,,,,,,,,,,,,,,,,,,,,,,,,,,,
,,5,8,${e://Field/PROLIFIC_PID,F,18,2023-11-02_19h19.06.055,MouseEye_CC,2023.2.2,Win32,59.97001499,1.023548146,,,1376,774,36.113,4.52,"438.71, 363.2, 448.12, 419.32, 453.71, 460.2, 149.15",911.26,6.303547598,28.49203514,27.83653633,Passed,95.44831772,,,,,,,,,,,,,,,,,,,,training,6,16,0,left,a,,,,,591.741,592.0899,28.65934808,-1.671569824,-4.16418457,1,0,0,0.3488,fixationPoint,592.09,592.1901,592.1901,596.1401,28.65934808,8188.385164,493.3502062,a,1,3.9357,,596.1402,596.34,,,,,,,,69,173,-77,78,67,80,220,167,124,-65,77,-166,79,-174,23,-70,-117,-213,-74,-32,-124,69,-124,216,-224,360,180,90,360,90,360,270,360,180,360,90,,,,,,,,,,,596.34,600.7735,space,0,95,95,95,1,8,repeated,4.402,,,,,,,,,,,,,,,,,,,,,,,,,,,,,,,,,,,,,,,,,,,,,,,,
,,5,8,${e://Field/PROLIFIC_PID,F,18,2023-11-02_19h19.06.055,MouseEye_CC,2023.2.2,Win32,59.97001499,1.023548146,,,1376,774,36.113,4.52,"438.71, 363.2, 448.12, 419.32, 453.71, 460.2, 149.15",911.26,6.303547598,28.49203514,27.83653633,Passed,95.44831772,,,,,,,,,,,,,,,,,,,,training,7,1,180,right,s,,,,,600.788,601.6401,28.65934808,-1.671569824,-4.16418457,1,0,0,0.8519,fixationPoint,601.6402,601.7398,601.7399,605.0066,28.65934808,8188.385164,493.3502062,s,1,3.2509,,605.0067,605.2067,,,,,,,,32,-166,79,30,166,124,215,124,172,-216,-215,-30,-161,-32,-124,123,-220,168,-121,69,-220,-67,17,-221,169,270,180,90,90,360,270,270,360,90,360,270,,,,,,,,,,,605.2068,605.2087,,0,96,96,96,1,16,novel,,,,,,,,,,,,,,,,,,,,,,,,,,,,,,,,,,,,,,,,,,,,,,,,,
,,5,8,${e://Field/PROLIFIC_PID,F,18,2023-11-02_19h19.06.055,MouseEye_CC,2023.2.2,Win32,59.97001499,1.023548146,,,1376,774,36.113,4.52,"438.71, 363.2, 448.12, 419.32, 453.71, 460.2, 149.15",911.26,6.303547598,28.49203514,27.83653633,Passed,95.44831772,,,,,,,,,,,,,,,,,,,,training,7,2,180,right,s,,,,,605.2094,605.39,28.65934808,-1.671569824,-4.16418457,1,0,0,0.1803,fixationPoint,605.39,605.4899,605.49,609.2729,28.65934808,8188.385164,493.3502062,s,1,3.7776,,609.273,609.473,,,,,,,,31,-216,64,167,124,78,67,125,118,-218,-127,-17,-222,-116,-125,79,-76,168,-121,209,-18,-128,16,-176,122,270,180,270,270,180,180,90,90,90,180,180,,,,,,,,,,,609.473,609.4733,,0,97,97,97,1,15,novel,,,,,,,,,,,,,,,,,,,,,,,,,,,,,,,,,,,,,,,,,,,,,,,,,
,,5,8,${e://Field/PROLIFIC_PID,F,18,2023-11-02_19h19.06.055,MouseEye_CC,2023.2.2,Win32,59.97001499,1.023548146,,,1376,774,36.113,4.52,"438.71, 363.2, 448.12, 419.32, 453.71, 460.2, 149.15",911.26,6.303547598,28.49203514,27.83653633,Passed,95.44831772,,,,,,,,,,,,,,,,,,,,training,7,3,180,right,s,,,,,609.4739,610.1062,28.65934808,-1.671569824,-4.16418457,1,0,0,0.6321,fixationPoint,610.1063,610.2062,610.2063,611.9066,28.65934808,8188.385164,493.3502062,a,0,1.6841,,611.9067,615.9064,,,,,,,,60,209,-18,126,29,76,165,222,113,-67,126,-28,79,-172,170,-70,-117,-32,-124,-218,-127,168,-121,20,-161,270,270,360,270,360,270,270,90,270,180,180,,,,,,,,,,,615.9065,615.9207,,0,98,98,98,1,12,novel,,,,,,,,,,,,,,,,,,,,,,,,,,,,,,,,,,,,,,,,,,,,,,,,,
,,5,8,${e://Field/PROLIFIC_PID,F,18,2023-11-02_19h19.06.055,MouseEye_CC,2023.2.2,Win32,59.97001499,1.023548146,,,1376,774,36.113,4.52,"438.71, 363.2, 448.12, 419.32, 453.71, 460.2, 149.15",911.26,6.303547598,28.49203514,27.83653633,Passed,95.44831772,,,,,,,,,,,,,,,,,,,,training,7,4,0,left,a,,,,,615.9213,616.3064,28.65934808,-1.671569824,-4.16418457,1,0,0,0.3849,fixationPoint,616.3065,616.4065,616.4066,617.5562,28.65934808,8188.385164,493.3502062,a,1,1.134,,617.5564,617.7562,,,,,,,,84,-73,-165,74,116,125,118,30,166,-65,77,-19,16,-67,17,28,-24,175,-168,224,-75,-173,-216,-213,-74,180,360,180,180,270,360,180,180,90,270,90,,,,,,,,,,,617.7563,617.7565,,0,99,99,99,1,9,novel,,,,,,,,,,,,,,,,,,,,,,,,,,,,,,,,,,,,,,,,,,,,,,,,,
,,5,8,${e://Field/PROLIFIC_PID,F,18,2023-11-02_19h19.06.055,MouseEye_CC,2023.2.2,Win32,59.97001499,1.023548146,,,1376,774,36.113,4.52,"438.71, 363.2, 448.12, 419.32, 453.71, 460.2, 149.15",911.26,6.303547598,28.49203514,27.83653633,Passed,95.44831772,,,,,,,,,,,,,,,,,,,,training,7,5,0,left,a,,,,,617.7571,618.0894,28.65934808,-1.671569824,-4.16418457,1,0,0,0.3322,fixationPoint,618.0896,618.1894,618.1895,619.1062,28.65934808,8188.385164,493.3502062,a,1,0.9056,,619.1063,619.3063,,,,,,,,30,222,113,-221,169,-174,23,-128,16,-223,-31,-80,-23,-16,-26,72,-166,209,-18,224,-75,74,23,213,32,180,90,360,270,90,90,270,180,270,360,270,,,,,,,,,,,619.3064,619.3067,,0,100,100,100,1,14,novel,,,,,,,,,,,,,,,,,,,,,,,,,,,,,,,,,,,,,,,,,,,,,,,,,
,,5,8,${e://Field/PROLIFIC_PID,F,18,2023-11-02_19h19.06.055,MouseEye_CC,2023.2.2,Win32,59.97001499,1.023548146,,,1376,774,36.113,4.52,"438.71, 363.2, 448.12, 419.32, 453.71, 460.2, 149.15",911.26,6.303547598,28.49203514,27.83653633,Passed,95.44831772,,,,,,,,,,,,,,,,,,,,training,7,6,180,right,s,,,,,619.3073,619.5563,28.65934808,-1.671569824,-4.16418457,1,0,0,0.2489,fixationPoint,619.5564,619.6561,619.6561,623.5895,28.65934808,8188.385164,493.3502062,s,1,3.9188,,623.5896,623.7892,,,,,,,,70,224,-75,112,64,213,32,20,27,-224,32,-31,169,-119,213,-173,-216,-126,-216,-116,-125,69,-124,165,-19,90,180,90,180,180,360,180,360,90,270,90,,,,,,,,,,,623.7894,623.7897,,0,101,101,101,1,7,repeated,,,,,,,,,,,,,,,,,,,,,,,,,,,,,,,,,,,,,,,,,,,,,,,,,
,,5,8,${e://Field/PROLIFIC_PID,F,18,2023-11-02_19h19.06.055,MouseEye_CC,2023.2.2,Win32,59.97001499,1.023548146,,,1376,774,36.113,4.52,"438.71, 363.2, 448.12, 419.32, 453.71, 460.2, 149.15",911.26,6.303547598,28.49203514,27.83653633,Passed,95.44831772,,,,,,,,,,,,,,,,,,,,training,7,7,0,left,a,,,,,623.7903,624.1224,28.65934808,-1.671569824,-4.16418457,1,0,0,0.3319,fixationPoint,624.1225,624.2225,624.2226,626.3061,28.65934808,8188.385164,493.3502062,a,1,2.0697,,626.3061,626.506,,,,,,,,82,-168,-174,176,69,167,124,78,67,-176,122,-218,124,-21,120,224,-75,165,-19,28,-221,-216,-215,-32,-124,360,270,90,270,180,90,270,180,270,90,180,,,,,,,,,,,626.5061,626.5063,,0,102,102,102,1,5,repeated,,,,,,,,,,,,,,,,,,,,,,,,,,,,,,,,,,,,,,,,,,,,,,,,,
,,5,8,${e://Field/PROLIFIC_PID,F,18,2023-11-02_19h19.06.055,MouseEye_CC,2023.2.2,Win32,59.97001499,1.023548146,,,1376,774,36.113,4.52,"438.71, 363.2, 448.12, 419.32, 453.71, 460.2, 149.15",911.26,6.303547598,28.49203514,27.83653633,Passed,95.44831772,,,,,,,,,,,,,,,,,,,,training,7,8,180,right,s,,,,,626.507,626.6393,28.65934808,-1.671569824,-4.16418457,1,0,0,0.1321,fixationPoint,626.6394,626.7393,626.7394,628.2228,28.65934808,8188.385164,493.3502062,s,1,1.4675,,628.2229,628.4227,,,,,,,,4,-72,224,112,64,222,113,30,166,-126,-164,-170,-68,-80,-23,20,-161,121,-70,79,-76,-176,122,-77,162,90,180,360,180,360,180,270,180,90,90,180,,,,,,,,,,,628.4229,628.4231,,0,103,103,103,1,3,repeated,,,,,,,,,,,,,,,,,,,,,,,,,,,,,,,,,,,,,,,,,,,,,,,,,
,,5,8,${e://Field/PROLIFIC_PID,F,18,2023-11-02_19h19.06.055,MouseEye_CC,2023.2.2,Win32,59.97001499,1.023548146,,,1376,774,36.113,4.52,"438.71, 363.2, 448.12, 419.32, 453.71, 460.2, 149.15",911.26,6.303547598,28.49203514,27.83653633,Passed,95.44831772,,,,,,,,,,,,,,,,,,,,training,7,9,180,right,s,,,,,628.4236,628.5397,28.65934808,-1.671569824,-4.16418457,1,0,0,0.1159,fixationPoint,628.5398,628.6393,628.6393,630.6061,28.65934808,8188.385164,493.3502062,s,1,1.9504,,630.6062,630.8059,,,,,,,,19,160,161,-67,17,-19,16,-166,79,-30,-161,-168,-174,-214,-170,208,-126,28,-24,119,-172,80,220,20,27,90,180,90,180,180,90,360,270,270,360,360,,,,,,,,,,,630.806,630.8061,,0,104,104,104,1,13,novel,,,,,,,,,,,,,,,,,,,,,,,,,,,,,,,,,,,,,,,,,,,,,,,,,
,,5,8,${e://Field/PROLIFIC_PID,F,18,2023-11-02_19h19.06.055,MouseEye_CC,2023.2.2,Win32,59.97001499,1.023548146,,,1376,774,36.113,4.52,"438.71, 363.2, 448.12, 419.32, 453.71, 460.2, 149.15",911.26,6.303547598,28.49203514,27.83653633,Passed,95.44831772,,,,,,,,,,,,,,,,,,,,training,7,10,180,right,s,,,,,630.8068,630.9562,28.65934808,-1.671569824,-4.16418457,1,0,0,0.1491,fixationPoint,630.9563,631.0565,631.0566,633.1561,28.65934808,8188.385164,493.3502062,s,1,2.0843,,633.1561,633.3562,,,,,,,,71,-218,-127,208,211,124,172,125,118,-176,122,-224,32,-216,64,28,-221,215,-168,28,-24,-80,-23,-223,-31,270,360,270,90,270,180,270,270,180,360,90,,,,,,,,,,,633.3562,633.3565,,0,105,105,105,1,6,repeated,,,,,,,,,,,,,,,,,,,,,,,,,,,,,,,,,,,,,,,,,,,,,,,,,
,,5,8,${e://Field/PROLIFIC_PID,F,18,2023-11-02_19h19.06.055,MouseEye_CC,2023.2.2,Win32,59.97001499,1.023548146,,,1376,774,36.113,4.52,"438.71, 363.2, 448.12, 419.32, 453.71, 460.2, 149.15",911.26,6.303547598,28.49203514,27.83653633,Passed,95.44831772,,,,,,,,,,,,,,,,,,,,training,7,11,180,right,s,,,,,633.3571,633.5226,28.65934808,-1.671569824,-4.16418457,1,0,0,0.1654,fixationPoint,633.5228,633.6228,633.6229,635.6893,28.65934808,8188.385164,493.3502062,s,1,2.0544,,635.6895,635.8893,,,,,,,,41,-224,32,160,161,30,166,125,118,-173,-114,-126,-164,-16,-26,119,-172,28,-221,112,-32,-174,23,-213,222,90,180,270,360,270,360,360,270,180,90,270,,,,,,,,,,,635.8894,635.8896,,0,106,106,106,1,4,repeated,,,,,,,,,,,,,,,,,,,,,,,,,,,,,,,,,,,,,,,,,,,,,,,,,
,,5,8,${e://Field/PROLIFIC_PID,F,18,2023-11-02_19h19.06.055,MouseEye_CC,2023.2.2,Win32,59.97001499,1.023548146,,,1376,774,36.113,4.52,"438.71, 363.2, 448.12, 419.32, 453.71, 460.2, 149.15",911.26,6.303547598,28.49203514,27.83653633,Passed,95.44831772,,,,,,,,,,,,,,,,,,,,training,7,12,0,left,a,,,,,635.8902,636.023,28.65934808,-1.671569824,-4.16418457,1,0,0,0.1327,fixationPoint,636.023,636.1224,636.1225,638.0893,28.65934808,8188.385164,493.3502062,a,1,1.9607,,638.0894,638.2892,,,,,,,,69,173,-77,78,67,80,220,167,124,-65,77,-166,79,-174,23,-70,-117,-213,-74,-32,-124,69,-124,216,-224,180,90,270,90,360,90,90,90,360,270,270,,,,,,,,,,,638.2892,638.2895,,0,107,107,107,1,8,repeated,,,,,,,,,,,,,,,,,,,,,,,,,,,,,,,,,,,,,,,,,,,,,,,,,
,,5,8,${e://Field/PROLIFIC_PID,F,18,2023-11-02_19h19.06.055,MouseEye_CC,2023.2.2,Win32,59.97001499,1.023548146,,,1376,774,36.113,4.52,"438.71, 363.2, 448.12, 419.32, 453.71, 460.2, 149.15",911.26,6.303547598,28.49203514,27.83653633,Passed,95.44831772,,,,,,,,,,,,,,,,,,,,training,7,13,0,left,a,,,,,638.2901,638.4224,28.65934808,-1.671569824,-4.16418457,1,0,0,0.1321,fixationPoint,638.4225,638.5226,638.5227,640.906,28.65934808,8188.385164,493.3502062,a,1,2.3716,,640.9061,641.1058,,,,,,,,40,209,72,-221,169,-116,74,-29,210,-218,-127,-70,-117,-173,-114,209,-18,224,-75,28,-64,112,64,160,161,270,270,360,270,360,270,360,180,180,270,270,,,,,,,,,,,641.1059,641.1061,,0,108,108,108,1,2,repeated,,,,,,,,,,,,,,,,,,,,,,,,,,,,,,,,,,,,,,,,,,,,,,,,,
,,5,8,${e://Field/PROLIFIC_PID,F,18,2023-11-02_19h19.06.055,MouseEye_CC,2023.2.2,Win32,59.97001499,1.023548146,,,1376,774,36.113,4.52,"438.71, 363.2, 448.12, 419.32, 453.71, 460.2, 149.15",911.26,6.303547598,28.49203514,27.83653633,Passed,95.44831772,,,,,,,,,,,,,,,,,,,,training,7,14,0,left,a,,,,,641.1067,641.1892,28.65934808,-1.671569824,-4.16418457,1,0,0,0.0822,fixationPoint,641.1892,641.2892,641.2893,643.2393,28.65934808,8188.385164,493.3502062,a,1,1.9399,,643.2394,643.4391,,,,,,,,97,69,-220,74,23,20,72,112,64,-213,222,-218,124,-120,120,-214,-170,-218,-127,-26,-66,121,-70,123,-220,360,90,90,360,90,180,180,360,90,180,180,,,,,,,,,,,643.4391,643.4393,,0,109,109,109,1,11,novel,,,,,,,,,,,,,,,,,,,,,,,,,,,,,,,,,,,,,,,,,,,,,,,,,
