InstrStartPage.started,InstrStartPage.stopped,participant,designid,prolificid,Gender,Age,date,expName,psychopyVersion,OS,frameRate,ratio_monitor2CRT,VirtualChinrest.started,VirtualChinrest.stopped,xRes,yRes,viewingdistance_cm,pixeldensity_px2mm,BallPos,squarePos,mm2degree,px2degree,CRT_px2degree,PassVirtualChinrest,foveaRadius_inPixel,InstrRedo.started,InstrRedo.stopped,VirtualChinrest_Redo.started,VirtualChinrest_Redo.stopped,Redo_virtualChinrest,Instruction1.started,Instruction1.stopped,keyPractice.started,keyPractice.stopped,key_keyprac.keys,key_keyprac.corr,key_keyprac.rt,key_keyprac.duration,keyPracFeedback.started,keyPracFeedback.stopped,keyPracLoop.thisRepN,keyPracLoop.thisTrialN,keyPracLoop.thisN,keyPracLoop.thisIndex,keyPracLoop.ran,phase,block,trial,targOrientdeg,targOrient,corrAnswer,Instruction2.started,Instruction2.stopped,Instruction3.started,Instruction3.stopped,fixation.started,fixation.stopped,fixationSize,mouseintial.x,mouseintial.y,mouseintial.leftButton,mouseintial.midButton,mouseintial.rightButton,mouseintial.time,mouseintial.clicked_name,greenFixation.started,greenFixation.stopped,trial.started,trial.stopped,letterSize,apertureSize,searchsize,key_respMain.keys,key_respMain.corr,key_respMain.rt,key_respMain.duration,trialFeedback.started,trialFeedback.stopped,trialsPractice.thisRepN,trialsPractice.thisTrialN,trialsPractice.thisN,trialsPractice.thisIndex,trialsPractice.ran,targetQuad,Tcondition,targcell,tlocx,tlocy,d1x,d1y,d2x,d2y,d3x,d3y,d4x,d4y,d5x,d5y,d6x,d6y,d7x,d7y,d8x,d8y,d9x,d9y,d10x,d10y,d11x,d11y,d1Orient,d2Orient,d3Orient,d4Orient,d5Orient,d6Orient,d7Orient,d8Orient,d9Orient,d10Orient,d11Orient,CheckInstr.started,CheckInstr.stopped,key_checkInstr.keys,key_checkInstr.corr,key_checkInstr.rt,key_checkInstr.duration,CheckInstr_FB.started,CheckInstr_FB.stopped,Instruction_MainExp.started,Instruction_MainExp.stopped,TakeABreak.started,TakeABreak.stopped,key_respBreak.keys,trials.thisRepN,trials.thisTrialN,trials.thisN,trials.thisIndex,trials.ran,configurationNumber,CCCondition,key_respBreak.rt,key_respBreak.duration,displayTestingPhase.started,displayTestingPhase.stopped,key_respTesting.keys,key_respTesting.corr,key_respTesting.rt,key_respTesting.duration,TakeABreak2.started,TakeABreak2.stopped,key_RespBreak.keys,Testingtrials.thisRepN,Testingtrials.thisTrialN,Testingtrials.thisN,Testingtrials.thisIndex,Testingtrials.ran,key_RespBreak.rt,key_RespBreak.duration,RecogQuestion.started,RecogQuestion.stopped,key_AnswerQues.keys,key_AnswerQues.rt,key_AnswerQues.duration,Disclose.started,Disclose.stopped,InstrRT.started,InstrRT.stopped,fixation_RT.started,fixation_RT.stopped,mouseInitial.x,mouseInitial.y,mouseInitial.leftButton,mouseInitial.midButton,mouseInitial.rightButton,mouseInitial.time,mouseInitial.clicked_name,displayRT.started,displayRT.stopped,key_respRT.keys,key_respRT.corr,key_respRT.rt,key_respRT.duration,RTtrials.thisRepN,RTtrials.thisTrialN,RTtrials.thisN,RTtrials.thisIndex,RTtrials.ran,EndOfExperiment.started,EndOfExperiment.stopped
0.0008,15.2503,5,3,${e://Field/PROLIFIC_PID,M,34,2023-11-03_01h13.02.655,MouseEye_CC,2023.2.2,Win32,39.97281848,1,,,,,,,,,,,,,,,,,,,,,,,,,,,,,,,,,,,,,,,,,,,,,,,,,,,,,,,,,,,,,,,,,,,,,,,,,,,,,,,,,,,,,,,,,,,,,,,,,,,,,,,,,,,,,,,,,,,,,,,,,,,,,,,,,,,,,,,,,,,,,,,,,,,,,,,,,,,,,,,,,,,,,,,,,,,,,,,,,,
,,5,3,${e://Field/PROLIFIC_PID,M,34,2023-11-03_01h13.02.655,MouseEye_CC,2023.2.2,Win32,39.97281848,1.50674565,15.2517,228.4482,1366,768,54.364,4.42,"190.71, 191.94, 187.23, 177.02, 184.58, 175.38, 161.28",759.86,9.489271498,41.94258002,27.83653633,Passed,140.5076431,,,,,,,,,,,,,,,,,,,,,,,,,,,,,,,,,,,,,,,,,,,,,,,,,,,,,,,,,,,,,,,,,,,,,,,,,,,,,,,,,,,,,,,,,,,,,,,,,,,,,,,,,,,,,,,,,,,,,,,,,,,,,,,,,,,,,,,,,,,,,,,,,,,,,,,,,,,,,,,,,,,,,
,,5,3,${e://Field/PROLIFIC_PID,M,34,2023-11-03_01h13.02.655,MouseEye_CC,2023.2.2,Win32,39.97281848,1.50674565,,,1366,768,54.364,4.42,"190.71, 191.94, 187.23, 177.02, 184.58, 175.38, 161.28",759.86,9.489271498,41.94258002,27.83653633,Passed,140.5076431,228.4492,228.4588,,,,,,,,,,,,,,,,,,,,,,,,,,,,,,,,,,,,,,,,,,,,,,,,,,,,,,,,,,,,,,,,,,,,,,,,,,,,,,,,,,,,,,,,,,,,,,,,,,,,,,,,,,,,,,,,,,,,,,,,,,,,,,,,,,,,,,,,,,,,,,,,,,,,,,,,,,,,,,,,,,,
,,5,3,${e://Field/PROLIFIC_PID,M,34,2023-11-03_01h13.02.655,MouseEye_CC,2023.2.2,Win32,39.97281848,1.28,,,1366,768,55.116,4.31,"190.71, 191.94, 187.23, 177.02, 184.58, 175.38, 161.28",759.86,9.620533586,41.46449975,27.83653633,Passed,138.9060742,,,228.4595,337.8375,failed,,,,,,,,,,,,,,,,,,,,,,,,,,,,,,,,,,,,,,,,,,,,,,,,,,,,,,,,,,,,,,,,,,,,,,,,,,,,,,,,,,,,,,,,,,,,,,,,,,,,,,,,,,,,,,,,,,,,,,,,,,,,,,,,,,,,,,,,,,,,,,,,,,,,,,,,,,,,,,,,
,,5,3,${e://Field/PROLIFIC_PID,M,34,2023-11-03_01h13.02.655,MouseEye_CC,2023.2.2,Win32,39.97281848,1.28,,,1366,768,55.116,4.31,"190.71, 191.94, 187.23, 177.02, 184.58, 175.38, 161.28",759.86,9.620533586,41.46449975,27.83653633,Passed,138.9060742,,,,,,337.8386,393.8447,,,,,,,,,,,,,,,,,,,,,,,,,,,,,,,,,,,,,,,,,,,,,,,,,,,,,,,,,,,,,,,,,,,,,,,,,,,,,,,,,,,,,,,,,,,,,,,,,,,,,,,,,,,,,,,,,,,,,,,,,,,,,,,,,,,,,,,,,,,,,,,,,,,,,,,,,,,,,,
,,5,3,${e://Field/PROLIFIC_PID,M,34,2023-11-03_01h13.02.655,MouseEye_CC,2023.2.2,Win32,39.97281848,1.28,,,1366,768,55.116,4.31,"190.71, 191.94, 187.23, 177.02, 184.58, 175.38, 161.28",759.86,9.620533586,41.46449975,27.83653633,Passed,138.9060742,,,,,,,,393.9684,395.0215,a,1,0.4955,,395.0228,395.5124,0,0,0,0,1,practice,1,1,0,left,a,,,,,,,,,,,,,,,,,,,,,,,,,,,,,,,,,,,,,,,,,,,,,,,,,,,,,,,,,,,,,,,,,,,,,,,,,,,,,,,,,,,,,,,,,,,,,,,,,,,,,,,,,,,,,,,,,,,,,,,,,,,,,,,,,,,,,,,,,,,
,,5,3,${e://Field/PROLIFIC_PID,M,34,2023-11-03_01h13.02.655,MouseEye_CC,2023.2.2,Win32,39.97281848,1.28,,,1366,768,55.116,4.31,"190.71, 191.94, 187.23, 177.02, 184.58, 175.38, 161.28",759.86,9.620533586,41.46449975,27.83653633,Passed,138.9060742,,,,,,,,395.5152,396.5425,a,1,0.4793,,396.5427,397.0271,0,1,1,1,1,practice,1,2,0,left,a,,,,,,,,,,,,,,,,,,,,,,,,,,,,,,,,,,,,,,,,,,,,,,,,,,,,,,,,,,,,,,,,,,,,,,,,,,,,,,,,,,,,,,,,,,,,,,,,,,,,,,,,,,,,,,,,,,,,,,,,,,,,,,,,,,,,,,,,,,,
,,5,3,${e://Field/PROLIFIC_PID,M,34,2023-11-03_01h13.02.655,MouseEye_CC,2023.2.2,Win32,39.97281848,1.28,,,1366,768,55.116,4.31,"190.71, 191.94, 187.23, 177.02, 184.58, 175.38, 161.28",759.86,9.620533586,41.46449975,27.83653633,Passed,138.9060742,,,,,,,,397.0287,397.9922,a,1,0.3985,,397.9929,398.4956,0,2,2,2,1,practice,1,3,0,left,a,,,,,,,,,,,,,,,,,,,,,,,,,,,,,,,,,,,,,,,,,,,,,,,,,,,,,,,,,,,,,,,,,,,,,,,,,,,,,,,,,,,,,,,,,,,,,,,,,,,,,,,,,,,,,,,,,,,,,,,,,,,,,,,,,,,,,,,,,,,
,,5,3,${e://Field/PROLIFIC_PID,M,34,2023-11-03_01h13.02.655,MouseEye_CC,2023.2.2,Win32,39.97281848,1.28,,,1366,768,55.116,4.31,"190.71, 191.94, 187.23, 177.02, 184.58, 175.38, 161.28",759.86,9.620533586,41.46449975,27.83653633,Passed,138.9060742,,,,,,,,398.4973,399.6508,s,1,0.6072,,399.6514,400.1476,0,3,3,3,1,practice,1,4,180,right,s,,,,,,,,,,,,,,,,,,,,,,,,,,,,,,,,,,,,,,,,,,,,,,,,,,,,,,,,,,,,,,,,,,,,,,,,,,,,,,,,,,,,,,,,,,,,,,,,,,,,,,,,,,,,,,,,,,,,,,,,,,,,,,,,,,,,,,,,,,,
,,5,3,${e://Field/PROLIFIC_PID,M,34,2023-11-03_01h13.02.655,MouseEye_CC,2023.2.2,Win32,39.97281848,1.28,,,1366,768,55.116,4.31,"190.71, 191.94, 187.23, 177.02, 184.58, 175.38, 161.28",759.86,9.620533586,41.46449975,27.83653633,Passed,138.9060742,,,,,,,,400.1517,401.1306,s,1,0.4448,,401.1309,401.6195,0,4,4,4,1,practice,1,5,180,right,s,,,,,,,,,,,,,,,,,,,,,,,,,,,,,,,,,,,,,,,,,,,,,,,,,,,,,,,,,,,,,,,,,,,,,,,,,,,,,,,,,,,,,,,,,,,,,,,,,,,,,,,,,,,,,,,,,,,,,,,,,,,,,,,,,,,,,,,,,,,
,,5,3,${e://Field/PROLIFIC_PID,M,34,2023-11-03_01h13.02.655,MouseEye_CC,2023.2.2,Win32,39.97281848,1.28,,,1366,768,55.116,4.31,"190.71, 191.94, 187.23, 177.02, 184.58, 175.38, 161.28",759.86,9.620533586,41.46449975,27.83653633,Passed,138.9060742,,,,,,,,401.6208,402.695,a,1,0.5212,,402.6955,403.1906,0,5,5,5,1,practice,1,6,0,left,a,,,,,,,,,,,,,,,,,,,,,,,,,,,,,,,,,,,,,,,,,,,,,,,,,,,,,,,,,,,,,,,,,,,,,,,,,,,,,,,,,,,,,,,,,,,,,,,,,,,,,,,,,,,,,,,,,,,,,,,,,,,,,,,,,,,,,,,,,,,
,,5,3,${e://Field/PROLIFIC_PID,M,34,2023-11-03_01h13.02.655,MouseEye_CC,2023.2.2,Win32,39.97281848,1.28,,,1366,768,55.116,4.31,"190.71, 191.94, 187.23, 177.02, 184.58, 175.38, 161.28",759.86,9.620533586,41.46449975,27.83653633,Passed,138.9060742,,,,,,,,,,,,,,,,,,,,,,,,,,,403.1975,422.2444,,,,,,,,,,,,,,,,,,,,,,,,,,,,,,,,,,,,,,,,,,,,,,,,,,,,,,,,,,,,,,,,,,,,,,,,,,,,,,,,,,,,,,,,,,,,,,,,,,,,,,,,,,,,,,,,,,,,,,,,,,,,,,,,,,,,,,,,,
,,5,3,${e://Field/PROLIFIC_PID,M,34,2023-11-03_01h13.02.655,MouseEye_CC,2023.2.2,Win32,39.97281848,1.28,,,1366,768,55.116,4.31,"190.71, 191.94, 187.23, 177.02, 184.58, 175.38, 161.28",759.86,9.620533586,41.46449975,27.83653633,Passed,138.9060742,,,,,,,,,,,,,,,,,,,,,,,,,,,,,422.2459,432.4762,,,,,,,,,,,,,,,,,,,,,,,,,,,,,,,,,,,,,,,,,,,,,,,,,,,,,,,,,,,,,,,,,,,,,,,,,,,,,,,,,,,,,,,,,,,,,,,,,,,,,,,,,,,,,,,,,,,,,,,,,,,,,,,,,,,,,,,
,,5,3,${e://Field/PROLIFIC_PID,M,34,2023-11-03_01h13.02.655,MouseEye_CC,2023.2.2,Win32,39.97281848,1.28,,,1366,768,55.116,4.31,"190.71, 191.94, 187.23, 177.02, 184.58, 175.38, 161.28",759.86,9.620533586,41.46449975,27.83653633,Passed,138.9060742,,,,,,,,,,,,,,,,,,,,,practice,0,1,0,left,a,,,,,432.5933,436.2858,35.84,2,1,1,0,0,3.6914,fixationPoint,436.2864,436.3375,436.3392,438.24,35.84,10240,616.96,a,1,1.8361,,438.2407,438.4342,0,0,0,0,1,4,sparse,90,217,-164,68,123,222,26,214,216,-218,159,-120,223,-110,82,-115,-130,-224,-120,-68,-219,79,-175,19,-128,90,270,360,90,270,270,180,90,90,90,270,,,,,,,,,,,,,,,,,,,,,,,,,,,,,,,,,,,,,,,,,,,,,,,,,,,,,,,,,,,,,,,,,,,,,
,,5,3,${e://Field/PROLIFIC_PID,M,34,2023-11-03_01h13.02.655,MouseEye_CC,2023.2.2,Win32,39.97281848,1.28,,,1366,768,55.116,4.31,"190.71, 191.94, 187.23, 177.02, 184.58, 175.38, 161.28",759.86,9.620533586,41.46449975,27.83653633,Passed,138.9060742,,,,,,,,,,,,,,,,,,,,,practice,0,2,0,left,a,,,,,438.4381,439.3174,35.84,2,1,1,0,0,0.8777,fixationPoint,439.3178,439.4015,439.4017,442.5306,35.84,10240,616.96,a,1,3.0938,,442.5311,442.7324,0,1,1,1,1,1,rich,39,169,66,-126,125,-169,169,-130,19,-169,-116,-125,-167,-224,-216,218,-129,171,-218,18,-208,166,26,17,170,180,90,360,270,90,90,90,270,180,180,270,,,,,,,,,,,,,,,,,,,,,,,,,,,,,,,,,,,,,,,,,,,,,,,,,,,,,,,,,,,,,,,,,,,,,
,,5,3,${e://Field/PROLIFIC_PID,M,34,2023-11-03_01h13.02.655,MouseEye_CC,2023.2.2,Win32,39.97281848,1.28,,,1366,768,55.116,4.31,"190.71, 191.94, 187.23, 177.02, 184.58, 175.38, 161.28",759.86,9.620533586,41.46449975,27.83653633,Passed,138.9060742,,,,,,,,,,,,,,,,,,,,,practice,0,3,0,left,a,,,,,442.734,443.5559,35.84,2,1,1,0,0,0.8213,fixationPoint,443.556,443.6543,443.6545,444.9085,35.84,10240,616.96,a,1,1.225,,444.9093,445.1016,0,2,2,2,1,2,sparse,22,-162,126,222,26,17,170,126,172,-25,-117,-175,-206,-224,-216,116,-19,130,-174,217,-164,-218,159,-21,162,90,90,180,360,360,270,360,360,360,360,180,,,,,,,,,,,,,,,,,,,,,,,,,,,,,,,,,,,,,,,,,,,,,,,,,,,,,,,,,,,,,,,,,,,,,
,,5,3,${e://Field/PROLIFIC_PID,M,34,2023-11-03_01h13.02.655,MouseEye_CC,2023.2.2,Win32,39.97281848,1.28,,,1366,768,55.116,4.31,"190.71, 191.94, 187.23, 177.02, 184.58, 175.38, 161.28",759.86,9.620533586,41.46449975,27.83653633,Passed,138.9060742,,,,,,,,,,,,,,,,,,,,,practice,0,4,180,right,s,,,,,445.1053,446.0831,35.84,2,1,1,0,0,0.9771,fixationPoint,446.0832,446.1792,446.1808,448.3257,35.84,10240,616.96,s,1,2.1131,,448.3258,448.5424,0,3,3,3,1,4,sparse,76,19,-128,159,121,214,216,219,165,-218,159,-162,126,-219,119,-169,-116,-111,-31,-175,-206,18,-208,81,-114,90,270,180,180,270,180,360,360,360,270,360,,,,,,,,,,,,,,,,,,,,,,,,,,,,,,,,,,,,,,,,,,,,,,,,,,,,,,,,,,,,,,,,,,,,,
,,5,3,${e://Field/PROLIFIC_PID,M,34,2023-11-03_01h13.02.655,MouseEye_CC,2023.2.2,Win32,39.97281848,1.28,,,1366,768,55.116,4.31,"190.71, 191.94, 187.23, 177.02, 184.58, 175.38, 161.28",759.86,9.620533586,41.46449975,27.83653633,Passed,138.9060742,,,,,,,,,,,,,,,,,,,,,practice,0,5,180,right,s,,,,,448.5438,449.3288,35.84,2,1,1,0,0,0.7841,fixationPoint,449.3295,449.4313,449.4326,450.6427,35.84,10240,616.96,s,1,1.1799,,450.6437,450.8364,0,4,4,4,1,3,sparse,85,-19,-173,219,165,68,123,214,216,-160,68,-64,120,-226,34,162,-21,224,-216,167,-163,-167,-74,-224,-216,360,360,360,90,180,270,90,360,270,270,360,,,,,,,,,,,,,,,,,,,,,,,,,,,,,,,,,,,,,,,,,,,,,,,,,,,,,,,,,,,,,,,,,,,,,
,,5,3,${e://Field/PROLIFIC_PID,M,34,2023-11-03_01h13.02.655,MouseEye_CC,2023.2.2,Win32,39.97281848,1.28,,,1366,768,55.116,4.31,"190.71, 191.94, 187.23, 177.02, 184.58, 175.38, 161.28",759.86,9.620533586,41.46449975,27.83653633,Passed,138.9060742,,,,,,,,,,,,,,,,,,,,,practice,0,6,180,right,s,,,,,450.8396,451.7367,35.84,4,7,1,0,0,0.8963,fixationPoint,451.7369,451.8321,451.8326,453.3395,35.84,10240,616.96,s,1,1.478,,453.3397,453.5361,0,5,5,5,1,3,sparse,95,-21,-224,126,172,219,165,166,26,-166,207,-223,206,-219,119,169,-75,18,-208,224,-216,-72,-121,-115,-130,180,180,360,180,360,180,270,180,90,180,360,,,,,,,,,,,,,,,,,,,,,,,,,,,,,,,,,,,,,,,,,,,,,,,,,,,,,,,,,,,,,,,,,,,,,
,,5,3,${e://Field/PROLIFIC_PID,M,34,2023-11-03_01h13.02.655,MouseEye_CC,2023.2.2,Win32,39.97281848,1.28,,,1366,768,55.116,4.31,"190.71, 191.94, 187.23, 177.02, 184.58, 175.38, 161.28",759.86,9.620533586,41.46449975,27.83653633,Passed,138.9060742,,,,,,,,,,,,,,,,,,,,,practice,0,7,0,left,a,,,,,453.5376,454.4982,35.84,4,4,1,0,0,0.96,fixationPoint,454.4986,454.5889,454.5895,456.3413,35.84,10240,616.96,a,1,1.7039,,456.3416,456.5361,0,6,6,6,1,1,rich,7,62,223,-166,207,-226,34,-162,126,-169,-116,-168,-160,-161,-27,15,-162,162,-21,79,-175,219,165,219,129,180,180,360,180,270,360,180,360,270,180,360,,,,,,,,,,,,,,,,,,,,,,,,,,,,,,,,,,,,,,,,,,,,,,,,,,,,,,,,,,,,,,,,,,,,,
,,5,3,${e://Field/PROLIFIC_PID,M,34,2023-11-03_01h13.02.655,MouseEye_CC,2023.2.2,Win32,39.97281848,1.28,,,1366,768,55.116,4.31,"190.71, 191.94, 187.23, 177.02, 184.58, 175.38, 161.28",759.86,9.620533586,41.46449975,27.83653633,Passed,138.9060742,,,,,,,,,,,,,,,,,,,,,practice,0,8,180,right,s,,,,,456.5386,457.4421,35.84,4,4,1,0,0,0.9025,fixationPoint,457.4425,457.5218,457.522,461.1736,35.84,10240,616.96,s,1,3.6206,,461.1739,461.392,0,7,7,7,1,2,sparse,24,-64,120,18,215,126,172,33,121,-206,-170,-64,-162,-218,-78,130,-174,211,-74,168,-130,-164,32,-21,162,90,180,270,360,180,90,180,180,180,360,270,,,,,,,,,,,,,,,,,,,,,,,,,,,,,,,,,,,,,,,,,,,,,,,,,,,,,,,,,,,,,,,,,,,,,
,,5,3,${e://Field/PROLIFIC_PID,M,34,2023-11-03_01h13.02.655,MouseEye_CC,2023.2.2,Win32,39.97281848,1.28,,,1366,768,55.116,4.31,"190.71, 191.94, 187.23, 177.02, 184.58, 175.38, 161.28",759.86,9.620533586,41.46449975,27.83653633,Passed,138.9060742,,,,,,,,,,,,,,,,,,,,,practice,0,9,180,right,s,,,,,461.3934,462.5938,35.84,4,4,1,0,0,1.1996,fixationPoint,462.5943,462.6966,462.6968,466.4575,35.84,10240,616.96,a,0,3.7325,,466.4578,470.4581,0,8,8,8,1,3,sparse,85,-19,-173,127,30,62,223,217,67,-110,82,-21,162,-80,218,167,-163,126,-79,130,-174,-125,-167,-68,-219,360,360,360,180,360,360,180,270,90,360,180,,,,,,,,,,,,,,,,,,,,,,,,,,,,,,,,,,,,,,,,,,,,,,,,,,,,,,,,,,,,,,,,,,,,,
,,5,3,${e://Field/PROLIFIC_PID,M,34,2023-11-03_01h13.02.655,MouseEye_CC,2023.2.2,Win32,39.97281848,1.28,,,1366,768,55.116,4.31,"190.71, 191.94, 187.23, 177.02, 184.58, 175.38, 161.28",759.86,9.620533586,41.46449975,27.83653633,Passed,138.9060742,,,,,,,,,,,,,,,,,,,,,practice,0,10,180,right,s,,,,,470.4963,476.9377,35.84,5,3,1,0,0,6.4407,fixationPoint,476.9382,477.0128,477.0133,479.961,35.84,10240,616.96,s,1,2.9002,,479.9617,480.1574,0,9,9,9,1,1,rich,9,160,209,-166,207,-226,34,-120,223,-224,-120,-118,-217,-218,-78,112,-209,126,-113,169,-75,178,160,110,129,180,90,90,270,360,270,360,180,360,180,360,,,,,,,,,,,,,,,,,,,,,,,,,,,,,,,,,,,,,,,,,,,,,,,,,,,,,,,,,,,,,,,,,,,,,
,,5,3,${e://Field/PROLIFIC_PID,M,34,2023-11-03_01h13.02.655,MouseEye_CC,2023.2.2,Win32,39.97281848,1.28,,,1366,768,55.116,4.31,"190.71, 191.94, 187.23, 177.02, 184.58, 175.38, 161.28",759.86,9.620533586,41.46449975,27.83653633,Passed,138.9060742,,,,,,,,,,,,,,,,,,,,,practice,0,11,180,right,s,,,,,480.16,480.884,35.84,5,3,1,0,0,0.7234,fixationPoint,480.8845,480.9794,480.98,483.4402,35.84,10240,616.96,s,1,2.4284,,483.4407,483.6357,0,10,10,10,1,4,sparse,80,218,-129,62,223,159,121,110,129,-218,159,-223,206,-75,173,-169,-116,-118,-217,-125,-167,217,-164,169,-75,360,270,360,180,360,180,180,270,360,180,90,,,,,,,,,,,,,,,,,,,,,,,,,,,,,,,,,,,,,,,,,,,,,,,,,,,,,,,,,,,,,,,,,,,,,
,,5,3,${e://Field/PROLIFIC_PID,M,34,2023-11-03_01h13.02.655,MouseEye_CC,2023.2.2,Win32,39.97281848,1.28,,,1366,768,55.116,4.31,"190.71, 191.94, 187.23, 177.02, 184.58, 175.38, 161.28",759.86,9.620533586,41.46449975,27.83653633,Passed,138.9060742,,,,,,,,,,,,,,,,,,,,,practice,0,12,0,left,a,,,,,483.6389,484.2284,35.84,5,3,1,0,0,0.5884,fixationPoint,484.2287,484.338,484.3383,485.3924,35.84,10240,616.96,a,1,1.0045,,485.3928,485.5886,0,11,11,11,1,3,sparse,75,-25,-117,110,129,125,63,214,216,-164,32,-27,117,-126,125,171,-218,126,-113,167,-163,-21,-224,-212,-21,270,180,180,360,180,270,360,270,360,180,270,,,,,,,,,,,,,,,,,,,,,,,,,,,,,,,,,,,,,,,,,,,,,,,,,,,,,,,,,,,,,,,,,,,,,
,,5,3,${e://Field/PROLIFIC_PID,M,34,2023-11-03_01h13.02.655,MouseEye_CC,2023.2.2,Win32,39.97281848,1.28,,,1366,768,55.116,4.31,"190.71, 191.94, 187.23, 177.02, 184.58, 175.38, 161.28",759.86,9.620533586,41.46449975,27.83653633,Passed,138.9060742,,,,,,,,,,,,,,,,,,,,,,,,,,,,,,,,,,,,,,,,,,,,,,,,,,,,,,,,,,,,,,,,,,,,,,,,,,,,,,,,,,,,,,,,,,,,,,,,,485.5944,495.5841,a,1,9.9479,,,,,,,,,,,,,,,,,,,,,,,,,,,,,,,,,,,,,,,,,,,,,,,,,,,,,,,,,,,,,,,,
,,5,3,${e://Field/PROLIFIC_PID,M,34,2023-11-03_01h13.02.655,MouseEye_CC,2023.2.2,Win32,39.97281848,1.28,,,1366,768,55.116,4.31,"190.71, 191.94, 187.23, 177.02, 184.58, 175.38, 161.28",759.86,9.620533586,41.46449975,27.83653633,Passed,138.9060742,,,,,,,,,,,,,,,,,,,,,,,,,,,,,,,,,,,,,,,,,,,,,,,,,,,,,,,,,,,,,,,,,,,,,,,,,,,,,,,,,,,,,,,,,,,,,,,,,,,,,,,495.5856,501.0056,,,,,,,,,,,,,,,,,,,,,,,,,,,,,,,,,,,,,,,,,,,,,,,,,,,,,,,,,,,,,
,,5,3,${e://Field/PROLIFIC_PID,M,34,2023-11-03_01h13.02.655,MouseEye_CC,2023.2.2,Win32,39.97281848,1.28,,,1366,768,55.116,4.31,"190.71, 191.94, 187.23, 177.02, 184.58, 175.38, 161.28",759.86,9.620533586,41.46449975,27.83653633,Passed,138.9060742,,,,,,,,,,,,,,,,,,,,,,,,,,,,,,,,,,,,,,,,,,,,,,,,,,,,,,,,,,,,,,,,,,,,,,,,,,,,,,,,,,,,,,,,,,,,,,,,,,,,,,,,,501.0069,522.9559,,,,,,,,,,,,,,,,,,,,,,,,,,,,,,,,,,,,,,,,,,,,,,,,,,,,,,,,,,,
,,5,3,${e://Field/PROLIFIC_PID,M,34,2023-11-03_01h13.02.655,MouseEye_CC,2023.2.2,Win32,39.97281848,1.28,,,1366,768,55.116,4.31,"190.71, 191.94, 187.23, 177.02, 184.58, 175.38, 161.28",759.86,9.620533586,41.46449975,27.83653633,Passed,138.9060742,,,,,,,,,,,,,,,,,,,,,training,1,1,0,left,a,,,,,523.7918,525.048,35.84,-7,2,1,0,0,1.2557,fixationPoint,525.0482,525.1479,525.1482,530.1305,35.84,10240,616.96,a,1,4.9554,,530.131,530.3334,,,,,,,,52,-176,-24,174,64,216,122,166,212,-120,76,-126,120,-128,26,116,-19,19,-116,208,-75,-167,-128,-66,-77,90,90,270,180,270,270,180,360,360,270,180,,,,,,,,,,,530.3367,530.3469,,0,0,0,0,1,6,repeated,,,,,,,,,,,,,,,,,,,,,,,,,,,,,,,,,,,,,,,,,,,,,,,,,
,,5,3,${e://Field/PROLIFIC_PID,M,34,2023-11-03_01h13.02.655,MouseEye_CC,2023.2.2,Win32,39.97281848,1.28,,,1366,768,55.116,4.31,"190.71, 191.94, 187.23, 177.02, 184.58, 175.38, 161.28",759.86,9.620533586,41.46449975,27.83653633,Passed,138.9060742,,,,,,,,,,,,,,,,,,,,,training,1,2,180,right,s,,,,,530.3485,531.7525,35.84,2,-2,1,0,0,1.4037,fixationPoint,531.7527,531.8478,531.8483,534.2827,35.84,10240,616.96,s,1,2.4047,,534.2833,534.4828,,,,,,,,13,-124,175,166,212,31,22,169,164,-72,-165,-19,-29,-214,-124,124,-116,176,-216,24,-22,-171,126,-21,220,360,360,180,360,180,270,180,270,270,360,90,,,,,,,,,,,534.4831,534.4846,,0,1,1,1,1,3,repeated,,,,,,,,,,,,,,,,,,,,,,,,,,,,,,,,,,,,,,,,,,,,,,,,,
,,5,3,${e://Field/PROLIFIC_PID,M,34,2023-11-03_01h13.02.655,MouseEye_CC,2023.2.2,Win32,39.97281848,1.28,,,1366,768,55.116,4.31,"190.71, 191.94, 187.23, 177.02, 184.58, 175.38, 161.28",759.86,9.620533586,41.46449975,27.83653633,Passed,138.9060742,,,,,,,,,,,,,,,,,,,,,training,1,3,0,left,a,,,,,534.4877,538.8492,35.84,-4,0,1,0,0,4.3603,fixationPoint,538.8495,538.934,538.9343,541.2956,35.84,10240,616.96,a,1,2.3319,,541.2958,541.4834,,,,,,,,49,170,28,-163,209,-216,70,-78,29,-223,-220,-66,-77,-116,-123,124,-116,176,-176,77,-220,166,212,122,31,270,270,270,270,90,90,270,180,90,360,360,,,,,,,,,,,541.4836,541.4848,,0,2,2,2,1,14,novel,,,,,,,,,,,,,,,,,,,,,,,,,,,,,,,,,,,,,,,,,,,,,,,,,
,,5,3,${e://Field/PROLIFIC_PID,M,34,2023-11-03_01h13.02.655,MouseEye_CC,2023.2.2,Win32,39.97281848,1.28,,,1366,768,55.116,4.31,"190.71, 191.94, 187.23, 177.02, 184.58, 175.38, 161.28",759.86,9.620533586,41.46449975,27.83653633,Passed,138.9060742,,,,,,,,,,,,,,,,,,,,,training,1,4,180,right,s,,,,,541.4871,543.5344,35.84,-5,6,1,0,0,2.0466,fixationPoint,543.5345,543.6366,543.6368,546.9914,35.84,10240,616.96,s,1,3.3254,,546.992,547.1903,,,,,,,,93,-128,-222,172,127,112,119,66,22,-25,160,-160,18,-174,73,176,-176,77,-220,28,-75,-212,-80,-214,-124,360,360,90,180,270,180,360,180,360,270,90,,,,,,,,,,,547.1905,547.1915,,0,3,3,3,1,5,repeated,,,,,,,,,,,,,,,,,,,,,,,,,,,,,,,,,,,,,,,,,,,,,,,,,
,,5,3,${e://Field/PROLIFIC_PID,M,34,2023-11-03_01h13.02.655,MouseEye_CC,2023.2.2,Win32,39.97281848,1.28,,,1366,768,55.116,4.31,"190.71, 191.94, 187.23, 177.02, 184.58, 175.38, 161.28",759.86,9.620533586,41.46449975,27.83653633,Passed,138.9060742,,,,,,,,,,,,,,,,,,,,,training,1,5,0,left,a,,,,,547.1947,548.699,35.84,2,0,1,0,0,1.5035,fixationPoint,548.6993,548.765,548.7651,553.6229,35.84,10240,616.96,a,1,4.8308,,553.6233,553.8202,,,,,,,,12,-161,170,116,172,223,212,209,68,-167,-128,-174,-163,-220,-16,120,-165,24,-22,176,-216,-128,208,-216,70,180,90,270,270,90,90,360,270,180,270,360,,,,,,,,,,,553.8204,553.8212,,0,4,4,4,1,4,repeated,,,,,,,,,,,,,,,,,,,,,,,,,,,,,,,,,,,,,,,,,,,,,,,,,
,,5,3,${e://Field/PROLIFIC_PID,M,34,2023-11-03_01h13.02.655,MouseEye_CC,2023.2.2,Win32,39.97281848,1.28,,,1366,768,55.116,4.31,"190.71, 191.94, 187.23, 177.02, 184.58, 175.38, 161.28",759.86,9.620533586,41.46449975,27.83653633,Passed,138.9060742,,,,,,,,,,,,,,,,,,,,,training,1,6,180,right,s,,,,,553.823,554.8965,35.84,-1,6,1,0,0,1.0726,fixationPoint,554.8967,554.9964,554.9965,556.2984,35.84,10240,616.96,s,1,1.2688,,556.2986,556.4963,,,,,,,,8,123,215,-220,23,-75,123,-78,29,-176,-24,-26,-65,-171,-65,19,-116,23,-168,80,-73,20,75,169,164,180,270,270,270,270,180,180,270,90,270,90,,,,,,,,,,,556.4967,556.4977,,0,5,5,5,1,13,novel,,,,,,,,,,,,,,,,,,,,,,,,,,,,,,,,,,,,,,,,,,,,,,,,,
,,5,3,${e://Field/PROLIFIC_PID,M,34,2023-11-03_01h13.02.655,MouseEye_CC,2023.2.2,Win32,39.97281848,1.28,,,1366,768,55.116,4.31,"190.71, 191.94, 187.23, 177.02, 184.58, 175.38, 161.28",759.86,9.620533586,41.46449975,27.83653633,Passed,138.9060742,,,,,,,,,,,,,,,,,,,,,training,1,7,0,left,a,,,,,556.5009,557.347,35.84,3,4,1,0,0,0.8452,fixationPoint,557.3472,557.4482,557.4485,561.2656,35.84,10240,616.96,a,1,3.7899,,561.2663,561.451,,,,,,,,89,176,-176,74,216,31,166,77,78,-65,80,-28,78,-161,170,-112,-172,-176,-24,-29,-126,168,-77,123,-64,90,90,90,270,270,360,180,360,90,270,270,,,,,,,,,,,561.4512,561.4521,,0,6,6,6,1,12,novel,,,,,,,,,,,,,,,,,,,,,,,,,,,,,,,,,,,,,,,,,,,,,,,,,
,,5,3,${e://Field/PROLIFIC_PID,M,34,2023-11-03_01h13.02.655,MouseEye_CC,2023.2.2,Win32,39.97281848,1.28,,,1366,768,55.116,4.31,"190.71, 191.94, 187.23, 177.02, 184.58, 175.38, 161.28",759.86,9.620533586,41.46449975,27.83653633,Passed,138.9060742,,,,,,,,,,,,,,,,,,,,,training,1,8,0,left,a,,,,,561.4551,562.6034,35.84,-5,4,1,0,0,1.1474,fixationPoint,562.6036,562.702,562.7022,563.9088,35.84,10240,616.96,a,1,1.1791,,563.909,564.1091,,,,,,,,6,23,208,-160,18,-124,175,-171,126,-24,-174,-66,-77,-72,-165,123,-64,120,-165,219,-32,223,212,213,169,180,270,360,360,90,90,270,180,360,90,360,,,,,,,,,,,564.1095,564.1108,,0,7,7,7,1,1,repeated,,,,,,,,,,,,,,,,,,,,,,,,,,,,,,,,,,,,,,,,,,,,,,,,,
,,5,3,${e://Field/PROLIFIC_PID,M,34,2023-11-03_01h13.02.655,MouseEye_CC,2023.2.2,Win32,39.97281848,1.28,,,1366,768,55.116,4.31,"190.71, 191.94, 187.23, 177.02, 184.58, 175.38, 161.28",759.86,9.620533586,41.46449975,27.83653633,Passed,138.9060742,,,,,,,,,,,,,,,,,,,,,training,1,9,180,right,s,,,,,564.1131,564.7047,35.84,0,2,1,0,0,0.591,fixationPoint,564.7049,564.8036,564.8038,566.408,35.84,10240,616.96,s,1,1.5774,,566.4084,566.6047,,,,,,,,95,-31,-216,172,127,116,172,77,125,-66,172,-28,78,-174,73,217,-171,172,-24,176,-216,-29,-126,-223,-220,180,360,180,360,360,270,90,180,360,180,270,,,,,,,,,,,566.605,566.6061,,0,8,8,8,1,9,novel,,,,,,,,,,,,,,,,,,,,,,,,,,,,,,,,,,,,,,,,,,,,,,,,,
,,5,3,${e://Field/PROLIFIC_PID,M,34,2023-11-03_01h13.02.655,MouseEye_CC,2023.2.2,Win32,39.97281848,1.28,,,1366,768,55.116,4.31,"190.71, 191.94, 187.23, 177.02, 184.58, 175.38, 161.28",759.86,9.620533586,41.46449975,27.83653633,Passed,138.9060742,,,,,,,,,,,,,,,,,,,,,training,1,10,0,left,a,,,,,566.6084,567.1101,35.84,0,2,1,0,0,0.5012,fixationPoint,567.1104,567.2046,567.2051,570.1178,35.84,10240,616.96,a,1,2.8817,,570.118,570.3283,,,,,,,,5,-21,220,31,22,172,127,169,164,-112,-172,-69,-32,-31,-216,168,-117,176,-216,208,-75,-128,26,-22,25,180,360,360,180,90,90,180,180,360,180,90,,,,,,,,,,,570.3286,570.3297,,0,9,9,9,1,15,novel,,,,,,,,,,,,,,,,,,,,,,,,,,,,,,,,,,,,,,,,,,,,,,,,,
,,5,3,${e://Field/PROLIFIC_PID,M,34,2023-11-03_01h13.02.655,MouseEye_CC,2023.2.2,Win32,39.97281848,1.28,,,1366,768,55.116,4.31,"190.71, 191.94, 187.23, 177.02, 184.58, 175.38, 161.28",759.86,9.620533586,41.46449975,27.83653633,Passed,138.9060742,,,,,,,,,,,,,,,,,,,,,training,1,11,0,left,a,,,,,570.3321,570.8599,35.84,0,2,1,0,0,0.5271,fixationPoint,570.8602,570.9401,570.9403,573.0377,35.84,10240,616.96,a,1,2.0517,,573.0378,573.2359,,,,,,,,72,-167,-128,123,215,172,127,121,73,-21,220,-28,78,-124,175,120,-165,28,-220,176,-176,-171,-65,-174,-163,90,270,270,180,360,360,180,360,180,90,180,,,,,,,,,,,573.2362,573.2372,,0,10,10,10,1,10,novel,,,,,,,,,,,,,,,,,,,,,,,,,,,,,,,,,,,,,,,,,,,,,,,,,
,,5,3,${e://Field/PROLIFIC_PID,M,34,2023-11-03_01h13.02.655,MouseEye_CC,2023.2.2,Win32,39.97281848,1.28,,,1366,768,55.116,4.31,"190.71, 191.94, 187.23, 177.02, 184.58, 175.38, 161.28",759.86,9.620533586,41.46449975,27.83653633,Passed,138.9060742,,,,,,,,,,,,,,,,,,,,,training,1,12,0,left,a,,,,,573.2396,573.8586,35.84,0,2,1,0,0,0.6182,fixationPoint,573.8588,573.9615,573.9617,577.2199,35.84,10240,616.96,a,1,3.231,,577.2204,577.4136,,,,,,,,96,28,-220,76,176,170,28,28,115,-25,160,-220,165,-128,208,-124,-67,-171,-65,-66,-77,172,-24,124,-116,90,270,180,180,360,360,90,360,270,90,270,,,,,,,,,,,577.4137,577.4146,,0,11,11,11,1,7,repeated,,,,,,,,,,,,,,,,,,,,,,,,,,,,,,,,,,,,,,,,,,,,,,,,,
,,5,3,${e://Field/PROLIFIC_PID,M,34,2023-11-03_01h13.02.655,MouseEye_CC,2023.2.2,Win32,39.97281848,1.28,,,1366,768,55.116,4.31,"190.71, 191.94, 187.23, 177.02, 184.58, 175.38, 161.28",759.86,9.620533586,41.46449975,27.83653633,Passed,138.9060742,,,,,,,,,,,,,,,,,,,,,training,1,13,180,right,s,,,,,577.4159,577.9925,35.84,0,2,1,0,0,0.5755,fixationPoint,577.9928,578.1021,578.1024,583.4807,35.84,10240,616.96,s,1,5.3362,,583.481,583.6694,,,,,,,,32,-174,73,172,127,122,31,123,215,-124,-67,-223,-220,-221,-164,172,-24,215,-210,222,-116,-66,172,-28,78,90,360,90,360,180,270,270,180,270,360,90,,,,,,,,,,,583.6696,583.6704,,0,12,12,12,1,16,novel,,,,,,,,,,,,,,,,,,,,,,,,,,,,,,,,,,,,,,,,,,,,,,,,,
,,5,3,${e://Field/PROLIFIC_PID,M,34,2023-11-03_01h13.02.655,MouseEye_CC,2023.2.2,Win32,39.97281848,1.28,,,1366,768,55.116,4.31,"190.71, 191.94, 187.23, 177.02, 184.58, 175.38, 161.28",759.86,9.620533586,41.46449975,27.83653633,Passed,138.9060742,,,,,,,,,,,,,,,,,,,,,training,1,14,180,right,s,,,,,583.672,584.3954,35.84,2,3,1,0,0,0.7225,fixationPoint,584.3957,584.4917,584.492,587.4561,35.84,10240,616.96,s,1,2.9306,,587.4567,587.6489,,,,,,,,88,120,-165,216,122,31,22,23,208,-216,70,-65,80,-75,123,-66,-77,-124,-67,-19,-29,168,-77,168,-117,180,90,180,90,360,90,360,180,90,360,180,,,,,,,,,,,587.6494,587.6524,,0,13,13,13,1,11,novel,,,,,,,,,,,,,,,,,,,,,,,,,,,,,,,,,,,,,,,,,,,,,,,,,
,,5,3,${e://Field/PROLIFIC_PID,M,34,2023-11-03_01h13.02.655,MouseEye_CC,2023.2.2,Win32,39.97281848,1.28,,,1366,768,55.116,4.31,"190.71, 191.94, 187.23, 177.02, 184.58, 175.38, 161.28",759.86,9.620533586,41.46449975,27.83653633,Passed,138.9060742,,,,,,,,,,,,,,,,,,,,,training,1,15,180,right,s,,,,,587.6545,588.0622,35.84,2,3,1,0,0,0.4071,fixationPoint,588.0623,588.1606,588.161,591.1084,35.84,10240,616.96,s,1,2.9181,,591.1085,591.321,,,,,,,,69,168,-77,28,115,77,125,31,166,-174,73,-80,224,-160,18,-176,-24,-223,-220,-26,-65,217,-171,28,-75,90,180,180,180,90,180,180,360,180,270,90,,,,,,,,,,,591.3213,591.3222,,0,14,14,14,1,8,repeated,,,,,,,,,,,,,,,,,,,,,,,,,,,,,,,,,,,,,,,,,,,,,,,,,
,,5,3,${e://Field/PROLIFIC_PID,M,34,2023-11-03_01h13.02.655,MouseEye_CC,2023.2.2,Win32,39.97281848,1.28,,,1366,768,55.116,4.31,"190.71, 191.94, 187.23, 177.02, 184.58, 175.38, 161.28",759.86,9.620533586,41.46449975,27.83653633,Passed,138.9060742,,,,,,,,,,,,,,,,,,,,,training,1,16,180,right,s,,,,,591.3238,591.6153,35.84,2,3,1,0,0,0.2907,fixationPoint,591.6156,591.6998,591.7,594.663,35.84,10240,616.96,a,0,2.9329,,594.6633,598.6711,,,,,,,,29,172,127,-65,80,-78,29,-161,170,-220,-16,-69,-32,-116,-123,176,-176,116,-19,28,-220,169,164,28,115,270,270,270,360,90,360,180,90,270,360,270,,,,,,,,,,,598.6712,609.823,space,0,15,15,15,1,2,repeated,11.0582,,,,,,,,,,,,,,,,,,,,,,,,,,,,,,,,,,,,,,,,,,,,,,,,
,,5,3,${e://Field/PROLIFIC_PID,M,34,2023-11-03_01h13.02.655,MouseEye_CC,2023.2.2,Win32,39.97281848,1.28,,,1366,768,55.116,4.31,"190.71, 191.94, 187.23, 177.02, 184.58, 175.38, 161.28",759.86,9.620533586,41.46449975,27.83653633,Passed,138.9060742,,,,,,,,,,,,,,,,,,,,,training,2,1,180,right,s,,,,,609.8575,611.9015,35.84,0,-1,1,0,0,2.0429,fixationPoint,611.902,611.9694,611.9697,615.0257,35.84,10240,616.96,s,1,3.0253,,615.0268,615.2184,,,,,,,,52,-176,-24,174,64,216,122,166,212,-120,76,-126,120,-128,26,116,-19,19,-116,208,-75,-167,-128,-66,-77,360,270,90,180,180,270,360,180,360,90,90,,,,,,,,,,,615.2186,615.2277,,0,16,16,16,1,6,repeated,,,,,,,,,,,,,,,,,,,,,,,,,,,,,,,,,,,,,,,,,,,,,,,,,
,,5,3,${e://Field/PROLIFIC_PID,M,34,2023-11-03_01h13.02.655,MouseEye_CC,2023.2.2,Win32,39.97281848,1.28,,,1366,768,55.116,4.31,"190.71, 191.94, 187.23, 177.02, 184.58, 175.38, 161.28",759.86,9.620533586,41.46449975,27.83653633,Passed,138.9060742,,,,,,,,,,,,,,,,,,,,,training,2,2,180,right,s,,,,,615.2295,615.7731,35.84,0,-2,1,0,0,0.5432,fixationPoint,615.7733,615.8698,615.8703,617.6774,35.84,10240,616.96,s,1,1.7766,,617.6782,617.8803,,,,,,,,89,176,-176,213,169,166,212,76,176,-171,126,-128,26,-161,170,-66,-77,-123,-24,-24,-174,28,-75,168,-117,270,180,270,180,180,180,180,270,360,270,180,,,,,,,,,,,617.8805,617.8813,,0,17,17,17,1,12,novel,,,,,,,,,,,,,,,,,,,,,,,,,,,,,,,,,,,,,,,,,,,,,,,,,
,,5,3,${e://Field/PROLIFIC_PID,M,34,2023-11-03_01h13.02.655,MouseEye_CC,2023.2.2,Win32,39.97281848,1.28,,,1366,768,55.116,4.31,"190.71, 191.94, 187.23, 177.02, 184.58, 175.38, 161.28",759.86,9.620533586,41.46449975,27.83653633,Passed,138.9060742,,,,,,,,,,,,,,,,,,,,,training,2,3,0,left,a,,,,,617.8842,618.3272,35.84,0,-4,1,0,0,0.4417,fixationPoint,618.3277,618.4256,618.429,621.6279,35.84,10240,616.96,a,1,3.1666,,621.6286,621.8279,,,,,,,,12,-161,170,116,172,223,212,209,68,-167,-128,-174,-163,-220,-16,120,-165,24,-22,176,-216,-128,208,-216,70,180,270,270,180,270,270,180,180,90,90,90,,,,,,,,,,,621.8282,621.8292,,0,18,18,18,1,4,repeated,,,,,,,,,,,,,,,,,,,,,,,,,,,,,,,,,,,,,,,,,,,,,,,,,
,,5,3,${e://Field/PROLIFIC_PID,M,34,2023-11-03_01h13.02.655,MouseEye_CC,2023.2.2,Win32,39.97281848,1.28,,,1366,768,55.116,4.31,"190.71, 191.94, 187.23, 177.02, 184.58, 175.38, 161.28",759.86,9.620533586,41.46449975,27.83653633,Passed,138.9060742,,,,,,,,,,,,,,,,,,,,,training,2,4,180,right,s,,,,,621.8322,622.2042,35.84,-1,-5,1,0,0,0.371,fixationPoint,622.2044,622.3037,622.3038,624.8847,35.84,10240,616.96,s,1,2.5507,,624.8851,625.0796,,,,,,,,29,172,127,-65,80,-78,29,-161,170,-220,-16,-69,-32,-116,-123,176,-176,116,-19,28,-220,169,164,28,115,270,270,360,180,180,360,180,270,270,360,360,,,,,,,,,,,625.0798,625.0806,,0,19,19,19,1,2,repeated,,,,,,,,,,,,,,,,,,,,,,,,,,,,,,,,,,,,,,,,,,,,,,,,,
,,5,3,${e://Field/PROLIFIC_PID,M,34,2023-11-03_01h13.02.655,MouseEye_CC,2023.2.2,Win32,39.97281848,1.28,,,1366,768,55.116,4.31,"190.71, 191.94, 187.23, 177.02, 184.58, 175.38, 161.28",759.86,9.620533586,41.46449975,27.83653633,Passed,138.9060742,,,,,,,,,,,,,,,,,,,,,training,2,5,0,left,a,,,,,625.0835,625.805,35.84,-1,-5,1,0,0,0.7206,fixationPoint,625.8053,625.9016,625.9021,628.0921,35.84,10240,616.96,a,1,2.1594,,628.0925,628.2848,,,,,,,,93,-128,-222,172,127,112,119,66,22,-25,160,-160,18,-174,73,176,-176,77,-220,28,-75,-212,-80,-214,-124,270,90,180,90,360,90,90,270,90,180,90,,,,,,,,,,,628.2851,628.2866,,0,20,20,20,1,5,repeated,,,,,,,,,,,,,,,,,,,,,,,,,,,,,,,,,,,,,,,,,,,,,,,,,
,,5,3,${e://Field/PROLIFIC_PID,M,34,2023-11-03_01h13.02.655,MouseEye_CC,2023.2.2,Win32,39.97281848,1.28,,,1366,768,55.116,4.31,"190.71, 191.94, 187.23, 177.02, 184.58, 175.38, 161.28",759.86,9.620533586,41.46449975,27.83653633,Passed,138.9060742,,,,,,,,,,,,,,,,,,,,,training,2,6,0,left,a,,,,,628.2894,628.6735,35.84,-1,-5,1,0,0,0.383,fixationPoint,628.674,628.7561,628.7563,631.6867,35.84,10240,616.96,a,1,2.8993,,631.6871,631.8893,,,,,,,,88,120,-165,31,22,31,166,74,216,-161,170,-128,208,-66,172,-212,-80,-66,-77,-123,-24,24,-22,19,-116,180,180,270,180,270,90,90,90,180,360,180,,,,,,,,,,,631.8895,631.8904,,0,21,21,21,1,11,novel,,,,,,,,,,,,,,,,,,,,,,,,,,,,,,,,,,,,,,,,,,,,,,,,,
,,5,3,${e://Field/PROLIFIC_PID,M,34,2023-11-03_01h13.02.655,MouseEye_CC,2023.2.2,Win32,39.97281848,1.28,,,1366,768,55.116,4.31,"190.71, 191.94, 187.23, 177.02, 184.58, 175.38, 161.28",759.86,9.620533586,41.46449975,27.83653633,Passed,138.9060742,,,,,,,,,,,,,,,,,,,,,training,2,7,0,left,a,,,,,631.8921,632.2619,35.84,-1,-5,1,0,0,0.369,fixationPoint,632.2621,632.356,632.3569,636.2127,35.84,10240,616.96,a,1,3.8239,,636.2128,636.4033,,,,,,,,6,23,208,-160,18,-124,175,-171,126,-24,-174,-66,-77,-72,-165,123,-64,120,-165,219,-32,223,212,213,169,270,270,360,180,180,90,90,270,270,180,360,,,,,,,,,,,636.4035,636.4042,,0,22,22,22,1,1,repeated,,,,,,,,,,,,,,,,,,,,,,,,,,,,,,,,,,,,,,,,,,,,,,,,,
,,5,3,${e://Field/PROLIFIC_PID,M,34,2023-11-03_01h13.02.655,MouseEye_CC,2023.2.2,Win32,39.97281848,1.28,,,1366,768,55.116,4.31,"190.71, 191.94, 187.23, 177.02, 184.58, 175.38, 161.28",759.86,9.620533586,41.46449975,27.83653633,Passed,138.9060742,,,,,,,,,,,,,,,,,,,,,training,2,8,0,left,a,,,,,636.4068,637.6447,35.84,6,10,1,0,0,1.237,fixationPoint,637.645,637.7191,637.7193,639.6148,35.84,10240,616.96,a,1,1.8651,,639.6151,639.8114,,,,,,,,72,-167,-128,112,119,116,172,31,166,-75,123,-218,209,-171,126,77,-220,176,-216,80,-73,-220,-16,-174,-163,180,90,270,90,90,360,270,90,180,270,90,,,,,,,,,,,639.8123,639.8137,,0,23,23,23,1,10,novel,,,,,,,,,,,,,,,,,,,,,,,,,,,,,,,,,,,,,,,,,,,,,,,,,
,,5,3,${e://Field/PROLIFIC_PID,M,34,2023-11-03_01h13.02.655,MouseEye_CC,2023.2.2,Win32,39.97281848,1.28,,,1366,768,55.116,4.31,"190.71, 191.94, 187.23, 177.02, 184.58, 175.38, 161.28",759.86,9.620533586,41.46449975,27.83653633,Passed,138.9060742,,,,,,,,,,,,,,,,,,,,,training,2,9,180,right,s,,,,,639.8169,640.8195,35.84,1,5,1,0,0,1.0018,fixationPoint,640.8199,640.8976,640.8982,642.6434,35.84,10240,616.96,s,1,1.6991,,642.6436,642.8458,,,,,,,,13,-124,175,166,212,31,22,169,164,-72,-165,-19,-29,-214,-124,124,-116,176,-216,24,-22,-171,126,-21,220,360,180,270,270,360,180,270,180,360,90,270,,,,,,,,,,,642.8461,642.8468,,0,24,24,24,1,3,repeated,,,,,,,,,,,,,,,,,,,,,,,,,,,,,,,,,,,,,,,,,,,,,,,,,
,,5,3,${e://Field/PROLIFIC_PID,M,34,2023-11-03_01h13.02.655,MouseEye_CC,2023.2.2,Win32,39.97281848,1.28,,,1366,768,55.116,4.31,"190.71, 191.94, 187.23, 177.02, 184.58, 175.38, 161.28",759.86,9.620533586,41.46449975,27.83653633,Passed,138.9060742,,,,,,,,,,,,,,,,,,,,,training,2,10,180,right,s,,,,,642.8488,643.2792,35.84,1,5,1,0,0,0.4294,fixationPoint,643.2797,643.3458,643.346,645.5143,35.84,10240,616.96,s,1,2.1387,,645.5145,645.6974,,,,,,,,96,28,-220,76,176,170,28,28,115,-25,160,-220,165,-128,208,-124,-67,-171,-65,-66,-77,172,-24,124,-116,90,90,180,180,270,180,180,180,90,360,90,,,,,,,,,,,645.6975,645.6983,,0,25,25,25,1,7,repeated,,,,,,,,,,,,,,,,,,,,,,,,,,,,,,,,,,,,,,,,,,,,,,,,,
,,5,3,${e://Field/PROLIFIC_PID,M,34,2023-11-03_01h13.02.655,MouseEye_CC,2023.2.2,Win32,39.97281848,1.28,,,1366,768,55.116,4.31,"190.71, 191.94, 187.23, 177.02, 184.58, 175.38, 161.28",759.86,9.620533586,41.46449975,27.83653633,Passed,138.9060742,,,,,,,,,,,,,,,,,,,,,training,2,11,180,right,s,,,,,645.7012,645.9219,35.84,1,5,1,0,0,0.2199,fixationPoint,645.9222,646.0206,646.021,649.4332,35.84,10240,616.96,s,1,3.3604,,649.4334,649.6233,,,,,,,,8,123,215,-174,73,-124,175,-66,172,-176,-24,-77,-223,-212,-80,208,-75,168,-77,124,-116,112,119,169,164,270,90,360,180,90,90,270,270,180,180,180,,,,,,,,,,,649.6234,649.624,,0,26,26,26,1,13,novel,,,,,,,,,,,,,,,,,,,,,,,,,,,,,,,,,,,,,,,,,,,,,,,,,
,,5,3,${e://Field/PROLIFIC_PID,M,34,2023-11-03_01h13.02.655,MouseEye_CC,2023.2.2,Win32,39.97281848,1.28,,,1366,768,55.116,4.31,"190.71, 191.94, 187.23, 177.02, 184.58, 175.38, 161.28",759.86,9.620533586,41.46449975,27.83653633,Passed,138.9060742,,,,,,,,,,,,,,,,,,,,,training,2,12,180,right,s,,,,,649.6254,649.9174,35.84,1,5,1,0,0,0.291,fixationPoint,649.9177,650.027,650.0272,652.1024,35.84,10240,616.96,s,1,2.0472,,652.1027,652.302,,,,,,,,69,168,-77,28,115,77,125,31,166,-174,73,-80,224,-160,18,-176,-24,-223,-220,-26,-65,217,-171,28,-75,90,270,180,270,270,360,90,270,90,360,90,,,,,,,,,,,652.3022,652.3029,,0,27,27,27,1,8,repeated,,,,,,,,,,,,,,,,,,,,,,,,,,,,,,,,,,,,,,,,,,,,,,,,,
,,5,3,${e://Field/PROLIFIC_PID,M,34,2023-11-03_01h13.02.655,MouseEye_CC,2023.2.2,Win32,39.97281848,1.28,,,1366,768,55.116,4.31,"190.71, 191.94, 187.23, 177.02, 184.58, 175.38, 161.28",759.86,9.620533586,41.46449975,27.83653633,Passed,138.9060742,,,,,,,,,,,,,,,,,,,,,training,2,13,0,left,a,,,,,652.3057,652.5275,35.84,1,5,1,0,0,0.2212,fixationPoint,652.5276,652.6201,652.621,653.9058,35.84,10240,616.96,a,1,1.2538,,653.906,654.1042,,,,,,,,49,170,28,-120,76,-65,80,-22,25,-112,-172,-214,-124,-31,-216,116,-19,217,-171,65,-169,208,20,31,166,90,270,360,270,180,360,270,360,90,270,180,,,,,,,,,,,654.1044,654.1054,,0,28,28,28,1,14,novel,,,,,,,,,,,,,,,,,,,,,,,,,,,,,,,,,,,,,,,,,,,,,,,,,
,,5,3,${e://Field/PROLIFIC_PID,M,34,2023-11-03_01h13.02.655,MouseEye_CC,2023.2.2,Win32,39.97281848,1.28,,,1366,768,55.116,4.31,"190.71, 191.94, 187.23, 177.02, 184.58, 175.38, 161.28",759.86,9.620533586,41.46449975,27.83653633,Passed,138.9060742,,,,,,,,,,,,,,,,,,,,,training,2,14,180,right,s,,,,,654.1094,654.3449,35.84,1,5,1,0,0,0.2349,fixationPoint,654.3452,654.4493,654.4497,656.2779,35.84,10240,616.96,s,1,1.7993,,656.2781,656.4606,,,,,,,,95,-31,-216,122,31,172,127,116,172,-220,23,-28,114,-220,165,116,-19,24,-22,215,-210,-223,-220,-214,-124,90,270,180,90,180,180,90,270,90,180,90,,,,,,,,,,,656.4608,656.4616,,0,29,29,29,1,9,novel,,,,,,,,,,,,,,,,,,,,,,,,,,,,,,,,,,,,,,,,,,,,,,,,,
,,5,3,${e://Field/PROLIFIC_PID,M,34,2023-11-03_01h13.02.655,MouseEye_CC,2023.2.2,Win32,39.97281848,1.28,,,1366,768,55.116,4.31,"190.71, 191.94, 187.23, 177.02, 184.58, 175.38, 161.28",759.86,9.620533586,41.46449975,27.83653633,Passed,138.9060742,,,,,,,,,,,,,,,,,,,,,training,2,15,0,left,a,,,,,656.4638,656.6693,35.84,1,5,1,0,0,0.2047,fixationPoint,656.6695,656.7604,656.7608,659.5625,35.84,10240,616.96,a,1,2.7669,,659.5627,659.764,,,,,,,,32,-174,73,77,125,20,75,166,212,-128,-222,-24,-174,-29,-126,65,-169,28,-220,172,-24,-218,209,-210,120,180,270,180,360,90,180,180,360,360,360,360,,,,,,,,,,,659.7644,659.7656,,0,30,30,30,1,16,novel,,,,,,,,,,,,,,,,,,,,,,,,,,,,,,,,,,,,,,,,,,,,,,,,,
,,5,3,${e://Field/PROLIFIC_PID,M,34,2023-11-03_01h13.02.655,MouseEye_CC,2023.2.2,Win32,39.97281848,1.28,,,1366,768,55.116,4.31,"190.71, 191.94, 187.23, 177.02, 184.58, 175.38, 161.28",759.86,9.620533586,41.46449975,27.83653633,Passed,138.9060742,,,,,,,,,,,,,,,,,,,,,training,2,16,0,left,a,,,,,659.7672,659.9829,35.84,1,5,1,0,0,0.2151,fixationPoint,659.983,660.0788,660.0791,662.4386,35.84,10240,616.96,a,1,2.3303,,662.439,662.6262,,,,,,,,5,-21,220,174,64,77,78,208,20,-176,-24,-220,-16,-214,-124,24,-22,208,-75,215,-210,-174,73,-128,208,90,360,180,180,180,270,360,90,180,180,180,,,,,,,,,,,662.6265,667.1471,space,0,31,31,31,1,15,novel,4.4778,,,,,,,,,,,,,,,,,,,,,,,,,,,,,,,,,,,,,,,,,,,,,,,,
,,5,3,${e://Field/PROLIFIC_PID,M,34,2023-11-03_01h13.02.655,MouseEye_CC,2023.2.2,Win32,39.97281848,1.28,,,1366,768,55.116,4.31,"190.71, 191.94, 187.23, 177.02, 184.58, 175.38, 161.28",759.86,9.620533586,41.46449975,27.83653633,Passed,138.9060742,,,,,,,,,,,,,,,,,,,,,training,3,1,180,right,s,,,,,667.1914,668.5032,35.84,1,4,1,0,0,1.3113,fixationPoint,668.5033,668.6014,668.6018,669.7168,35.84,10240,616.96,s,1,1.0742,,669.7171,669.9146,,,,,,,,12,-161,170,116,172,223,212,209,68,-167,-128,-174,-163,-220,-16,120,-165,24,-22,176,-216,-128,208,-216,70,360,180,90,360,360,180,180,90,270,180,90,,,,,,,,,,,669.9148,669.9218,,0,32,32,32,1,4,repeated,,,,,,,,,,,,,,,,,,,,,,,,,,,,,,,,,,,,,,,,,,,,,,,,,
,,5,3,${e://Field/PROLIFIC_PID,M,34,2023-11-03_01h13.02.655,MouseEye_CC,2023.2.2,Win32,39.97281848,1.28,,,1366,768,55.116,4.31,"190.71, 191.94, 187.23, 177.02, 184.58, 175.38, 161.28",759.86,9.620533586,41.46449975,27.83653633,Passed,138.9060742,,,,,,,,,,,,,,,,,,,,,training,3,2,0,left,a,,,,,669.9234,670.2175,35.84,0,3,1,0,0,0.2937,fixationPoint,670.2177,670.3158,670.3159,673.8236,35.84,10240,616.96,a,1,3.48,,673.8245,674.0438,,,,,,,,52,-176,-24,174,64,216,122,166,212,-120,76,-126,120,-128,26,116,-19,19,-116,208,-75,-167,-128,-66,-77,180,180,90,90,270,360,270,90,180,180,90,,,,,,,,,,,674.0438,674.0444,,0,33,33,33,1,6,repeated,,,,,,,,,,,,,,,,,,,,,,,,,,,,,,,,,,,,,,,,,,,,,,,,,
,,5,3,${e://Field/PROLIFIC_PID,M,34,2023-11-03_01h13.02.655,MouseEye_CC,2023.2.2,Win32,39.97281848,1.28,,,1366,768,55.116,4.31,"190.71, 191.94, 187.23, 177.02, 184.58, 175.38, 161.28",759.86,9.620533586,41.46449975,27.83653633,Passed,138.9060742,,,,,,,,,,,,,,,,,,,,,training,3,3,180,right,s,,,,,674.046,674.2459,35.84,0,3,1,0,0,0.1989,fixationPoint,674.2461,674.3396,674.3399,678.8815,35.84,10240,616.96,s,1,4.5085,,678.8816,679.0664,,,,,,,,5,-21,220,121,73,166,212,223,212,-72,-116,-77,-223,-221,-164,71,-22,208,-75,65,-169,-128,208,-25,160,270,90,90,360,180,270,360,270,180,180,90,,,,,,,,,,,679.0668,679.0688,,0,34,34,34,1,15,novel,,,,,,,,,,,,,,,,,,,,,,,,,,,,,,,,,,,,,,,,,,,,,,,,,
,,5,3,${e://Field/PROLIFIC_PID,M,34,2023-11-03_01h13.02.655,MouseEye_CC,2023.2.2,Win32,39.97281848,1.28,,,1366,768,55.116,4.31,"190.71, 191.94, 187.23, 177.02, 184.58, 175.38, 161.28",759.86,9.620533586,41.46449975,27.83653633,Passed,138.9060742,,,,,,,,,,,,,,,,,,,,,training,3,4,0,left,a,,,,,679.0713,679.4287,35.84,0,3,1,0,0,0.3569,fixationPoint,679.4288,679.5262,679.5264,681.4261,35.84,10240,616.96,a,1,1.8503,,681.4264,681.6207,,,,,,,,93,-128,-222,172,127,112,119,66,22,-25,160,-160,18,-174,73,176,-176,77,-220,28,-75,-212,-80,-214,-124,270,360,180,360,180,90,180,180,270,360,270,,,,,,,,,,,681.6211,681.6224,,0,35,35,35,1,5,repeated,,,,,,,,,,,,,,,,,,,,,,,,,,,,,,,,,,,,,,,,,,,,,,,,,
,,5,3,${e://Field/PROLIFIC_PID,M,34,2023-11-03_01h13.02.655,MouseEye_CC,2023.2.2,Win32,39.97281848,1.28,,,1366,768,55.116,4.31,"190.71, 191.94, 187.23, 177.02, 184.58, 175.38, 161.28",759.86,9.620533586,41.46449975,27.83653633,Passed,138.9060742,,,,,,,,,,,,,,,,,,,,,training,3,5,0,left,a,,,,,681.6249,681.8419,35.84,0,3,1,0,0,0.2163,fixationPoint,681.8422,681.9479,681.9482,683.4019,35.84,10240,616.96,a,1,1.423,,683.4022,683.597,,,,,,,,95,-31,-216,166,212,23,208,31,22,-128,26,-21,220,-174,73,176,-216,176,-176,65,-169,-221,-164,-167,-128,180,180,180,360,270,360,90,90,360,90,360,,,,,,,,,,,683.5972,683.5986,,0,36,36,36,1,9,novel,,,,,,,,,,,,,,,,,,,,,,,,,,,,,,,,,,,,,,,,,,,,,,,,,
,,5,3,${e://Field/PROLIFIC_PID,M,34,2023-11-03_01h13.02.655,MouseEye_CC,2023.2.2,Win32,39.97281848,1.28,,,1366,768,55.116,4.31,"190.71, 191.94, 187.23, 177.02, 184.58, 175.38, 161.28",759.86,9.620533586,41.46449975,27.83653633,Passed,138.9060742,,,,,,,,,,,,,,,,,,,,,training,3,6,0,left,a,,,,,683.6016,683.8177,35.84,0,3,1,0,0,0.2152,fixationPoint,683.818,683.923,683.9232,686.9634,35.84,10240,616.96,a,1,3.01,,686.964,687.1574,,,,,,,,32,-174,73,166,212,169,164,31,22,-124,-67,-66,-77,-220,-16,73,-127,19,-116,77,-220,-128,208,-128,26,90,360,90,360,270,360,90,360,360,360,360,,,,,,,,,,,687.1575,687.1582,,0,37,37,37,1,16,novel,,,,,,,,,,,,,,,,,,,,,,,,,,,,,,,,,,,,,,,,,,,,,,,,,
,,5,3,${e://Field/PROLIFIC_PID,M,34,2023-11-03_01h13.02.655,MouseEye_CC,2023.2.2,Win32,39.97281848,1.28,,,1366,768,55.116,4.31,"190.71, 191.94, 187.23, 177.02, 184.58, 175.38, 161.28",759.86,9.620533586,41.46449975,27.83653633,Passed,138.9060742,,,,,,,,,,,,,,,,,,,,,training,3,7,0,left,a,,,,,687.1611,687.4332,35.84,0,3,1,0,0,0.2712,fixationPoint,687.4336,687.5267,687.5272,688.9235,35.84,10240,616.96,a,1,1.3647,,688.9237,689.1277,,,,,,,,72,-167,-128,123,215,23,208,112,119,-210,120,-66,172,-120,76,208,-75,71,-22,219,-32,-128,-222,-174,-163,360,270,90,180,180,360,360,360,360,360,270,,,,,,,,,,,689.128,689.1297,,0,38,38,38,1,10,novel,,,,,,,,,,,,,,,,,,,,,,,,,,,,,,,,,,,,,,,,,,,,,,,,,
,,5,3,${e://Field/PROLIFIC_PID,M,34,2023-11-03_01h13.02.655,MouseEye_CC,2023.2.2,Win32,39.97281848,1.28,,,1366,768,55.116,4.31,"190.71, 191.94, 187.23, 177.02, 184.58, 175.38, 161.28",759.86,9.620533586,41.46449975,27.83653633,Passed,138.9060742,,,,,,,,,,,,,,,,,,,,,training,3,8,180,right,s,,,,,689.1338,689.3594,35.84,0,3,1,0,0,0.225,fixationPoint,689.3596,689.4539,689.4542,690.8197,35.84,10240,616.96,s,1,1.3359,,690.8203,691.0214,,,,,,,,96,28,-220,76,176,170,28,28,115,-25,160,-220,165,-128,208,-124,-67,-171,-65,-66,-77,172,-24,124,-116,360,180,360,270,180,90,360,360,270,270,270,,,,,,,,,,,691.0218,691.0232,,0,39,39,39,1,7,repeated,,,,,,,,,,,,,,,,,,,,,,,,,,,,,,,,,,,,,,,,,,,,,,,,,
,,5,3,${e://Field/PROLIFIC_PID,M,34,2023-11-03_01h13.02.655,MouseEye_CC,2023.2.2,Win32,39.97281848,1.28,,,1366,768,55.116,4.31,"190.71, 191.94, 187.23, 177.02, 184.58, 175.38, 161.28",759.86,9.620533586,41.46449975,27.83653633,Passed,138.9060742,,,,,,,,,,,,,,,,,,,,,training,3,9,180,right,s,,,,,691.0257,691.3402,35.84,0,3,1,0,0,0.3139,fixationPoint,691.3406,691.4302,691.4307,694.3973,35.84,10240,616.96,s,1,2.9359,,694.3976,694.5857,,,,,,,,89,176,-176,112,119,76,176,28,115,-163,209,-28,78,-128,26,-124,-67,-214,-124,-171,-65,24,-22,172,-24,360,90,270,270,360,360,270,360,180,360,180,,,,,,,,,,,694.5858,694.5866,,0,40,40,40,1,12,novel,,,,,,,,,,,,,,,,,,,,,,,,,,,,,,,,,,,,,,,,,,,,,,,,,
,,5,3,${e://Field/PROLIFIC_PID,M,34,2023-11-03_01h13.02.655,MouseEye_CC,2023.2.2,Win32,39.97281848,1.28,,,1366,768,55.116,4.31,"190.71, 191.94, 187.23, 177.02, 184.58, 175.38, 161.28",759.86,9.620533586,41.46449975,27.83653633,Passed,138.9060742,,,,,,,,,,,,,,,,,,,,,training,3,10,180,right,s,,,,,694.5878,694.9372,35.84,0,3,1,0,0,0.3488,fixationPoint,694.9374,695.039,695.0392,696.9427,35.84,10240,616.96,s,1,1.8761,,696.9432,697.1413,,,,,,,,8,123,215,-22,25,-25,160,-163,209,-26,-65,-77,-223,-31,-216,77,-220,168,-77,28,-220,74,216,170,28,180,90,180,90,90,90,90,90,270,270,180,,,,,,,,,,,697.1415,697.1424,,0,41,41,41,1,13,novel,,,,,,,,,,,,,,,,,,,,,,,,,,,,,,,,,,,,,,,,,,,,,,,,,
,,5,3,${e://Field/PROLIFIC_PID,M,34,2023-11-03_01h13.02.655,MouseEye_CC,2023.2.2,Win32,39.97281848,1.28,,,1366,768,55.116,4.31,"190.71, 191.94, 187.23, 177.02, 184.58, 175.38, 161.28",759.86,9.620533586,41.46449975,27.83653633,Passed,138.9060742,,,,,,,,,,,,,,,,,,,,,training,3,11,180,right,s,,,,,697.1446,697.4806,35.84,0,3,1,0,0,0.3348,fixationPoint,697.481,697.5675,697.5679,699.1476,35.84,10240,616.96,s,1,1.5502,,699.148,699.3411,,,,,,,,88,120,-165,77,78,66,22,169,164,-220,165,-210,120,-216,70,-31,-216,-66,-77,-221,-164,73,-127,28,-220,180,270,90,360,90,90,270,90,90,360,180,,,,,,,,,,,699.3413,699.342,,0,42,42,42,1,11,novel,,,,,,,,,,,,,,,,,,,,,,,,,,,,,,,,,,,,,,,,,,,,,,,,,
,,5,3,${e://Field/PROLIFIC_PID,M,34,2023-11-03_01h13.02.655,MouseEye_CC,2023.2.2,Win32,39.97281848,1.28,,,1366,768,55.116,4.31,"190.71, 191.94, 187.23, 177.02, 184.58, 175.38, 161.28",759.86,9.620533586,41.46449975,27.83653633,Passed,138.9060742,,,,,,,,,,,,,,,,,,,,,training,3,12,0,left,a,,,,,699.3432,699.5903,35.84,0,3,1,0,0,0.2465,fixationPoint,699.5906,699.6851,699.6855,705.8999,35.84,10240,616.96,a,1,6.1843,,705.9002,706.096,,,,,,,,29,172,127,-65,80,-78,29,-161,170,-220,-16,-69,-32,-116,-123,176,-176,116,-19,28,-220,169,164,28,115,360,360,180,180,90,270,90,360,90,90,270,,,,,,,,,,,706.0962,706.0969,,0,43,43,43,1,2,repeated,,,,,,,,,,,,,,,,,,,,,,,,,,,,,,,,,,,,,,,,,,,,,,,,,
,,5,3,${e://Field/PROLIFIC_PID,M,34,2023-11-03_01h13.02.655,MouseEye_CC,2023.2.2,Win32,39.97281848,1.28,,,1366,768,55.116,4.31,"190.71, 191.94, 187.23, 177.02, 184.58, 175.38, 161.28",759.86,9.620533586,41.46449975,27.83653633,Passed,138.9060742,,,,,,,,,,,,,,,,,,,,,training,3,13,180,right,s,,,,,706.0991,706.487,35.84,0,3,1,0,0,0.387,fixationPoint,706.4874,706.5917,706.5919,708.0046,35.84,10240,616.96,s,1,1.3822,,708.0049,708.1877,,,,,,,,69,168,-77,28,115,77,125,31,166,-174,73,-80,224,-160,18,-176,-24,-223,-220,-26,-65,217,-171,28,-75,180,270,360,180,90,270,270,360,90,90,270,,,,,,,,,,,708.188,708.1895,,0,44,44,44,1,8,repeated,,,,,,,,,,,,,,,,,,,,,,,,,,,,,,,,,,,,,,,,,,,,,,,,,
,,5,3,${e://Field/PROLIFIC_PID,M,34,2023-11-03_01h13.02.655,MouseEye_CC,2023.2.2,Win32,39.97281848,1.28,,,1366,768,55.116,4.31,"190.71, 191.94, 187.23, 177.02, 184.58, 175.38, 161.28",759.86,9.620533586,41.46449975,27.83653633,Passed,138.9060742,,,,,,,,,,,,,,,,,,,,,training,3,14,0,left,a,,,,,708.1914,708.5543,35.84,0,3,1,0,0,0.3624,fixationPoint,708.5545,708.6298,708.6301,709.6798,35.84,10240,616.96,a,1,1.0253,,709.6801,709.8746,,,,,,,,49,170,28,-161,170,-216,70,-128,208,-171,-65,-221,-164,-223,-220,176,-216,28,-220,24,-22,77,125,223,212,360,180,180,270,90,180,90,180,180,270,180,,,,,,,,,,,709.8747,709.8756,,0,45,45,45,1,14,novel,,,,,,,,,,,,,,,,,,,,,,,,,,,,,,,,,,,,,,,,,,,,,,,,,
,,5,3,${e://Field/PROLIFIC_PID,M,34,2023-11-03_01h13.02.655,MouseEye_CC,2023.2.2,Win32,39.97281848,1.28,,,1366,768,55.116,4.31,"190.71, 191.94, 187.23, 177.02, 184.58, 175.38, 161.28",759.86,9.620533586,41.46449975,27.83653633,Passed,138.9060742,,,,,,,,,,,,,,,,,,,,,training,3,15,0,left,a,,,,,709.8768,710.2148,35.84,0,3,1,0,0,0.3373,fixationPoint,710.2151,710.3022,710.3024,712.4269,35.84,10240,616.96,a,1,2.0728,,712.4272,712.6262,,,,,,,,6,23,208,-160,18,-124,175,-171,126,-24,-174,-66,-77,-72,-165,123,-64,120,-165,219,-32,223,212,213,169,360,180,90,180,90,270,360,180,360,180,90,,,,,,,,,,,712.6264,712.6271,,0,46,46,46,1,1,repeated,,,,,,,,,,,,,,,,,,,,,,,,,,,,,,,,,,,,,,,,,,,,,,,,,
,,5,3,${e://Field/PROLIFIC_PID,M,34,2023-11-03_01h13.02.655,MouseEye_CC,2023.2.2,Win32,39.97281848,1.28,,,1366,768,55.116,4.31,"190.71, 191.94, 187.23, 177.02, 184.58, 175.38, 161.28",759.86,9.620533586,41.46449975,27.83653633,Passed,138.9060742,,,,,,,,,,,,,,,,,,,,,training,3,16,180,right,s,,,,,712.6293,712.9779,35.84,0,3,1,0,0,0.3481,fixationPoint,712.9781,713.0763,713.0769,715.611,35.84,10240,616.96,s,1,2.5071,,715.6112,715.8043,,,,,,,,13,-124,175,166,212,31,22,169,164,-72,-165,-19,-29,-214,-124,124,-116,176,-216,24,-22,-171,126,-21,220,180,270,180,90,180,90,180,270,360,270,90,,,,,,,,,,,715.8047,724.0456,space,0,47,47,47,1,3,repeated,8.2042,,,,,,,,,,,,,,,,,,,,,,,,,,,,,,,,,,,,,,,,,,,,,,,,
,,5,3,${e://Field/PROLIFIC_PID,M,34,2023-11-03_01h13.02.655,MouseEye_CC,2023.2.2,Win32,39.97281848,1.28,,,1366,768,55.116,4.31,"190.71, 191.94, 187.23, 177.02, 184.58, 175.38, 161.28",759.86,9.620533586,41.46449975,27.83653633,Passed,138.9060742,,,,,,,,,,,,,,,,,,,,,training,4,1,180,right,s,,,,,724.09,725.415,35.84,2,1,1,0,0,1.3244,fixationPoint,725.4154,725.5095,725.51,727.4855,35.84,10240,616.96,s,1,1.943,,727.4858,727.6707,,,,,,,,29,172,127,-65,80,-78,29,-161,170,-220,-16,-69,-32,-116,-123,176,-176,116,-19,28,-220,169,164,28,115,180,180,360,90,270,180,180,270,180,180,360,,,,,,,,,,,727.6709,727.6792,,0,48,48,48,1,2,repeated,,,,,,,,,,,,,,,,,,,,,,,,,,,,,,,,,,,,,,,,,,,,,,,,,
,,5,3,${e://Field/PROLIFIC_PID,M,34,2023-11-03_01h13.02.655,MouseEye_CC,2023.2.2,Win32,39.97281848,1.28,,,1366,768,55.116,4.31,"190.71, 191.94, 187.23, 177.02, 184.58, 175.38, 161.28",759.86,9.620533586,41.46449975,27.83653633,Passed,138.9060742,,,,,,,,,,,,,,,,,,,,,training,4,2,0,left,a,,,,,727.6808,727.9917,35.84,2,1,1,0,0,0.3106,fixationPoint,727.9919,728.077,728.0771,729.4646,35.84,10240,616.96,a,1,1.3588,,729.4648,729.6602,,,,,,,,49,170,28,-75,123,-80,224,-171,126,-24,-174,-29,-126,-116,-123,116,-19,124,-116,168,-117,123,215,122,31,360,180,90,360,270,90,90,270,360,360,90,,,,,,,,,,,729.6604,729.6608,,0,49,49,49,1,14,novel,,,,,,,,,,,,,,,,,,,,,,,,,,,,,,,,,,,,,,,,,,,,,,,,,
,,5,3,${e://Field/PROLIFIC_PID,M,34,2023-11-03_01h13.02.655,MouseEye_CC,2023.2.2,Win32,39.97281848,1.28,,,1366,768,55.116,4.31,"190.71, 191.94, 187.23, 177.02, 184.58, 175.38, 161.28",759.86,9.620533586,41.46449975,27.83653633,Passed,138.9060742,,,,,,,,,,,,,,,,,,,,,training,4,3,0,left,a,,,,,729.6622,729.8952,35.84,2,1,1,0,0,0.2326,fixationPoint,729.8955,729.98,729.9809,732.6422,35.84,10240,616.96,a,1,2.6232,,732.6425,732.8402,,,,,,,,88,120,-165,170,28,209,68,77,125,-210,120,-120,76,-124,175,-214,-124,-167,-128,-123,-24,168,-117,71,-22,180,360,360,90,90,90,360,270,360,270,90,,,,,,,,,,,732.8411,732.8428,,0,50,50,50,1,11,novel,,,,,,,,,,,,,,,,,,,,,,,,,,,,,,,,,,,,,,,,,,,,,,,,,
,,5,3,${e://Field/PROLIFIC_PID,M,34,2023-11-03_01h13.02.655,MouseEye_CC,2023.2.2,Win32,39.97281848,1.28,,,1366,768,55.116,4.31,"190.71, 191.94, 187.23, 177.02, 184.58, 175.38, 161.28",759.86,9.620533586,41.46449975,27.83653633,Passed,138.9060742,,,,,,,,,,,,,,,,,,,,,training,4,4,0,left,a,,,,,732.8458,733.1245,35.84,2,1,1,0,0,0.2782,fixationPoint,733.1247,733.1913,733.1917,735.2993,35.84,10240,616.96,a,1,2.0779,,735.2996,735.4783,,,,,,,,95,-31,-216,77,78,74,216,66,22,-218,209,-28,78,-216,70,80,-73,217,-171,28,-75,-123,-24,-221,-164,270,270,270,90,180,180,360,270,270,90,360,,,,,,,,,,,735.479,735.4806,,0,51,51,51,1,9,novel,,,,,,,,,,,,,,,,,,,,,,,,,,,,,,,,,,,,,,,,,,,,,,,,,
,,5,3,${e://Field/PROLIFIC_PID,M,34,2023-11-03_01h13.02.655,MouseEye_CC,2023.2.2,Win32,39.97281848,1.28,,,1366,768,55.116,4.31,"190.71, 191.94, 187.23, 177.02, 184.58, 175.38, 161.28",759.86,9.620533586,41.46449975,27.83653633,Passed,138.9060742,,,,,,,,,,,,,,,,,,,,,training,4,5,0,left,a,,,,,735.4841,735.6525,35.84,2,1,1,0,0,0.1675,fixationPoint,735.6527,735.7433,735.7438,736.9237,35.84,10240,616.96,a,1,1.1512,,736.9239,737.1238,,,,,,,,69,168,-77,28,115,77,125,31,166,-174,73,-80,224,-160,18,-176,-24,-223,-220,-26,-65,217,-171,28,-75,360,360,90,270,90,90,270,90,180,360,90,,,,,,,,,,,737.1239,737.1247,,0,52,52,52,1,8,repeated,,,,,,,,,,,,,,,,,,,,,,,,,,,,,,,,,,,,,,,,,,,,,,,,,
,,5,3,${e://Field/PROLIFIC_PID,M,34,2023-11-03_01h13.02.655,MouseEye_CC,2023.2.2,Win32,39.97281848,1.28,,,1366,768,55.116,4.31,"190.71, 191.94, 187.23, 177.02, 184.58, 175.38, 161.28",759.86,9.620533586,41.46449975,27.83653633,Passed,138.9060742,,,,,,,,,,,,,,,,,,,,,training,4,6,180,right,s,,,,,737.1277,737.3238,35.84,2,1,1,0,0,0.1951,fixationPoint,737.3239,737.4061,737.4062,740.2814,35.84,10240,616.96,s,1,2.8371,,740.2818,740.4758,,,,,,,,13,-124,175,166,212,31,22,169,164,-72,-165,-19,-29,-214,-124,124,-116,176,-216,24,-22,-171,126,-21,220,90,180,90,90,270,180,180,90,270,270,90,,,,,,,,,,,740.476,740.4769,,0,53,53,53,1,3,repeated,,,,,,,,,,,,,,,,,,,,,,,,,,,,,,,,,,,,,,,,,,,,,,,,,
,,5,3,${e://Field/PROLIFIC_PID,M,34,2023-11-03_01h13.02.655,MouseEye_CC,2023.2.2,Win32,39.97281848,1.28,,,1366,768,55.116,4.31,"190.71, 191.94, 187.23, 177.02, 184.58, 175.38, 161.28",759.86,9.620533586,41.46449975,27.83653633,Passed,138.9060742,,,,,,,,,,,,,,,,,,,,,training,4,7,0,left,a,,,,,740.4802,740.6317,35.84,2,1,1,0,0,0.1506,fixationPoint,740.6319,740.7308,740.731,743.7342,35.84,10240,616.96,a,1,2.9738,,743.7346,743.9292,,,,,,,,89,176,-176,174,64,77,125,116,172,-220,23,-66,172,-161,170,-167,-128,-31,-216,-66,-77,28,-220,28,-75,180,360,360,360,180,270,360,180,90,270,360,,,,,,,,,,,743.9294,743.9301,,0,54,54,54,1,12,novel,,,,,,,,,,,,,,,,,,,,,,,,,,,,,,,,,,,,,,,,,,,,,,,,,
,,5,3,${e://Field/PROLIFIC_PID,M,34,2023-11-03_01h13.02.655,MouseEye_CC,2023.2.2,Win32,39.97281848,1.28,,,1366,768,55.116,4.31,"190.71, 191.94, 187.23, 177.02, 184.58, 175.38, 161.28",759.86,9.620533586,41.46449975,27.83653633,Passed,138.9060742,,,,,,,,,,,,,,,,,,,,,training,4,8,180,right,s,,,,,743.9315,744.1056,35.84,2,0,1,0,0,0.1725,fixationPoint,744.1057,744.2059,744.2061,751.8184,35.84,10240,616.96,s,1,7.5634,,751.8189,752.0079,,,,,,,,12,-161,170,116,172,223,212,209,68,-167,-128,-174,-163,-220,-16,120,-165,24,-22,176,-216,-128,208,-216,70,360,90,90,360,270,180,180,270,90,180,180,,,,,,,,,,,752.0081,752.0092,,0,55,55,55,1,4,repeated,,,,,,,,,,,,,,,,,,,,,,,,,,,,,,,,,,,,,,,,,,,,,,,,,
,,5,3,${e://Field/PROLIFIC_PID,M,34,2023-11-03_01h13.02.655,MouseEye_CC,2023.2.2,Win32,39.97281848,1.28,,,1366,768,55.116,4.31,"190.71, 191.94, 187.23, 177.02, 184.58, 175.38, 161.28",759.86,9.620533586,41.46449975,27.83653633,Passed,138.9060742,,,,,,,,,,,,,,,,,,,,,training,4,9,0,left,a,,,,,752.0117,753.3147,35.84,-1,2,1,0,0,1.3019,fixationPoint,753.3151,753.3817,753.3821,755.6406,35.84,10240,616.96,a,1,2.2288,,755.6408,755.8429,,,,,,,,72,-167,-128,112,119,166,212,174,64,-25,160,-126,120,-28,114,28,-75,116,-19,208,-75,-123,-24,-220,-16,180,180,180,90,270,180,270,360,360,360,360,,,,,,,,,,,755.8432,755.8441,,0,56,56,56,1,10,novel,,,,,,,,,,,,,,,,,,,,,,,,,,,,,,,,,,,,,,,,,,,,,,,,,
,,5,3,${e://Field/PROLIFIC_PID,M,34,2023-11-03_01h13.02.655,MouseEye_CC,2023.2.2,Win32,39.97281848,1.28,,,1366,768,55.116,4.31,"190.71, 191.94, 187.23, 177.02, 184.58, 175.38, 161.28",759.86,9.620533586,41.46449975,27.83653633,Passed,138.9060742,,,,,,,,,,,,,,,,,,,,,training,4,10,180,right,s,,,,,755.8463,756.0889,35.84,-1,2,1,0,0,0.2414,fixationPoint,756.0893,756.1853,756.1857,758.9217,35.84,10240,616.96,s,1,2.7034,,758.9219,759.1113,,,,,,,,32,-174,73,208,20,216,122,31,166,-31,-216,-167,-128,-223,-220,28,-220,219,-32,222,-116,-75,123,-80,224,270,90,90,270,180,90,90,270,360,270,180,,,,,,,,,,,759.1124,759.114,,0,57,57,57,1,16,novel,,,,,,,,,,,,,,,,,,,,,,,,,,,,,,,,,,,,,,,,,,,,,,,,,
,,5,3,${e://Field/PROLIFIC_PID,M,34,2023-11-03_01h13.02.655,MouseEye_CC,2023.2.2,Win32,39.97281848,1.28,,,1366,768,55.116,4.31,"190.71, 191.94, 187.23, 177.02, 184.58, 175.38, 161.28",759.86,9.620533586,41.46449975,27.83653633,Passed,138.9060742,,,,,,,,,,,,,,,,,,,,,training,4,11,180,right,s,,,,,759.1173,759.314,35.84,-1,2,1,0,0,0.1957,fixationPoint,759.3142,759.4136,759.4141,760.4934,35.84,10240,616.96,s,1,1.0489,,760.4939,760.6889,,,,,,,,5,-21,220,174,64,121,73,31,166,-176,-24,-223,-220,-128,-222,80,-73,208,-75,73,-127,-80,224,-126,120,90,90,360,270,90,270,360,360,270,90,180,,,,,,,,,,,760.6897,760.6906,,0,58,58,58,1,15,novel,,,,,,,,,,,,,,,,,,,,,,,,,,,,,,,,,,,,,,,,,,,,,,,,,
,,5,3,${e://Field/PROLIFIC_PID,M,34,2023-11-03_01h13.02.655,MouseEye_CC,2023.2.2,Win32,39.97281848,1.28,,,1366,768,55.116,4.31,"190.71, 191.94, 187.23, 177.02, 184.58, 175.38, 161.28",759.86,9.620533586,41.46449975,27.83653633,Passed,138.9060742,,,,,,,,,,,,,,,,,,,,,training,4,12,180,right,s,,,,,760.6927,760.9243,35.84,-1,2,1,0,0,0.2309,fixationPoint,760.9246,760.9919,760.992,761.8739,35.84,10240,616.96,s,1,0.8488,,761.8749,762.0502,,,,,,,,6,23,208,-160,18,-124,175,-171,126,-24,-174,-66,-77,-72,-165,123,-64,120,-165,219,-32,223,212,213,169,270,180,270,90,90,180,360,360,180,90,270,,,,,,,,,,,762.0503,762.0511,,0,59,59,59,1,1,repeated,,,,,,,,,,,,,,,,,,,,,,,,,,,,,,,,,,,,,,,,,,,,,,,,,
,,5,3,${e://Field/PROLIFIC_PID,M,34,2023-11-03_01h13.02.655,MouseEye_CC,2023.2.2,Win32,39.97281848,1.28,,,1366,768,55.116,4.31,"190.71, 191.94, 187.23, 177.02, 184.58, 175.38, 161.28",759.86,9.620533586,41.46449975,27.83653633,Passed,138.9060742,,,,,,,,,,,,,,,,,,,,,training,4,13,0,left,a,,,,,762.0525,762.3135,35.84,-1,2,1,0,0,0.2605,fixationPoint,762.3137,762.3986,762.3987,763.9205,35.84,10240,616.96,a,1,1.4907,,763.9207,764.095,,,,,,,,52,-176,-24,174,64,216,122,166,212,-120,76,-126,120,-128,26,116,-19,19,-116,208,-75,-167,-128,-66,-77,90,360,180,360,270,270,90,90,270,90,180,,,,,,,,,,,764.0951,764.0957,,0,60,60,60,1,6,repeated,,,,,,,,,,,,,,,,,,,,,,,,,,,,,,,,,,,,,,,,,,,,,,,,,
,,5,3,${e://Field/PROLIFIC_PID,M,34,2023-11-03_01h13.02.655,MouseEye_CC,2023.2.2,Win32,39.97281848,1.28,,,1366,768,55.116,4.31,"190.71, 191.94, 187.23, 177.02, 184.58, 175.38, 161.28",759.86,9.620533586,41.46449975,27.83653633,Passed,138.9060742,,,,,,,,,,,,,,,,,,,,,training,4,14,0,left,a,,,,,764.0973,764.3961,35.84,-1,2,1,0,0,0.2984,fixationPoint,764.3962,764.4952,764.4955,765.9999,35.84,10240,616.96,a,1,1.4786,,766.0001,766.1958,,,,,,,,93,-128,-222,172,127,112,119,66,22,-25,160,-160,18,-174,73,176,-176,77,-220,28,-75,-212,-80,-214,-124,90,90,180,180,180,180,360,360,360,270,270,,,,,,,,,,,766.1961,766.198,,0,61,61,61,1,5,repeated,,,,,,,,,,,,,,,,,,,,,,,,,,,,,,,,,,,,,,,,,,,,,,,,,
,,5,3,${e://Field/PROLIFIC_PID,M,34,2023-11-03_01h13.02.655,MouseEye_CC,2023.2.2,Win32,39.97281848,1.28,,,1366,768,55.116,4.31,"190.71, 191.94, 187.23, 177.02, 184.58, 175.38, 161.28",759.86,9.620533586,41.46449975,27.83653633,Passed,138.9060742,,,,,,,,,,,,,,,,,,,,,training,4,15,180,right,s,,,,,766.2004,766.3327,35.84,0,2,1,0,0,0.1318,fixationPoint,766.3329,766.4326,766.4329,770.0762,35.84,10240,616.96,s,1,3.6023,,770.0763,770.2797,,,,,,,,8,123,215,-75,123,-128,208,-220,165,-223,-220,-72,-165,-116,-123,120,-165,73,-127,176,-176,213,169,174,64,180,180,360,90,180,180,180,90,270,90,270,,,,,,,,,,,770.2802,770.281,,0,62,62,62,1,13,novel,,,,,,,,,,,,,,,,,,,,,,,,,,,,,,,,,,,,,,,,,,,,,,,,,
,,5,3,${e://Field/PROLIFIC_PID,M,34,2023-11-03_01h13.02.655,MouseEye_CC,2023.2.2,Win32,39.97281848,1.28,,,1366,768,55.116,4.31,"190.71, 191.94, 187.23, 177.02, 184.58, 175.38, 161.28",759.86,9.620533586,41.46449975,27.83653633,Passed,138.9060742,,,,,,,,,,,,,,,,,,,,,training,4,16,180,right,s,,,,,770.2837,770.3832,35.84,1,2,1,0,0,0.0979,fixationPoint,770.3836,770.4811,770.4819,772.5341,35.84,10240,616.96,s,1,2.0061,,772.535,772.7223,,,,,,,,96,28,-220,76,176,170,28,28,115,-25,160,-220,165,-128,208,-124,-67,-171,-65,-66,-77,172,-24,124,-116,360,180,270,270,270,180,180,90,270,180,360,,,,,,,,,,,772.7227,774.5315,space,0,63,63,63,1,7,repeated,1.7734,,,,,,,,,,,,,,,,,,,,,,,,,,,,,,,,,,,,,,,,,,,,,,,,
,,5,3,${e://Field/PROLIFIC_PID,M,34,2023-11-03_01h13.02.655,MouseEye_CC,2023.2.2,Win32,39.97281848,1.28,,,1366,768,55.116,4.31,"190.71, 191.94, 187.23, 177.02, 184.58, 175.38, 161.28",759.86,9.620533586,41.46449975,27.83653633,Passed,138.9060742,,,,,,,,,,,,,,,,,,,,,training,5,1,180,right,s,,,,,774.5356,775.2096,35.84,2,2,1,0,0,0.6735,fixationPoint,775.2099,775.2794,775.2797,776.5633,35.84,10240,616.96,s,1,1.2565,,776.5638,776.7669,,,,,,,,12,-161,170,116,172,223,212,209,68,-167,-128,-174,-163,-220,-16,120,-165,24,-22,176,-216,-128,208,-216,70,360,90,270,180,90,270,90,360,90,360,90,,,,,,,,,,,776.7672,776.773,,0,64,64,64,1,4,repeated,,,,,,,,,,,,,,,,,,,,,,,,,,,,,,,,,,,,,,,,,,,,,,,,,
,,5,3,${e://Field/PROLIFIC_PID,M,34,2023-11-03_01h13.02.655,MouseEye_CC,2023.2.2,Win32,39.97281848,1.28,,,1366,768,55.116,4.31,"190.71, 191.94, 187.23, 177.02, 184.58, 175.38, 161.28",759.86,9.620533586,41.46449975,27.83653633,Passed,138.9060742,,,,,,,,,,,,,,,,,,,,,training,5,2,0,left,a,,,,,776.7741,776.9453,35.84,2,2,1,0,0,0.1705,fixationPoint,776.9456,777.0414,777.0418,780.2326,35.84,10240,616.96,a,1,3.1658,,780.2329,780.415,,,,,,,,29,172,127,-65,80,-78,29,-161,170,-220,-16,-69,-32,-116,-123,176,-176,116,-19,28,-220,169,164,28,115,90,90,270,360,360,270,90,90,270,270,90,,,,,,,,,,,780.4152,780.416,,0,65,65,65,1,2,repeated,,,,,,,,,,,,,,,,,,,,,,,,,,,,,,,,,,,,,,,,,,,,,,,,,
,,5,3,${e://Field/PROLIFIC_PID,M,34,2023-11-03_01h13.02.655,MouseEye_CC,2023.2.2,Win32,39.97281848,1.28,,,1366,768,55.116,4.31,"190.71, 191.94, 187.23, 177.02, 184.58, 175.38, 161.28",759.86,9.620533586,41.46449975,27.83653633,Passed,138.9060742,,,,,,,,,,,,,,,,,,,,,training,5,3,0,left,a,,,,,780.4186,780.6159,35.84,2,2,1,0,0,0.1965,fixationPoint,780.6161,780.7357,780.736,782.2116,35.84,10240,616.96,a,1,1.4488,,782.2118,782.4064,,,,,,,,32,-174,73,76,176,174,64,20,75,-176,-24,-72,-116,-176,-224,215,-210,116,-19,24,-22,-126,120,-28,78,360,360,180,360,180,90,360,180,270,180,90,,,,,,,,,,,782.407,782.4086,,0,66,66,66,1,16,novel,,,,,,,,,,,,,,,,,,,,,,,,,,,,,,,,,,,,,,,,,,,,,,,,,
,,5,3,${e://Field/PROLIFIC_PID,M,34,2023-11-03_01h13.02.655,MouseEye_CC,2023.2.2,Win32,39.97281848,1.28,,,1366,768,55.116,4.31,"190.71, 191.94, 187.23, 177.02, 184.58, 175.38, 161.28",759.86,9.620533586,41.46449975,27.83653633,Passed,138.9060742,,,,,,,,,,,,,,,,,,,,,training,5,4,180,right,s,,,,,782.4108,782.5852,35.84,3,2,1,0,0,0.1737,fixationPoint,782.5854,782.6803,782.6807,784.0175,35.84,10240,616.96,s,1,1.3055,,784.018,784.2118,,,,,,,,8,123,215,-220,165,-220,23,-120,76,-174,-163,-221,-164,-176,-24,215,-210,116,-19,219,-32,112,119,174,64,360,270,360,360,270,90,90,270,360,360,360,,,,,,,,,,,784.212,784.2127,,0,67,67,67,1,13,novel,,,,,,,,,,,,,,,,,,,,,,,,,,,,,,,,,,,,,,,,,,,,,,,,,
,,5,3,${e://Field/PROLIFIC_PID,M,34,2023-11-03_01h13.02.655,MouseEye_CC,2023.2.2,Win32,39.97281848,1.28,,,1366,768,55.116,4.31,"190.71, 191.94, 187.23, 177.02, 184.58, 175.38, 161.28",759.86,9.620533586,41.46449975,27.83653633,Passed,138.9060742,,,,,,,,,,,,,,,,,,,,,training,5,5,180,right,s,,,,,784.2139,784.3819,35.84,3,2,1,0,0,0.1669,fixationPoint,784.3821,784.4872,784.4873,791.0551,35.84,10240,616.96,s,1,6.5398,,791.0561,791.2663,,,,,,,,95,-31,-216,31,22,174,64,166,212,-174,73,-21,220,-128,208,28,-75,123,-64,65,-169,-176,-24,-220,-16,360,270,180,270,360,360,90,360,270,180,360,,,,,,,,,,,791.2665,791.2674,,0,68,68,68,1,9,novel,,,,,,,,,,,,,,,,,,,,,,,,,,,,,,,,,,,,,,,,,,,,,,,,,
,,5,3,${e://Field/PROLIFIC_PID,M,34,2023-11-03_01h13.02.655,MouseEye_CC,2023.2.2,Win32,39.97281848,1.28,,,1366,768,55.116,4.31,"190.71, 191.94, 187.23, 177.02, 184.58, 175.38, 161.28",759.86,9.620533586,41.46449975,27.83653633,Passed,138.9060742,,,,,,,,,,,,,,,,,,,,,training,5,6,0,left,a,,,,,791.2685,792.4702,35.84,-27,-8,1,0,0,0.274,fixationPoint,792.4705,792.5675,792.5676,793.6729,35.84,10240,616.96,a,1,1.0784,,793.6735,793.8685,,,,,,,,89,176,-176,172,127,31,22,209,68,-25,160,-124,175,-66,172,-19,-29,-220,-16,-221,-164,71,-22,219,-32,180,360,90,270,360,360,270,180,360,180,90,,,,,,,,,,,793.8687,793.8692,,0,69,69,69,1,12,novel,,,,,,,,,,,,,,,,,,,,,,,,,,,,,,,,,,,,,,,,,,,,,,,,,
,,5,3,${e://Field/PROLIFIC_PID,M,34,2023-11-03_01h13.02.655,MouseEye_CC,2023.2.2,Win32,39.97281848,1.28,,,1366,768,55.116,4.31,"190.71, 191.94, 187.23, 177.02, 184.58, 175.38, 161.28",759.86,9.620533586,41.46449975,27.83653633,Passed,138.9060742,,,,,,,,,,,,,,,,,,,,,training,5,7,0,left,a,,,,,793.8707,794.0951,35.84,2,-3,1,0,0,0.2236,fixationPoint,794.0953,794.1946,794.1947,795.7745,35.84,10240,616.96,a,1,1.5528,,795.7746,795.9717,,,,,,,,13,-124,175,166,212,31,22,169,164,-72,-165,-19,-29,-214,-124,124,-116,176,-216,24,-22,-171,126,-21,220,270,270,270,180,90,360,270,270,360,90,360,,,,,,,,,,,795.9721,795.973,,0,70,70,70,1,3,repeated,,,,,,,,,,,,,,,,,,,,,,,,,,,,,,,,,,,,,,,,,,,,,,,,,
,,5,3,${e://Field/PROLIFIC_PID,M,34,2023-11-03_01h13.02.655,MouseEye_CC,2023.2.2,Win32,39.97281848,1.28,,,1366,768,55.116,4.31,"190.71, 191.94, 187.23, 177.02, 184.58, 175.38, 161.28",759.86,9.620533586,41.46449975,27.83653633,Passed,138.9060742,,,,,,,,,,,,,,,,,,,,,training,5,8,0,left,a,,,,,795.9749,796.2496,35.84,2,-3,1,0,0,0.2741,fixationPoint,796.2498,796.3467,796.347,797.9771,35.84,10240,616.96,a,1,1.6054,,797.9773,798.1808,,,,,,,,72,-167,-128,174,64,76,176,66,22,-66,172,-220,23,-22,25,24,-22,65,-169,120,-165,-176,-224,-72,-165,360,90,270,180,360,270,90,360,360,90,180,,,,,,,,,,,798.1809,798.1815,,0,71,71,71,1,10,novel,,,,,,,,,,,,,,,,,,,,,,,,,,,,,,,,,,,,,,,,,,,,,,,,,
,,5,3,${e://Field/PROLIFIC_PID,M,34,2023-11-03_01h13.02.655,MouseEye_CC,2023.2.2,Win32,39.97281848,1.28,,,1366,768,55.116,4.31,"190.71, 191.94, 187.23, 177.02, 184.58, 175.38, 161.28",759.86,9.620533586,41.46449975,27.83653633,Passed,138.9060742,,,,,,,,,,,,,,,,,,,,,training,5,9,0,left,a,,,,,798.183,798.3864,35.84,2,-3,1,0,0,0.2029,fixationPoint,798.3865,798.485,798.4852,799.6608,35.84,10240,616.96,a,1,1.149,,799.6611,799.8493,,,,,,,,6,23,208,-160,18,-124,175,-171,126,-24,-174,-66,-77,-72,-165,123,-64,120,-165,219,-32,223,212,213,169,360,180,180,180,90,270,90,90,180,270,180,,,,,,,,,,,799.8494,799.8502,,0,72,72,72,1,1,repeated,,,,,,,,,,,,,,,,,,,,,,,,,,,,,,,,,,,,,,,,,,,,,,,,,
,,5,3,${e://Field/PROLIFIC_PID,M,34,2023-11-03_01h13.02.655,MouseEye_CC,2023.2.2,Win32,39.97281848,1.28,,,1366,768,55.116,4.31,"190.71, 191.94, 187.23, 177.02, 184.58, 175.38, 161.28",759.86,9.620533586,41.46449975,27.83653633,Passed,138.9060742,,,,,,,,,,,,,,,,,,,,,training,5,10,180,right,s,,,,,799.8515,800.0957,35.84,2,-3,1,0,0,0.2435,fixationPoint,800.096,800.1992,800.1997,802.6783,35.84,10240,616.96,s,1,2.4517,,802.6785,802.8755,,,,,,,,49,170,28,-171,126,-218,209,-80,224,-212,-80,-128,-222,-171,-65,176,-176,217,-171,222,-116,123,215,223,212,270,360,360,90,360,180,360,180,270,360,90,,,,,,,,,,,802.8757,802.8764,,0,73,73,73,1,14,novel,,,,,,,,,,,,,,,,,,,,,,,,,,,,,,,,,,,,,,,,,,,,,,,,,
,,5,3,${e://Field/PROLIFIC_PID,M,34,2023-11-03_01h13.02.655,MouseEye_CC,2023.2.2,Win32,39.97281848,1.28,,,1366,768,55.116,4.31,"190.71, 191.94, 187.23, 177.02, 184.58, 175.38, 161.28",759.86,9.620533586,41.46449975,27.83653633,Passed,138.9060742,,,,,,,,,,,,,,,,,,,,,training,5,11,180,right,s,,,,,802.8777,803.0761,35.84,2,-3,1,0,0,0.1978,fixationPoint,803.0766,803.1743,803.1744,804.5132,35.84,10240,616.96,s,1,1.3103,,804.5135,804.7167,,,,,,,,52,-176,-24,174,64,216,122,166,212,-120,76,-126,120,-128,26,116,-19,19,-116,208,-75,-167,-128,-66,-77,180,90,90,270,270,180,360,180,90,270,360,,,,,,,,,,,804.717,804.7179,,0,74,74,74,1,6,repeated,,,,,,,,,,,,,,,,,,,,,,,,,,,,,,,,,,,,,,,,,,,,,,,,,
,,5,3,${e://Field/PROLIFIC_PID,M,34,2023-11-03_01h13.02.655,MouseEye_CC,2023.2.2,Win32,39.97281848,1.28,,,1366,768,55.116,4.31,"190.71, 191.94, 187.23, 177.02, 184.58, 175.38, 161.28",759.86,9.620533586,41.46449975,27.83653633,Passed,138.9060742,,,,,,,,,,,,,,,,,,,,,training,5,12,0,left,a,,,,,804.7198,804.9368,35.84,2,-3,1,0,0,0.2164,fixationPoint,804.937,805.0281,805.0283,806.106,35.84,10240,616.96,a,1,1.0473,,806.1065,806.3009,,,,,,,,5,-21,220,112,119,116,172,77,78,-176,-224,-128,-222,-167,-128,24,-22,113,-218,80,-73,-128,208,-28,114,270,90,270,180,180,360,180,90,180,90,180,,,,,,,,,,,806.3011,806.3024,,0,75,75,75,1,15,novel,,,,,,,,,,,,,,,,,,,,,,,,,,,,,,,,,,,,,,,,,,,,,,,,,
,,5,3,${e://Field/PROLIFIC_PID,M,34,2023-11-03_01h13.02.655,MouseEye_CC,2023.2.2,Win32,39.97281848,1.28,,,1366,768,55.116,4.31,"190.71, 191.94, 187.23, 177.02, 184.58, 175.38, 161.28",759.86,9.620533586,41.46449975,27.83653633,Passed,138.9060742,,,,,,,,,,,,,,,,,,,,,training,5,13,0,left,a,,,,,806.3054,806.7534,35.84,2,-3,1,0,0,0.4473,fixationPoint,806.7538,806.8541,806.8543,810.6338,35.84,10240,616.96,a,1,3.7476,,810.6342,810.8162,,,,,,,,69,168,-77,28,115,77,125,31,166,-174,73,-80,224,-160,18,-176,-24,-223,-220,-26,-65,217,-171,28,-75,90,180,180,90,180,90,270,90,90,270,270,,,,,,,,,,,810.8163,810.8171,,0,76,76,76,1,8,repeated,,,,,,,,,,,,,,,,,,,,,,,,,,,,,,,,,,,,,,,,,,,,,,,,,
,,5,3,${e://Field/PROLIFIC_PID,M,34,2023-11-03_01h13.02.655,MouseEye_CC,2023.2.2,Win32,39.97281848,1.28,,,1366,768,55.116,4.31,"190.71, 191.94, 187.23, 177.02, 184.58, 175.38, 161.28",759.86,9.620533586,41.46449975,27.83653633,Passed,138.9060742,,,,,,,,,,,,,,,,,,,,,training,5,14,180,right,s,,,,,810.82,811.0145,35.84,2,-3,1,0,0,0.1938,fixationPoint,811.015,811.1076,811.1079,813.0139,35.84,10240,616.96,s,1,1.8794,,813.0152,813.2112,,,,,,,,96,28,-220,76,176,170,28,28,115,-25,160,-220,165,-128,208,-124,-67,-171,-65,-66,-77,172,-24,124,-116,180,360,180,270,180,180,270,90,270,360,270,,,,,,,,,,,813.2113,813.212,,0,77,77,77,1,7,repeated,,,,,,,,,,,,,,,,,,,,,,,,,,,,,,,,,,,,,,,,,,,,,,,,,
,,5,3,${e://Field/PROLIFIC_PID,M,34,2023-11-03_01h13.02.655,MouseEye_CC,2023.2.2,Win32,39.97281848,1.28,,,1366,768,55.116,4.31,"190.71, 191.94, 187.23, 177.02, 184.58, 175.38, 161.28",759.86,9.620533586,41.46449975,27.83653633,Passed,138.9060742,,,,,,,,,,,,,,,,,,,,,training,5,15,180,right,s,,,,,813.2132,813.4016,35.84,2,-3,1,0,0,0.1877,fixationPoint,813.4018,813.5086,813.5089,815.2028,35.84,10240,616.96,s,1,1.6659,,815.2031,815.4019,,,,,,,,93,-128,-222,172,127,112,119,66,22,-25,160,-160,18,-174,73,176,-176,77,-220,28,-75,-212,-80,-214,-124,360,180,180,90,180,90,90,360,360,180,360,,,,,,,,,,,815.4022,815.4032,,0,78,78,78,1,5,repeated,,,,,,,,,,,,,,,,,,,,,,,,,,,,,,,,,,,,,,,,,,,,,,,,,
,,5,3,${e://Field/PROLIFIC_PID,M,34,2023-11-03_01h13.02.655,MouseEye_CC,2023.2.2,Win32,39.97281848,1.28,,,1366,768,55.116,4.31,"190.71, 191.94, 187.23, 177.02, 184.58, 175.38, 161.28",759.86,9.620533586,41.46449975,27.83653633,Passed,138.9060742,,,,,,,,,,,,,,,,,,,,,training,5,16,180,right,s,,,,,815.4051,815.584,35.84,2,-3,1,0,0,0.1783,fixationPoint,815.5842,815.6794,815.6796,818.4028,35.84,10240,616.96,s,1,2.6874,,818.4032,818.5939,,,,,,,,88,120,-165,170,28,209,68,174,64,-21,220,-171,126,-220,23,-69,-32,-112,-172,-72,-116,113,-218,80,-73,360,270,90,360,180,90,270,360,270,270,270,,,,,,,,,,,818.5944,826.9766,space,0,79,79,79,1,11,novel,8.345,,,,,,,,,,,,,,,,,,,,,,,,,,,,,,,,,,,,,,,,,,,,,,,,
,,5,3,${e://Field/PROLIFIC_PID,M,34,2023-11-03_01h13.02.655,MouseEye_CC,2023.2.2,Win32,39.97281848,1.28,,,1366,768,55.116,4.31,"190.71, 191.94, 187.23, 177.02, 184.58, 175.38, 161.28",759.86,9.620533586,41.46449975,27.83653633,Passed,138.9060742,,,,,,,,,,,,,,,,,,,,,training,6,1,0,left,a,,,,,827.0213,828.5078,35.84,0,-2,1,0,0,1.4857,fixationPoint,828.5084,828.6075,828.6081,830.8989,35.84,10240,616.96,a,1,2.2633,,830.8995,831.0952,,,,,,,,95,-31,-216,23,208,170,28,223,212,-66,172,-171,126,-80,224,80,-73,116,-19,71,-22,-26,-65,-77,-223,90,270,90,360,180,360,360,180,180,360,270,,,,,,,,,,,831.0956,831.1058,,0,80,80,80,1,9,novel,,,,,,,,,,,,,,,,,,,,,,,,,,,,,,,,,,,,,,,,,,,,,,,,,
,,5,3,${e://Field/PROLIFIC_PID,M,34,2023-11-03_01h13.02.655,MouseEye_CC,2023.2.2,Win32,39.97281848,1.28,,,1366,768,55.116,4.31,"190.71, 191.94, 187.23, 177.02, 184.58, 175.38, 161.28",759.86,9.620533586,41.46449975,27.83653633,Passed,138.9060742,,,,,,,,,,,,,,,,,,,,,training,6,2,0,left,a,,,,,831.1076,831.351,35.84,0,-2,1,0,0,0.2428,fixationPoint,831.3512,831.4488,831.449,832.6039,35.84,10240,616.96,a,1,1.1277,,832.6041,832.8018,,,,,,,,5,-21,220,31,166,66,22,112,119,-176,-24,-66,-77,-24,-174,217,-171,116,-19,24,-22,-128,26,-120,76,360,90,90,360,90,360,360,90,270,360,360,,,,,,,,,,,832.802,832.8028,,0,81,81,81,1,15,novel,,,,,,,,,,,,,,,,,,,,,,,,,,,,,,,,,,,,,,,,,,,,,,,,,
,,5,3,${e://Field/PROLIFIC_PID,M,34,2023-11-03_01h13.02.655,MouseEye_CC,2023.2.2,Win32,39.97281848,1.28,,,1366,768,55.116,4.31,"190.71, 191.94, 187.23, 177.02, 184.58, 175.38, 161.28",759.86,9.620533586,41.46449975,27.83653633,Passed,138.9060742,,,,,,,,,,,,,,,,,,,,,training,6,3,180,right,s,,,,,832.8042,833.0013,35.84,0,-2,1,0,0,0.1964,fixationPoint,833.0016,833.0986,833.0989,835.0146,35.84,10240,616.96,s,1,1.8849,,835.0151,835.2033,,,,,,,,8,123,215,-21,220,-171,126,-80,224,-116,-123,-31,-216,-112,-172,176,-176,176,-216,77,-220,122,31,66,22,270,90,90,360,90,90,90,270,90,180,90,,,,,,,,,,,835.2038,835.2053,,0,82,82,82,1,13,novel,,,,,,,,,,,,,,,,,,,,,,,,,,,,,,,,,,,,,,,,,,,,,,,,,
,,5,3,${e://Field/PROLIFIC_PID,M,34,2023-11-03_01h13.02.655,MouseEye_CC,2023.2.2,Win32,39.97281848,1.28,,,1366,768,55.116,4.31,"190.71, 191.94, 187.23, 177.02, 184.58, 175.38, 161.28",759.86,9.620533586,41.46449975,27.83653633,Passed,138.9060742,,,,,,,,,,,,,,,,,,,,,training,6,4,0,left,a,,,,,835.2075,835.3846,35.84,0,-2,1,0,0,0.1765,fixationPoint,835.3849,835.4501,835.4504,837.9553,35.84,10240,616.96,a,1,2.4757,,837.9555,838.1553,,,,,,,,88,120,-165,223,212,121,73,74,216,-160,18,-220,165,-126,120,-220,-16,-223,-220,-128,-222,65,-169,123,-64,270,270,270,270,270,270,90,360,90,270,270,,,,,,,,,,,838.1556,838.1571,,0,83,83,83,1,11,novel,,,,,,,,,,,,,,,,,,,,,,,,,,,,,,,,,,,,,,,,,,,,,,,,,
,,5,3,${e://Field/PROLIFIC_PID,M,34,2023-11-03_01h13.02.655,MouseEye_CC,2023.2.2,Win32,39.97281848,1.28,,,1366,768,55.116,4.31,"190.71, 191.94, 187.23, 177.02, 184.58, 175.38, 161.28",759.86,9.620533586,41.46449975,27.83653633,Passed,138.9060742,,,,,,,,,,,,,,,,,,,,,training,6,5,0,left,a,,,,,838.16,838.2895,35.84,1,-2,1,0,0,0.1287,fixationPoint,838.2896,838.3868,838.3871,840.7647,35.84,10240,616.96,a,1,2.3511,,840.765,840.9556,,,,,,,,12,-161,170,116,172,223,212,209,68,-167,-128,-174,-163,-220,-16,120,-165,24,-22,176,-216,-128,208,-216,70,90,180,270,90,360,360,180,270,90,90,360,,,,,,,,,,,840.9565,840.9581,,0,84,84,84,1,4,repeated,,,,,,,,,,,,,,,,,,,,,,,,,,,,,,,,,,,,,,,,,,,,,,,,,
,,5,3,${e://Field/PROLIFIC_PID,M,34,2023-11-03_01h13.02.655,MouseEye_CC,2023.2.2,Win32,39.97281848,1.28,,,1366,768,55.116,4.31,"190.71, 191.94, 187.23, 177.02, 184.58, 175.38, 161.28",759.86,9.620533586,41.46449975,27.83653633,Passed,138.9060742,,,,,,,,,,,,,,,,,,,,,training,6,6,0,left,a,,,,,840.9608,841.1401,35.84,1,-2,1,0,0,0.1786,fixationPoint,841.1413,841.2348,841.2353,842.3974,35.84,10240,616.96,a,1,1.1311,,842.3977,842.5841,,,,,,,,72,-167,-128,28,115,77,125,223,212,-25,160,-128,208,-124,175,172,-24,28,-75,208,-75,-26,-65,-77,-223,270,270,90,90,90,180,180,180,180,180,360,,,,,,,,,,,842.5847,842.5863,,0,85,85,85,1,10,novel,,,,,,,,,,,,,,,,,,,,,,,,,,,,,,,,,,,,,,,,,,,,,,,,,
,,5,3,${e://Field/PROLIFIC_PID,M,34,2023-11-03_01h13.02.655,MouseEye_CC,2023.2.2,Win32,39.97281848,1.28,,,1366,768,55.116,4.31,"190.71, 191.94, 187.23, 177.02, 184.58, 175.38, 161.28",759.86,9.620533586,41.46449975,27.83653633,Passed,138.9060742,,,,,,,,,,,,,,,,,,,,,training,6,7,180,right,s,,,,,842.5892,842.7599,35.84,2,-3,1,0,0,0.1699,fixationPoint,842.7603,842.8647,842.8648,846.0175,35.84,10240,616.96,s,1,3.1241,,846.018,846.2082,,,,,,,,32,-174,73,169,164,174,64,122,31,-212,-80,-66,-77,-72,-165,116,-19,219,-32,28,-220,-120,76,-128,208,270,360,180,180,180,270,270,270,90,180,180,,,,,,,,,,,846.2091,846.2106,,0,86,86,86,1,16,novel,,,,,,,,,,,,,,,,,,,,,,,,,,,,,,,,,,,,,,,,,,,,,,,,,
,,5,3,${e://Field/PROLIFIC_PID,M,34,2023-11-03_01h13.02.655,MouseEye_CC,2023.2.2,Win32,39.97281848,1.28,,,1366,768,55.116,4.31,"190.71, 191.94, 187.23, 177.02, 184.58, 175.38, 161.28",759.86,9.620533586,41.46449975,27.83653633,Passed,138.9060742,,,,,,,,,,,,,,,,,,,,,training,6,8,0,left,a,,,,,846.214,846.6393,35.84,2,-3,1,0,0,0.4248,fixationPoint,846.6395,846.7393,846.7394,849.489,35.84,10240,616.96,a,1,2.7221,,849.4892,849.6847,,,,,,,,69,168,-77,28,115,77,125,31,166,-174,73,-80,224,-160,18,-176,-24,-223,-220,-26,-65,217,-171,28,-75,90,360,180,180,180,270,180,270,270,270,90,,,,,,,,,,,849.6857,849.6872,,0,87,87,87,1,8,repeated,,,,,,,,,,,,,,,,,,,,,,,,,,,,,,,,,,,,,,,,,,,,,,,,,
,,5,3,${e://Field/PROLIFIC_PID,M,34,2023-11-03_01h13.02.655,MouseEye_CC,2023.2.2,Win32,39.97281848,1.28,,,1366,768,55.116,4.31,"190.71, 191.94, 187.23, 177.02, 184.58, 175.38, 161.28",759.86,9.620533586,41.46449975,27.83653633,Passed,138.9060742,,,,,,,,,,,,,,,,,,,,,training,6,9,180,right,s,,,,,849.6899,849.9161,35.84,3,-4,1,0,0,0.2254,fixationPoint,849.9163,850.0188,850.0191,852.8199,35.84,10240,616.96,s,1,2.771,,852.8203,853.0271,,,,,,,,52,-176,-24,174,64,216,122,166,212,-120,76,-126,120,-128,26,116,-19,19,-116,208,-75,-167,-128,-66,-77,90,360,180,90,270,360,90,360,180,90,90,,,,,,,,,,,853.0273,853.0282,,0,88,88,88,1,6,repeated,,,,,,,,,,,,,,,,,,,,,,,,,,,,,,,,,,,,,,,,,,,,,,,,,
,,5,3,${e://Field/PROLIFIC_PID,M,34,2023-11-03_01h13.02.655,MouseEye_CC,2023.2.2,Win32,39.97281848,1.28,,,1366,768,55.116,4.31,"190.71, 191.94, 187.23, 177.02, 184.58, 175.38, 161.28",759.86,9.620533586,41.46449975,27.83653633,Passed,138.9060742,,,,,,,,,,,,,,,,,,,,,training,6,10,0,left,a,,,,,853.0307,853.3201,35.84,3,-4,1,0,0,0.2889,fixationPoint,853.3203,853.4157,853.4163,858.1045,35.84,10240,616.96,a,1,4.6575,,858.1047,858.301,,,,,,,,89,176,-176,23,208,166,212,121,73,-174,73,-163,209,-80,224,-220,-16,-69,-32,-167,-128,28,-75,116,-19,90,180,360,360,360,360,90,360,360,90,180,,,,,,,,,,,858.3011,858.303,,0,89,89,89,1,12,novel,,,,,,,,,,,,,,,,,,,,,,,,,,,,,,,,,,,,,,,,,,,,,,,,,
,,5,3,${e://Field/PROLIFIC_PID,M,34,2023-11-03_01h13.02.655,MouseEye_CC,2023.2.2,Win32,39.97281848,1.28,,,1366,768,55.116,4.31,"190.71, 191.94, 187.23, 177.02, 184.58, 175.38, 161.28",759.86,9.620533586,41.46449975,27.83653633,Passed,138.9060742,,,,,,,,,,,,,,,,,,,,,training,6,11,180,right,s,,,,,858.3064,858.8378,35.84,4,-4,1,0,0,0.5306,fixationPoint,858.838,858.9453,858.9455,861.8047,35.84,10240,616.96,s,1,2.8328,,861.8051,862.0038,,,,,,,,49,170,28,-80,224,-65,80,-25,160,-212,-80,-167,-128,-214,-124,77,-220,217,-171,168,-117,20,75,74,216,270,180,270,270,360,360,360,270,270,360,180,,,,,,,,,,,862.0042,862.0061,,0,90,90,90,1,14,novel,,,,,,,,,,,,,,,,,,,,,,,,,,,,,,,,,,,,,,,,,,,,,,,,,
,,5,3,${e://Field/PROLIFIC_PID,M,34,2023-11-03_01h13.02.655,MouseEye_CC,2023.2.2,Win32,39.97281848,1.28,,,1366,768,55.116,4.31,"190.71, 191.94, 187.23, 177.02, 184.58, 175.38, 161.28",759.86,9.620533586,41.46449975,27.83653633,Passed,138.9060742,,,,,,,,,,,,,,,,,,,,,training,6,12,180,right,s,,,,,862.0092,862.2279,35.84,4,-4,1,0,0,0.218,fixationPoint,862.228,862.3245,862.3251,863.9341,35.84,10240,616.96,s,1,1.5562,,863.9344,864.1277,,,,,,,,6,23,208,-160,18,-124,175,-171,126,-24,-174,-66,-77,-72,-165,123,-64,120,-165,219,-32,223,212,213,169,90,360,270,270,360,360,90,180,360,90,270,,,,,,,,,,,864.1283,864.1299,,0,91,91,91,1,1,repeated,,,,,,,,,,,,,,,,,,,,,,,,,,,,,,,,,,,,,,,,,,,,,,,,,
,,5,3,${e://Field/PROLIFIC_PID,M,34,2023-11-03_01h13.02.655,MouseEye_CC,2023.2.2,Win32,39.97281848,1.28,,,1366,768,55.116,4.31,"190.71, 191.94, 187.23, 177.02, 184.58, 175.38, 161.28",759.86,9.620533586,41.46449975,27.83653633,Passed,138.9060742,,,,,,,,,,,,,,,,,,,,,training,6,13,0,left,a,,,,,864.1323,864.3039,35.84,6,-4,1,0,0,0.1711,fixationPoint,864.3042,864.3982,864.3992,866.3893,35.84,10240,616.96,a,1,1.9582,,866.3897,866.5799,,,,,,,,93,-128,-222,172,127,112,119,66,22,-25,160,-160,18,-174,73,176,-176,77,-220,28,-75,-212,-80,-214,-124,90,180,90,360,180,360,180,180,360,90,180,,,,,,,,,,,866.58,866.5809,,0,92,92,92,1,5,repeated,,,,,,,,,,,,,,,,,,,,,,,,,,,,,,,,,,,,,,,,,,,,,,,,,
,,5,3,${e://Field/PROLIFIC_PID,M,34,2023-11-03_01h13.02.655,MouseEye_CC,2023.2.2,Win32,39.97281848,1.28,,,1366,768,55.116,4.31,"190.71, 191.94, 187.23, 177.02, 184.58, 175.38, 161.28",759.86,9.620533586,41.46449975,27.83653633,Passed,138.9060742,,,,,,,,,,,,,,,,,,,,,training,6,14,180,right,s,,,,,866.5836,866.7322,35.84,8,-3,1,0,0,0.1475,fixationPoint,866.7327,866.8267,866.827,868.8697,35.84,10240,616.96,s,1,2.0094,0.0023,868.87,869.0741,,,,,,,,96,28,-220,76,176,170,28,28,115,-25,160,-220,165,-128,208,-124,-67,-171,-65,-66,-77,172,-24,124,-116,360,180,270,270,180,180,180,360,360,360,360,,,,,,,,,,,869.0746,869.0762,,0,93,93,93,1,7,repeated,,,,,,,,,,,,,,,,,,,,,,,,,,,,,,,,,,,,,,,,,,,,,,,,,
,,5,3,${e://Field/PROLIFIC_PID,M,34,2023-11-03_01h13.02.655,MouseEye_CC,2023.2.2,Win32,39.97281848,1.28,,,1366,768,55.116,4.31,"190.71, 191.94, 187.23, 177.02, 184.58, 175.38, 161.28",759.86,9.620533586,41.46449975,27.83653633,Passed,138.9060742,,,,,,,,,,,,,,,,,,,,,training,6,15,180,right,s,,,,,869.0785,869.31,35.84,8,-3,1,0,0,0.231,fixationPoint,869.3101,869.4095,869.4096,871.8365,35.84,10240,616.96,s,1,2.3973,,871.8369,872.0352,,,,,,,,13,-124,175,166,212,31,22,169,164,-72,-165,-19,-29,-214,-124,124,-116,176,-216,24,-22,-171,126,-21,220,90,270,180,270,270,90,270,90,360,180,270,,,,,,,,,,,872.0354,872.0362,,0,94,94,94,1,3,repeated,,,,,,,,,,,,,,,,,,,,,,,,,,,,,,,,,,,,,,,,,,,,,,,,,
,,5,3,${e://Field/PROLIFIC_PID,M,34,2023-11-03_01h13.02.655,MouseEye_CC,2023.2.2,Win32,39.97281848,1.28,,,1366,768,55.116,4.31,"190.71, 191.94, 187.23, 177.02, 184.58, 175.38, 161.28",759.86,9.620533586,41.46449975,27.83653633,Passed,138.9060742,,,,,,,,,,,,,,,,,,,,,training,6,16,180,right,s,,,,,872.0378,872.3888,35.84,4,-5,1,0,0,0.3503,fixationPoint,872.3894,872.482,872.4824,874.6132,35.84,10240,616.96,s,1,2.0989,,874.6135,874.8069,,,,,,,,29,172,127,-65,80,-78,29,-161,170,-220,-16,-69,-32,-116,-123,176,-176,116,-19,28,-220,169,164,28,115,90,360,90,90,180,270,360,90,360,180,360,,,,,,,,,,,874.8077,876.2411,space,0,95,95,95,1,2,repeated,1.3946,,,,,,,,,,,,,,,,,,,,,,,,,,,,,,,,,,,,,,,,,,,,,,,,
,,5,3,${e://Field/PROLIFIC_PID,M,34,2023-11-03_01h13.02.655,MouseEye_CC,2023.2.2,Win32,39.97281848,1.28,,,1366,768,55.116,4.31,"190.71, 191.94, 187.23, 177.02, 184.58, 175.38, 161.28",759.86,9.620533586,41.46449975,27.83653633,Passed,138.9060742,,,,,,,,,,,,,,,,,,,,,training,7,1,180,right,s,,,,,876.2444,877.2171,35.84,4,-5,1,0,0,0.9722,fixationPoint,877.2173,877.3204,877.3208,879.5218,35.84,10240,616.96,s,1,2.1551,,879.5222,879.7251,,,,,,,,88,120,-165,174,64,74,216,112,119,-163,209,-128,208,-161,170,-176,-24,-123,-24,-124,-67,124,-116,176,-216,360,360,270,180,180,360,180,180,360,270,180,,,,,,,,,,,879.7258,879.7353,,0,96,96,96,1,11,novel,,,,,,,,,,,,,,,,,,,,,,,,,,,,,,,,,,,,,,,,,,,,,,,,,
,,5,3,${e://Field/PROLIFIC_PID,M,34,2023-11-03_01h13.02.655,MouseEye_CC,2023.2.2,Win32,39.97281848,1.28,,,1366,768,55.116,4.31,"190.71, 191.94, 187.23, 177.02, 184.58, 175.38, 161.28",759.86,9.620533586,41.46449975,27.83653633,Passed,138.9060742,,,,,,,,,,,,,,,,,,,,,training,7,2,180,right,s,,,,,879.737,879.9664,35.84,4,-5,1,0,0,0.2287,fixationPoint,879.9665,880.0671,880.0674,882.7221,35.84,10240,616.96,s,1,2.605,,882.7227,882.9148,,,,,,,,89,176,-176,112,119,23,208,31,22,-218,209,-28,78,-171,126,-221,-164,-214,-124,-174,-163,28,-220,219,-32,360,360,90,90,270,180,270,270,90,90,180,,,,,,,,,,,882.9152,882.9171,,0,97,97,97,1,12,novel,,,,,,,,,,,,,,,,,,,,,,,,,,,,,,,,,,,,,,,,,,,,,,,,,
,,5,3,${e://Field/PROLIFIC_PID,M,34,2023-11-03_01h13.02.655,MouseEye_CC,2023.2.2,Win32,39.97281848,1.28,,,1366,768,55.116,4.31,"190.71, 191.94, 187.23, 177.02, 184.58, 175.38, 161.28",759.86,9.620533586,41.46449975,27.83653633,Passed,138.9060742,,,,,,,,,,,,,,,,,,,,,training,7,3,0,left,a,,,,,882.9198,883.1278,35.84,4,-5,1,0,0,0.207,fixationPoint,883.1283,883.1953,883.1954,884.4774,35.84,10240,616.96,a,1,1.2548,,884.478,884.6694,,,,,,,,13,-124,175,166,212,31,22,169,164,-72,-165,-19,-29,-214,-124,124,-116,176,-216,24,-22,-171,126,-21,220,180,360,360,270,360,90,360,90,180,270,180,,,,,,,,,,,884.6696,884.6705,,0,98,98,98,1,3,repeated,,,,,,,,,,,,,,,,,,,,,,,,,,,,,,,,,,,,,,,,,,,,,,,,,
,,5,3,${e://Field/PROLIFIC_PID,M,34,2023-11-03_01h13.02.655,MouseEye_CC,2023.2.2,Win32,39.97281848,1.28,,,1366,768,55.116,4.31,"190.71, 191.94, 187.23, 177.02, 184.58, 175.38, 161.28",759.86,9.620533586,41.46449975,27.83653633,Passed,138.9060742,,,,,,,,,,,,,,,,,,,,,training,7,4,0,left,a,,,,,884.6731,884.8742,35.84,4,-5,1,0,0,0.1999,fixationPoint,884.8744,884.97,884.9704,888.9336,35.84,10240,616.96,a,1,3.9111,,888.9339,889.1301,,,,,,,,12,-161,170,116,172,223,212,209,68,-167,-128,-174,-163,-220,-16,120,-165,24,-22,176,-216,-128,208,-216,70,90,360,360,270,180,90,90,270,90,180,180,,,,,,,,,,,889.1309,889.1318,,0,99,99,99,1,4,repeated,,,,,,,,,,,,,,,,,,,,,,,,,,,,,,,,,,,,,,,,,,,,,,,,,
,,5,3,${e://Field/PROLIFIC_PID,M,34,2023-11-03_01h13.02.655,MouseEye_CC,2023.2.2,Win32,39.97281848,1.28,,,1366,768,55.116,4.31,"190.71, 191.94, 187.23, 177.02, 184.58, 175.38, 161.28",759.86,9.620533586,41.46449975,27.83653633,Passed,138.9060742,,,,,,,,,,,,,,,,,,,,,training,7,5,0,left,a,,,,,889.1336,890.1607,35.84,30,20,1,0,0,0.2169,fixationPoint,890.1611,890.2581,890.2583,892.3019,35.84,10240,616.96,a,1,2.0169,,892.3023,892.5009,,,,,,,,96,28,-220,76,176,170,28,28,115,-25,160,-220,165,-128,208,-124,-67,-171,-65,-66,-77,172,-24,124,-116,360,90,270,270,360,360,270,180,90,180,180,,,,,,,,,,,892.501,892.5016,,0,100,100,100,1,7,repeated,,,,,,,,,,,,,,,,,,,,,,,,,,,,,,,,,,,,,,,,,,,,,,,,,
,,5,3,${e://Field/PROLIFIC_PID,M,34,2023-11-03_01h13.02.655,MouseEye_CC,2023.2.2,Win32,39.97281848,1.28,,,1366,768,55.116,4.31,"190.71, 191.94, 187.23, 177.02, 184.58, 175.38, 161.28",759.86,9.620533586,41.46449975,27.83653633,Passed,138.9060742,,,,,,,,,,,,,,,,,,,,,training,7,6,0,left,a,,,,,892.5036,892.771,35.84,-3,-1,1,0,0,0.2664,fixationPoint,892.7712,892.8779,892.878,895.0365,35.84,10240,616.96,a,1,2.1332,,895.0367,895.2261,,,,,,,,32,-174,73,209,68,216,122,77,125,-167,-128,-116,-123,-26,-65,215,-210,176,-216,28,-220,-120,76,-78,29,270,180,270,270,90,270,90,360,180,270,180,,,,,,,,,,,895.2265,895.2288,,0,101,101,101,1,16,novel,,,,,,,,,,,,,,,,,,,,,,,,,,,,,,,,,,,,,,,,,,,,,,,,,
,,5,3,${e://Field/PROLIFIC_PID,M,34,2023-11-03_01h13.02.655,MouseEye_CC,2023.2.2,Win32,39.97281848,1.28,,,1366,768,55.116,4.31,"190.71, 191.94, 187.23, 177.02, 184.58, 175.38, 161.28",759.86,9.620533586,41.46449975,27.83653633,Passed,138.9060742,,,,,,,,,,,,,,,,,,,,,training,7,7,180,right,s,,,,,895.2313,895.48,35.84,-3,-1,1,0,0,0.2477,fixationPoint,895.4805,895.5755,895.5758,897.8623,35.84,10240,616.96,s,1,2.255,,897.8626,898.0517,,,,,,,,95,-31,-216,116,172,31,166,166,212,-128,208,-161,170,-171,126,124,-116,219,-32,168,-77,-167,-128,-174,-163,90,270,90,180,270,360,180,270,90,360,270,,,,,,,,,,,898.0524,898.0535,,0,102,102,102,1,9,novel,,,,,,,,,,,,,,,,,,,,,,,,,,,,,,,,,,,,,,,,,,,,,,,,,
,,5,3,${e://Field/PROLIFIC_PID,M,34,2023-11-03_01h13.02.655,MouseEye_CC,2023.2.2,Win32,39.97281848,1.28,,,1366,768,55.116,4.31,"190.71, 191.94, 187.23, 177.02, 184.58, 175.38, 161.28",759.86,9.620533586,41.46449975,27.83653633,Passed,138.9060742,,,,,,,,,,,,,,,,,,,,,training,7,8,0,left,a,,,,,898.0557,898.2712,35.84,-3,-1,1,0,0,0.2148,fixationPoint,898.2715,898.377,898.3773,901.3489,35.84,10240,616.96,a,1,2.9378,,901.3492,901.5415,,,,,,,,52,-176,-24,174,64,216,122,166,212,-120,76,-126,120,-128,26,116,-19,19,-116,208,-75,-167,-128,-66,-77,270,360,360,270,90,270,180,270,270,270,180,,,,,,,,,,,901.5418,901.5429,,0,103,103,103,1,6,repeated,,,,,,,,,,,,,,,,,,,,,,,,,,,,,,,,,,,,,,,,,,,,,,,,,
,,5,3,${e://Field/PROLIFIC_PID,M,34,2023-11-03_01h13.02.655,MouseEye_CC,2023.2.2,Win32,39.97281848,1.28,,,1366,768,55.116,4.31,"190.71, 191.94, 187.23, 177.02, 184.58, 175.38, 161.28",759.86,9.620533586,41.46449975,27.83653633,Passed,138.9060742,,,,,,,,,,,,,,,,,,,,,training,7,9,180,right,s,,,,,901.5458,901.6746,35.84,-3,-1,1,0,0,0.128,fixationPoint,901.6749,901.7672,901.7676,904.461,35.84,10240,616.96,s,1,2.662,,904.4612,904.6561,,,,,,,,69,168,-77,28,115,77,125,31,166,-174,73,-80,224,-160,18,-176,-24,-223,-220,-26,-65,217,-171,28,-75,360,90,180,90,90,270,90,90,90,180,180,,,,,,,,,,,904.657,904.6584,,0,104,104,104,1,8,repeated,,,,,,,,,,,,,,,,,,,,,,,,,,,,,,,,,,,,,,,,,,,,,,,,,
,,5,3,${e://Field/PROLIFIC_PID,M,34,2023-11-03_01h13.02.655,MouseEye_CC,2023.2.2,Win32,39.97281848,1.28,,,1366,768,55.116,4.31,"190.71, 191.94, 187.23, 177.02, 184.58, 175.38, 161.28",759.86,9.620533586,41.46449975,27.83653633,Passed,138.9060742,,,,,,,,,,,,,,,,,,,,,training,7,10,0,left,a,,,,,904.661,904.7359,35.84,-3,-1,1,0,0,0.074,fixationPoint,904.7361,904.8374,904.8375,906.6425,35.84,10240,616.96,a,1,1.7763,,906.6432,906.8391,,,,,,,,93,-128,-222,172,127,112,119,66,22,-25,160,-160,18,-174,73,176,-176,77,-220,28,-75,-212,-80,-214,-124,360,90,270,270,180,180,90,90,180,90,180,,,,,,,,,,,906.8394,906.8402,,0,105,105,105,1,5,repeated,,,,,,,,,,,,,,,,,,,,,,,,,,,,,,,,,,,,,,,,,,,,,,,,,
,,5,3,${e://Field/PROLIFIC_PID,M,34,2023-11-03_01h13.02.655,MouseEye_CC,2023.2.2,Win32,39.97281848,1.28,,,1366,768,55.116,4.31,"190.71, 191.94, 187.23, 177.02, 184.58, 175.38, 161.28",759.86,9.620533586,41.46449975,27.83653633,Passed,138.9060742,,,,,,,,,,,,,,,,,,,,,training,7,11,180,right,s,,,,,906.8424,906.9939,35.84,-3,-1,1,0,0,0.1511,fixationPoint,906.9941,907.059,907.06,910.4187,35.84,10240,616.96,s,1,3.3263,,910.4189,910.6205,,,,,,,,8,123,215,-161,170,-25,160,-28,78,-112,-172,-26,-65,-29,-126,219,-32,172,-24,71,-22,74,216,28,115,90,180,90,270,180,270,90,360,90,90,90,,,,,,,,,,,910.621,910.6217,,0,106,106,106,1,13,novel,,,,,,,,,,,,,,,,,,,,,,,,,,,,,,,,,,,,,,,,,,,,,,,,,
,,5,3,${e://Field/PROLIFIC_PID,M,34,2023-11-03_01h13.02.655,MouseEye_CC,2023.2.2,Win32,39.97281848,1.28,,,1366,768,55.116,4.31,"190.71, 191.94, 187.23, 177.02, 184.58, 175.38, 161.28",759.86,9.620533586,41.46449975,27.83653633,Passed,138.9060742,,,,,,,,,,,,,,,,,,,,,training,7,12,180,right,s,,,,,910.6242,910.8406,35.84,-3,-1,1,0,0,0.2158,fixationPoint,910.8407,910.9359,910.9367,912.2899,35.84,10240,616.96,s,1,1.3219,,912.2901,912.4732,,,,,,,,29,172,127,-65,80,-78,29,-161,170,-220,-16,-69,-32,-116,-123,176,-176,116,-19,28,-220,169,164,28,115,90,270,90,360,270,180,270,90,90,270,270,,,,,,,,,,,912.4734,912.4747,,0,107,107,107,1,2,repeated,,,,,,,,,,,,,,,,,,,,,,,,,,,,,,,,,,,,,,,,,,,,,,,,,
,,5,3,${e://Field/PROLIFIC_PID,M,34,2023-11-03_01h13.02.655,MouseEye_CC,2023.2.2,Win32,39.97281848,1.28,,,1366,768,55.116,4.31,"190.71, 191.94, 187.23, 177.02, 184.58, 175.38, 161.28",759.86,9.620533586,41.46449975,27.83653633,Passed,138.9060742,,,,,,,,,,,,,,,,,,,,,training,7,13,0,left,a,,,,,912.4771,912.7997,35.84,-3,-1,1,0,0,0.3219,fixationPoint,912.7999,912.8636,912.8639,914.0542,35.84,10240,616.96,a,1,1.1592,,914.0546,914.2438,,,,,,,,6,23,208,-160,18,-124,175,-171,126,-24,-174,-66,-77,-72,-165,123,-64,120,-165,219,-32,223,212,213,169,360,90,180,90,360,360,90,180,180,270,180,,,,,,,,,,,914.244,914.2447,,0,108,108,108,1,1,repeated,,,,,,,,,,,,,,,,,,,,,,,,,,,,,,,,,,,,,,,,,,,,,,,,,
,,5,3,${e://Field/PROLIFIC_PID,M,34,2023-11-03_01h13.02.655,MouseEye_CC,2023.2.2,Win32,39.97281848,1.28,,,1366,768,55.116,4.31,"190.71, 191.94, 187.23, 177.02, 184.58, 175.38, 161.28",759.86,9.620533586,41.46449975,27.83653633,Passed,138.9060742,,,,,,,,,,,,,,,,,,,,,training,7,14,0,left,a,,,,,914.2469,914.4716,35.84,-3,-1,1,0,0,0.2244,fixationPoint,914.4718,914.5699,914.5701,917.9914,35.84,10240,616.96,a,1,3.3929,,917.9917,918.1979,,,,,,,,72,-167,-128,213,169,223,212,28,115,-120,76,-126,120,-128,208,217,-171,113,-218,28,-220,-128,-222,-26,-65,270,90,360,90,360,180,360,360,270,270,180,,,,,,,,,,,918.198,918.1989,,0,109,109,109,1,10,novel,,,,,,,,,,,,,,,,,,,,,,,,,,,,,,,,,,,,,,,,,,,,,,,,,
,,5,3,${e://Field/PROLIFIC_PID,M,34,2023-11-03_01h13.02.655,MouseEye_CC,2023.2.2,Win32,39.97281848,1.28,,,1366,768,55.116,4.31,"190.71, 191.94, 187.23, 177.02, 184.58, 175.38, 161.28",759.86,9.620533586,41.46449975,27.83653633,Passed,138.9060742,,,,,,,,,,,,,,,,,,,,,training,7,15,180,right,s,,,,,918.2014,918.728,35.84,-3,-1,1,0,0,0.5229,fixationPoint,918.7283,918.825,918.8253,919.8576,35.84,10240,616.96,s,1,0.9813,,919.8579,920.0454,,,,,,,,5,-21,220,31,166,66,22,213,169,-171,-65,-26,-65,-223,-220,28,-75,219,-32,116,-19,-174,73,-80,224,270,270,90,270,90,90,180,180,270,360,90,,,,,,,,,,,920.0464,920.0474,,0,110,110,110,1,15,novel,,,,,,,,,,,,,,,,,,,,,,,,,,,,,,,,,,,,,,,,,,,,,,,,,
,,5,3,${e://Field/PROLIFIC_PID,M,34,2023-11-03_01h13.02.655,MouseEye_CC,2023.2.2,Win32,39.97281848,1.28,,,1366,768,55.116,4.31,"190.71, 191.94, 187.23, 177.02, 184.58, 175.38, 161.28",759.86,9.620533586,41.46449975,27.83653633,Passed,138.9060742,,,,,,,,,,,,,,,,,,,,,training,7,16,180,right,s,,,,,920.0495,920.4921,35.84,-3,-1,1,0,0,0.4421,fixationPoint,920.4922,920.5853,920.5856,923.4542,35.84,10240,616.96,s,1,2.8427,,923.4544,923.6508,,,,,,,,49,170,28,-22,25,-80,224,-78,29,-24,-174,-167,-128,-72,-165,176,-176,217,-171,222,-116,213,169,123,215,90,180,180,180,270,180,360,360,90,270,270,,,,,,,,,,,923.6511,942.2953,space,0,111,111,111,1,14,novel,18.6101,,,,,,,,,,,,,,,,,,,,,,,,,,,,,,,,,,,,,,,,,,,,,,,,
,,5,3,${e://Field/PROLIFIC_PID,M,34,2023-11-03_01h13.02.655,MouseEye_CC,2023.2.2,Win32,39.97281848,1.28,,,1366,768,55.116,4.31,"190.71, 191.94, 187.23, 177.02, 184.58, 175.38, 161.28",759.86,9.620533586,41.46449975,27.83653633,Passed,138.9060742,,,,,,,,,,,,,,,,,,,,,training,8,1,180,right,s,,,,,942.332,943.1702,35.84,-3,-1,1,0,0,0.8377,fixationPoint,943.1705,943.2693,943.2694,944.5711,35.84,10240,616.96,s,1,1.2742,,944.5714,944.7702,,,,,,,,8,123,215,-22,25,-25,160,-75,123,-123,-24,-128,-222,-174,-163,124,-116,19,-116,80,-73,76,176,166,212,360,180,180,90,270,360,360,180,90,270,90,,,,,,,,,,,944.7703,944.779,,0,112,112,112,1,13,novel,,,,,,,,,,,,,,,,,,,,,,,,,,,,,,,,,,,,,,,,,,,,,,,,,
,,5,3,${e://Field/PROLIFIC_PID,M,34,2023-11-03_01h13.02.655,MouseEye_CC,2023.2.2,Win32,39.97281848,1.28,,,1366,768,55.116,4.31,"190.71, 191.94, 187.23, 177.02, 184.58, 175.38, 161.28",759.86,9.620533586,41.46449975,27.83653633,Passed,138.9060742,,,,,,,,,,,,,,,,,,,,,training,8,2,0,left,a,,,,,944.7801,945.5243,35.84,-1,0,1,0,0,0.7439,fixationPoint,945.5245,945.6219,945.6221,948.4349,35.84,10240,616.96,a,1,2.7637,,948.435,948.6251,,,,,,,,93,-128,-222,172,127,112,119,66,22,-25,160,-160,18,-174,73,176,-176,77,-220,28,-75,-212,-80,-214,-124,360,180,360,270,180,360,180,270,270,360,90,,,,,,,,,,,948.6252,948.626,,0,113,113,113,1,5,repeated,,,,,,,,,,,,,,,,,,,,,,,,,,,,,,,,,,,,,,,,,,,,,,,,,
,,5,3,${e://Field/PROLIFIC_PID,M,34,2023-11-03_01h13.02.655,MouseEye_CC,2023.2.2,Win32,39.97281848,1.28,,,1366,768,55.116,4.31,"190.71, 191.94, 187.23, 177.02, 184.58, 175.38, 161.28",759.86,9.620533586,41.46449975,27.83653633,Passed,138.9060742,,,,,,,,,,,,,,,,,,,,,training,8,3,180,right,s,,,,,948.6326,949.6527,35.84,-1,0,1,0,0,1.0188,fixationPoint,949.6529,949.7489,949.7494,952.2618,35.84,10240,616.96,s,1,2.487,,952.2619,952.4513,,,,,,,,89,176,-176,31,22,166,212,20,75,-78,29,-163,209,-124,175,-66,-77,-123,-24,-167,-128,71,-22,123,-64,180,360,270,180,90,360,180,90,270,270,90,,,,,,,,,,,952.4515,952.4521,,0,114,114,114,1,12,novel,,,,,,,,,,,,,,,,,,,,,,,,,,,,,,,,,,,,,,,,,,,,,,,,,
,,5,3,${e://Field/PROLIFIC_PID,M,34,2023-11-03_01h13.02.655,MouseEye_CC,2023.2.2,Win32,39.97281848,1.28,,,1366,768,55.116,4.31,"190.71, 191.94, 187.23, 177.02, 184.58, 175.38, 161.28",759.86,9.620533586,41.46449975,27.83653633,Passed,138.9060742,,,,,,,,,,,,,,,,,,,,,training,8,4,0,left,a,,,,,952.4533,952.7839,35.84,0,0,1,0,0,0.3299,fixationPoint,952.7844,952.8523,952.8524,954.2031,35.84,10240,616.96,a,1,1.3226,,954.2035,954.3888,,,,,,,,29,172,127,-65,80,-78,29,-161,170,-220,-16,-69,-32,-116,-123,176,-176,116,-19,28,-220,169,164,28,115,180,360,270,270,90,180,180,270,180,180,360,,,,,,,,,,,954.3891,954.3907,,0,115,115,115,1,2,repeated,,,,,,,,,,,,,,,,,,,,,,,,,,,,,,,,,,,,,,,,,,,,,,,,,
,,5,3,${e://Field/PROLIFIC_PID,M,34,2023-11-03_01h13.02.655,MouseEye_CC,2023.2.2,Win32,39.97281848,1.28,,,1366,768,55.116,4.31,"190.71, 191.94, 187.23, 177.02, 184.58, 175.38, 161.28",759.86,9.620533586,41.46449975,27.83653633,Passed,138.9060742,,,,,,,,,,,,,,,,,,,,,training,8,5,0,left,a,,,,,954.3931,954.6301,35.84,0,0,1,0,0,0.2365,fixationPoint,954.6303,954.732,954.7326,958.8523,35.84,10240,616.96,a,1,4.0698,0.002,958.8527,959.0377,,,,,,,,6,23,208,-160,18,-124,175,-171,126,-24,-174,-66,-77,-72,-165,123,-64,120,-165,219,-32,223,212,213,169,270,180,180,270,270,360,360,270,180,90,360,,,,,,,,,,,959.0379,959.0387,,0,116,116,116,1,1,repeated,,,,,,,,,,,,,,,,,,,,,,,,,,,,,,,,,,,,,,,,,,,,,,,,,
,,5,3,${e://Field/PROLIFIC_PID,M,34,2023-11-03_01h13.02.655,MouseEye_CC,2023.2.2,Win32,39.97281848,1.28,,,1366,768,55.116,4.31,"190.71, 191.94, 187.23, 177.02, 184.58, 175.38, 161.28",759.86,9.620533586,41.46449975,27.83653633,Passed,138.9060742,,,,,,,,,,,,,,,,,,,,,training,8,6,180,right,s,,,,,959.0406,961.667,35.84,0,0,1,0,0,2.6257,fixationPoint,961.6678,961.7543,961.7548,964.8128,35.84,10240,616.96,s,1,3.0246,,964.8131,965.011,,,,,,,,52,-176,-24,174,64,216,122,166,212,-120,76,-126,120,-128,26,116,-19,19,-116,208,-75,-167,-128,-66,-77,180,180,270,270,360,90,270,90,270,90,360,,,,,,,,,,,965.0113,965.0132,,0,117,117,117,1,6,repeated,,,,,,,,,,,,,,,,,,,,,,,,,,,,,,,,,,,,,,,,,,,,,,,,,
,,5,3,${e://Field/PROLIFIC_PID,M,34,2023-11-03_01h13.02.655,MouseEye_CC,2023.2.2,Win32,39.97281848,1.28,,,1366,768,55.116,4.31,"190.71, 191.94, 187.23, 177.02, 184.58, 175.38, 161.28",759.86,9.620533586,41.46449975,27.83653633,Passed,138.9060742,,,,,,,,,,,,,,,,,,,,,training,8,7,180,right,s,,,,,965.0163,965.4138,35.84,0,0,1,0,0,0.3963,fixationPoint,965.414,965.5138,965.514,966.4391,35.84,10240,616.96,s,1,0.895,,966.4394,966.6403,,,,,,,,32,-174,73,20,75,74,216,23,208,-29,-126,-116,-123,-124,-67,24,-22,65,-169,222,-116,-28,114,-124,175,90,270,270,180,360,360,360,270,180,180,180,,,,,,,,,,,966.6408,966.6422,,0,118,118,118,1,16,novel,,,,,,,,,,,,,,,,,,,,,,,,,,,,,,,,,,,,,,,,,,,,,,,,,
