InstrStartPage.started,InstrStartPage.stopped,participant,designid,prolificid,Gender,Age,date,expName,psychopyVersion,OS,frameRate,ratio_monitor2CRT,VirtualChinrest.started,VirtualChinrest.stopped,xRes,yRes,viewingdistance_cm,pixeldensity_px2mm,BallPos,squarePos,mm2degree,px2degree,CRT_px2degree,PassVirtualChinrest,foveaRadius_inPixel,InstrRedo.started,InstrRedo.stopped,VirtualChinrest_Redo.started,VirtualChinrest_Redo.stopped,Redo_virtualChinrest,Instruction1.started,Instruction1.stopped,keyPractice.started,keyPractice.stopped,key_keyprac.keys,key_keyprac.corr,key_keyprac.rt,key_keyprac.duration,keyPracFeedback.started,keyPracFeedback.stopped,keyPracLoop.thisRepN,keyPracLoop.thisTrialN,keyPracLoop.thisN,keyPracLoop.thisIndex,keyPracLoop.ran,phase,block,trial,targOrientdeg,targOrient,corrAnswer,Instruction2.started,Instruction2.stopped,Instruction3.started,Instruction3.stopped,fixation.started,fixation.stopped,fixationSize,mouseintial.x,mouseintial.y,mouseintial.leftButton,mouseintial.midButton,mouseintial.rightButton,mouseintial.time,mouseintial.clicked_name,greenFixation.started,greenFixation.stopped,trial.started,trial.stopped,letterSize,apertureSize,searchsize,key_respMain.keys,key_respMain.corr,key_respMain.rt,key_respMain.duration,trialFeedback.started,trialFeedback.stopped,trialsPractice.thisRepN,trialsPractice.thisTrialN,trialsPractice.thisN,trialsPractice.thisIndex,trialsPractice.ran,targetQuad,Tcondition,targcell,tlocx,tlocy,d1x,d1y,d2x,d2y,d3x,d3y,d4x,d4y,d5x,d5y,d6x,d6y,d7x,d7y,d8x,d8y,d9x,d9y,d10x,d10y,d11x,d11y,d1Orient,d2Orient,d3Orient,d4Orient,d5Orient,d6Orient,d7Orient,d8Orient,d9Orient,d10Orient,d11Orient,CheckInstr.started,CheckInstr.stopped,key_checkInstr.keys,key_checkInstr.corr,key_checkInstr.rt,key_checkInstr.duration,CheckInstr_FB.started,CheckInstr_FB.stopped,Instruction_MainExp.started,Instruction_MainExp.stopped,TakeABreak.started,TakeABreak.stopped,key_respBreak.keys,trials.thisRepN,trials.thisTrialN,trials.thisN,trials.thisIndex,trials.ran,configurationNumber,CCCondition,key_respBreak.rt,key_respBreak.duration,displayTestingPhase.started,displayTestingPhase.stopped,key_respTesting.keys,key_respTesting.corr,key_respTesting.rt,key_respTesting.duration,TakeABreak2.started,TakeABreak2.stopped,key_RespBreak.keys,Testingtrials.thisRepN,Testingtrials.thisTrialN,Testingtrials.thisN,Testingtrials.thisIndex,Testingtrials.ran,key_RespBreak.rt,key_RespBreak.duration,RecogQuestion.started,RecogQuestion.stopped,key_AnswerQues.keys,key_AnswerQues.rt,key_AnswerQues.duration,Disclose.started,Disclose.stopped,InstrRT.started,InstrRT.stopped,fixation_RT.started,fixation_RT.stopped,mouseInitial.x,mouseInitial.y,mouseInitial.leftButton,mouseInitial.midButton,mouseInitial.rightButton,mouseInitial.time,mouseInitial.clicked_name,displayRT.started,displayRT.stopped,key_respRT.keys,key_respRT.corr,key_respRT.rt,key_respRT.duration,RTtrials.thisRepN,RTtrials.thisTrialN,RTtrials.thisN,RTtrials.thisIndex,RTtrials.ran,EndOfExperiment.started,EndOfExperiment.stopped
0.0001,5.1773,6,10,${e://Field/PROLIFIC_PID,F,18,2023-11-03_01h04.09.355,MouseEye_CC,2023.2.2,Win32,60.41565974,1,,,,,,,,,,,,,,,,,,,,,,,,,,,,,,,,,,,,,,,,,,,,,,,,,,,,,,,,,,,,,,,,,,,,,,,,,,,,,,,,,,,,,,,,,,,,,,,,,,,,,,,,,,,,,,,,,,,,,,,,,,,,,,,,,,,,,,,,,,,,,,,,,,,,,,,,,,,,,,,,,,,,,,,,,,,,,,,,,,
,,6,10,${e://Field/PROLIFIC_PID,F,18,2023-11-03_01h04.09.355,MouseEye_CC,2023.2.2,Win32,60.41565974,1.456144243,5.1782,125.7625,1920,1080,45.983999999999995,5.05,"151.34, 363.21, 352.85, 197.05, 314.93, 377.3, 351.45",873.41,8.026537057,40.53401214,27.83653633,Passed,135.7889407,,,,,,,,,,,,,,,,,,,,,,,,,,,,,,,,,,,,,,,,,,,,,,,,,,,,,,,,,,,,,,,,,,,,,,,,,,,,,,,,,,,,,,,,,,,,,,,,,,,,,,,,,,,,,,,,,,,,,,,,,,,,,,,,,,,,,,,,,,,,,,,,,,,,,,,,,,,,,,,,,,,,,
,,6,10,${e://Field/PROLIFIC_PID,F,18,2023-11-03_01h04.09.355,MouseEye_CC,2023.2.2,Win32,60.41565974,1.456144243,,,1920,1080,45.983999999999995,5.05,"151.34, 363.21, 352.85, 197.05, 314.93, 377.3, 351.45",873.41,8.026537057,40.53401214,27.83653633,Passed,135.7889407,125.7629,125.7653,,,,,,,,,,,,,,,,,,,,,,,,,,,,,,,,,,,,,,,,,,,,,,,,,,,,,,,,,,,,,,,,,,,,,,,,,,,,,,,,,,,,,,,,,,,,,,,,,,,,,,,,,,,,,,,,,,,,,,,,,,,,,,,,,,,,,,,,,,,,,,,,,,,,,,,,,,,,,,,,,,,
,,6,10,${e://Field/PROLIFIC_PID,F,18,2023-11-03_01h04.09.355,MouseEye_CC,2023.2.2,Win32,60.41565974,1.28,,,1920,1080,43.637,5.05,"151.34, 363.21, 352.85, 197.05, 314.93, 377.3, 351.45",873.41,7.616866683,38.46517675,27.83653633,Passed,128.8583421,,,125.7654,171.2368,failed,,,,,,,,,,,,,,,,,,,,,,,,,,,,,,,,,,,,,,,,,,,,,,,,,,,,,,,,,,,,,,,,,,,,,,,,,,,,,,,,,,,,,,,,,,,,,,,,,,,,,,,,,,,,,,,,,,,,,,,,,,,,,,,,,,,,,,,,,,,,,,,,,,,,,,,,,,,,,,,,
,,6,10,${e://Field/PROLIFIC_PID,F,18,2023-11-03_01h04.09.355,MouseEye_CC,2023.2.2,Win32,60.41565974,1.28,,,1920,1080,43.637,5.05,"151.34, 363.21, 352.85, 197.05, 314.93, 377.3, 351.45",873.41,7.616866683,38.46517675,27.83653633,Passed,128.8583421,,,,,,171.2373,208.5502,,,,,,,,,,,,,,,,,,,,,,,,,,,,,,,,,,,,,,,,,,,,,,,,,,,,,,,,,,,,,,,,,,,,,,,,,,,,,,,,,,,,,,,,,,,,,,,,,,,,,,,,,,,,,,,,,,,,,,,,,,,,,,,,,,,,,,,,,,,,,,,,,,,,,,,,,,,,,,
,,6,10,${e://Field/PROLIFIC_PID,F,18,2023-11-03_01h04.09.355,MouseEye_CC,2023.2.2,Win32,60.41565974,1.28,,,1920,1080,43.637,5.05,"151.34, 363.21, 352.85, 197.05, 314.93, 377.3, 351.45",873.41,7.616866683,38.46517675,27.83653633,Passed,128.8583421,,,,,,,,208.5666,209.7076,s,0,0.6157,,209.7079,210.2067,0,0,0,0,1,practice,1,1,0,left,a,,,,,,,,,,,,,,,,,,,,,,,,,,,,,,,,,,,,,,,,,,,,,,,,,,,,,,,,,,,,,,,,,,,,,,,,,,,,,,,,,,,,,,,,,,,,,,,,,,,,,,,,,,,,,,,,,,,,,,,,,,,,,,,,,,,,,,,,,,,
,,6,10,${e://Field/PROLIFIC_PID,F,18,2023-11-03_01h04.09.355,MouseEye_CC,2023.2.2,Win32,60.41565974,1.28,,,1920,1080,43.637,5.05,"151.34, 363.21, 352.85, 197.05, 314.93, 377.3, 351.45",873.41,7.616866683,38.46517675,27.83653633,Passed,128.8583421,,,,,,,,210.2082,211.7894,a,1,1.0565,,211.7895,212.289,0,1,1,1,1,practice,1,2,0,left,a,,,,,,,,,,,,,,,,,,,,,,,,,,,,,,,,,,,,,,,,,,,,,,,,,,,,,,,,,,,,,,,,,,,,,,,,,,,,,,,,,,,,,,,,,,,,,,,,,,,,,,,,,,,,,,,,,,,,,,,,,,,,,,,,,,,,,,,,,,,
,,6,10,${e://Field/PROLIFIC_PID,F,18,2023-11-03_01h04.09.355,MouseEye_CC,2023.2.2,Win32,60.41565974,1.28,,,1920,1080,43.637,5.05,"151.34, 363.21, 352.85, 197.05, 314.93, 377.3, 351.45",873.41,7.616866683,38.46517675,27.83653633,Passed,128.8583421,,,,,,,,212.2897,215.7878,a,1,2.966,,215.788,216.2877,0,2,2,2,1,practice,1,3,0,left,a,,,,,,,,,,,,,,,,,,,,,,,,,,,,,,,,,,,,,,,,,,,,,,,,,,,,,,,,,,,,,,,,,,,,,,,,,,,,,,,,,,,,,,,,,,,,,,,,,,,,,,,,,,,,,,,,,,,,,,,,,,,,,,,,,,,,,,,,,,,
,,6,10,${e://Field/PROLIFIC_PID,F,18,2023-11-03_01h04.09.355,MouseEye_CC,2023.2.2,Win32,60.41565974,1.28,,,1920,1080,43.637,5.05,"151.34, 363.21, 352.85, 197.05, 314.93, 377.3, 351.45",873.41,7.616866683,38.46517675,27.83653633,Passed,128.8583421,,,,,,,,216.2887,217.4373,s,1,0.6221,,217.4373,217.9372,0,3,3,3,1,practice,1,4,180,right,s,,,,,,,,,,,,,,,,,,,,,,,,,,,,,,,,,,,,,,,,,,,,,,,,,,,,,,,,,,,,,,,,,,,,,,,,,,,,,,,,,,,,,,,,,,,,,,,,,,,,,,,,,,,,,,,,,,,,,,,,,,,,,,,,,,,,,,,,,,,
,,6,10,${e://Field/PROLIFIC_PID,F,18,2023-11-03_01h04.09.355,MouseEye_CC,2023.2.2,Win32,60.41565974,1.28,,,1920,1080,43.637,5.05,"151.34, 363.21, 352.85, 197.05, 314.93, 377.3, 351.45",873.41,7.616866683,38.46517675,27.83653633,Passed,128.8583421,,,,,,,,217.9379,219.1535,s,1,0.6885,,219.1536,219.6533,0,4,4,4,1,practice,1,5,180,right,s,,,,,,,,,,,,,,,,,,,,,,,,,,,,,,,,,,,,,,,,,,,,,,,,,,,,,,,,,,,,,,,,,,,,,,,,,,,,,,,,,,,,,,,,,,,,,,,,,,,,,,,,,,,,,,,,,,,,,,,,,,,,,,,,,,,,,,,,,,,
,,6,10,${e://Field/PROLIFIC_PID,F,18,2023-11-03_01h04.09.355,MouseEye_CC,2023.2.2,Win32,60.41565974,1.28,,,1920,1080,43.637,5.05,"151.34, 363.21, 352.85, 197.05, 314.93, 377.3, 351.45",873.41,7.616866683,38.46517675,27.83653633,Passed,128.8583421,,,,,,,,219.6541,220.6712,a,1,0.4845,,220.6713,221.1694,0,5,5,5,1,practice,1,6,0,left,a,,,,,,,,,,,,,,,,,,,,,,,,,,,,,,,,,,,,,,,,,,,,,,,,,,,,,,,,,,,,,,,,,,,,,,,,,,,,,,,,,,,,,,,,,,,,,,,,,,,,,,,,,,,,,,,,,,,,,,,,,,,,,,,,,,,,,,,,,,,
,,6,10,${e://Field/PROLIFIC_PID,F,18,2023-11-03_01h04.09.355,MouseEye_CC,2023.2.2,Win32,60.41565974,1.28,,,1920,1080,43.637,5.05,"151.34, 363.21, 352.85, 197.05, 314.93, 377.3, 351.45",873.41,7.616866683,38.46517675,27.83653633,Passed,128.8583421,,,,,,,,221.1701,222.4525,s,1,0.755,,222.4526,222.9521,0,6,6,6,1,practice,1,7,180,right,s,,,,,,,,,,,,,,,,,,,,,,,,,,,,,,,,,,,,,,,,,,,,,,,,,,,,,,,,,,,,,,,,,,,,,,,,,,,,,,,,,,,,,,,,,,,,,,,,,,,,,,,,,,,,,,,,,,,,,,,,,,,,,,,,,,,,,,,,,,,
,,6,10,${e://Field/PROLIFIC_PID,F,18,2023-11-03_01h04.09.355,MouseEye_CC,2023.2.2,Win32,60.41565974,1.28,,,1920,1080,43.637,5.05,"151.34, 363.21, 352.85, 197.05, 314.93, 377.3, 351.45",873.41,7.616866683,38.46517675,27.83653633,Passed,128.8583421,,,,,,,,,,,,,,,,,,,,,,,,,,,222.9547,232.7848,,,,,,,,,,,,,,,,,,,,,,,,,,,,,,,,,,,,,,,,,,,,,,,,,,,,,,,,,,,,,,,,,,,,,,,,,,,,,,,,,,,,,,,,,,,,,,,,,,,,,,,,,,,,,,,,,,,,,,,,,,,,,,,,,,,,,,,,,
,,6,10,${e://Field/PROLIFIC_PID,F,18,2023-11-03_01h04.09.355,MouseEye_CC,2023.2.2,Win32,60.41565974,1.28,,,1920,1080,43.637,5.05,"151.34, 363.21, 352.85, 197.05, 314.93, 377.3, 351.45",873.41,7.616866683,38.46517675,27.83653633,Passed,128.8583421,,,,,,,,,,,,,,,,,,,,,,,,,,,,,232.7852,239.315,,,,,,,,,,,,,,,,,,,,,,,,,,,,,,,,,,,,,,,,,,,,,,,,,,,,,,,,,,,,,,,,,,,,,,,,,,,,,,,,,,,,,,,,,,,,,,,,,,,,,,,,,,,,,,,,,,,,,,,,,,,,,,,,,,,,,,,
,,6,10,${e://Field/PROLIFIC_PID,F,18,2023-11-03_01h04.09.355,MouseEye_CC,2023.2.2,Win32,60.41565974,1.28,,,1920,1080,43.637,5.05,"151.34, 363.21, 352.85, 197.05, 314.93, 377.3, 351.45",873.41,7.616866683,38.46517675,27.83653633,Passed,128.8583421,,,,,,,,,,,,,,,,,,,,,practice,0,1,0,left,a,,,,,239.3502,245.2856,35.84,-3,5,1,0,0,5.9352,fixationPoint,245.2857,245.3778,245.3783,250.4945,35.84,10240,616.96,a,1,5.0907,,250.495,250.6929,0,0,0,0,1,4,sparse,90,217,-164,68,123,222,26,214,216,-218,159,-120,223,-110,82,-115,-130,-224,-120,-68,-219,79,-175,19,-128,90,270,360,90,270,270,180,90,90,90,270,,,,,,,,,,,,,,,,,,,,,,,,,,,,,,,,,,,,,,,,,,,,,,,,,,,,,,,,,,,,,,,,,,,,,
,,6,10,${e://Field/PROLIFIC_PID,F,18,2023-11-03_01h04.09.355,MouseEye_CC,2023.2.2,Win32,60.41565974,1.28,,,1920,1080,43.637,5.05,"151.34, 363.21, 352.85, 197.05, 314.93, 377.3, 351.45",873.41,7.616866683,38.46517675,27.83653633,Passed,128.8583421,,,,,,,,,,,,,,,,,,,,,practice,0,2,0,left,a,,,,,250.6938,252.5923,35.84,-3,5,1,0,0,1.8982,fixationPoint,252.5925,252.6922,252.6923,256.6417,35.84,10240,616.96,a,1,3.918,,256.642,256.8405,0,1,1,1,1,1,rich,39,169,66,-126,125,-169,169,-130,19,-169,-116,-125,-167,-224,-216,218,-129,171,-218,18,-208,166,26,17,170,180,90,360,270,90,90,90,270,180,180,270,,,,,,,,,,,,,,,,,,,,,,,,,,,,,,,,,,,,,,,,,,,,,,,,,,,,,,,,,,,,,,,,,,,,,
,,6,10,${e://Field/PROLIFIC_PID,F,18,2023-11-03_01h04.09.355,MouseEye_CC,2023.2.2,Win32,60.41565974,1.28,,,1920,1080,43.637,5.05,"151.34, 363.21, 352.85, 197.05, 314.93, 377.3, 351.45",873.41,7.616866683,38.46517675,27.83653633,Passed,128.8583421,,,,,,,,,,,,,,,,,,,,,practice,0,3,0,left,a,,,,,256.8415,259.4897,35.84,-3,5,1,0,0,2.6478,fixationPoint,259.4899,259.5895,259.5895,261.9888,35.84,10240,616.96,a,1,2.3818,,261.9889,262.1889,0,2,2,2,1,2,sparse,22,-162,126,222,26,17,170,126,172,-25,-117,-175,-206,-224,-216,116,-19,130,-174,217,-164,-218,159,-21,162,90,90,180,360,360,270,360,360,360,360,180,,,,,,,,,,,,,,,,,,,,,,,,,,,,,,,,,,,,,,,,,,,,,,,,,,,,,,,,,,,,,,,,,,,,,
,,6,10,${e://Field/PROLIFIC_PID,F,18,2023-11-03_01h04.09.355,MouseEye_CC,2023.2.2,Win32,60.41565974,1.28,,,1920,1080,43.637,5.05,"151.34, 363.21, 352.85, 197.05, 314.93, 377.3, 351.45",873.41,7.616866683,38.46517675,27.83653633,Passed,128.8583421,,,,,,,,,,,,,,,,,,,,,practice,0,4,180,right,s,,,,,262.1899,265.1888,35.84,-3,5,1,0,0,2.9987,fixationPoint,265.189,265.2874,265.2874,270.3863,35.84,10240,616.96,s,1,5.0819,,270.3865,270.5861,0,3,3,3,1,4,sparse,76,19,-128,159,121,214,216,219,165,-218,159,-162,126,-219,119,-169,-116,-111,-31,-175,-206,18,-208,81,-114,90,270,180,180,270,180,360,360,360,270,360,,,,,,,,,,,,,,,,,,,,,,,,,,,,,,,,,,,,,,,,,,,,,,,,,,,,,,,,,,,,,,,,,,,,,
,,6,10,${e://Field/PROLIFIC_PID,F,18,2023-11-03_01h04.09.355,MouseEye_CC,2023.2.2,Win32,60.41565974,1.28,,,1920,1080,43.637,5.05,"151.34, 363.21, 352.85, 197.05, 314.93, 377.3, 351.45",873.41,7.616866683,38.46517675,27.83653633,Passed,128.8583421,,,,,,,,,,,,,,,,,,,,,practice,0,5,180,right,s,,,,,270.5873,272.352,35.84,-3,5,1,0,0,1.7644,fixationPoint,272.3522,272.4515,272.4516,275.5847,35.84,10240,616.96,s,1,3.1074,,275.5849,275.7842,0,4,4,4,1,3,sparse,85,-19,-173,219,165,68,123,214,216,-160,68,-64,120,-226,34,162,-21,224,-216,167,-163,-167,-74,-224,-216,360,360,360,90,180,270,90,360,270,270,360,,,,,,,,,,,,,,,,,,,,,,,,,,,,,,,,,,,,,,,,,,,,,,,,,,,,,,,,,,,,,,,,,,,,,
,,6,10,${e://Field/PROLIFIC_PID,F,18,2023-11-03_01h04.09.355,MouseEye_CC,2023.2.2,Win32,60.41565974,1.28,,,1920,1080,43.637,5.05,"151.34, 363.21, 352.85, 197.05, 314.93, 377.3, 351.45",873.41,7.616866683,38.46517675,27.83653633,Passed,128.8583421,,,,,,,,,,,,,,,,,,,,,practice,0,6,180,right,s,,,,,275.7852,276.8174,35.84,-3,5,1,0,0,1.0319,fixationPoint,276.8176,276.9169,276.9169,284.2315,35.84,10240,616.96,s,1,7.2827,,284.2317,284.4312,0,5,5,5,1,3,sparse,95,-21,-224,126,172,219,165,166,26,-166,207,-223,206,-219,119,169,-75,18,-208,224,-216,-72,-121,-115,-130,180,180,360,180,360,180,270,180,90,180,360,,,,,,,,,,,,,,,,,,,,,,,,,,,,,,,,,,,,,,,,,,,,,,,,,,,,,,,,,,,,,,,,,,,,,
,,6,10,${e://Field/PROLIFIC_PID,F,18,2023-11-03_01h04.09.355,MouseEye_CC,2023.2.2,Win32,60.41565974,1.28,,,1920,1080,43.637,5.05,"151.34, 363.21, 352.85, 197.05, 314.93, 377.3, 351.45",873.41,7.616866683,38.46517675,27.83653633,Passed,128.8583421,,,,,,,,,,,,,,,,,,,,,practice,0,7,0,left,a,,,,,284.432,287.8142,35.84,-3,5,1,0,0,3.3821,fixationPoint,287.8144,287.9019,287.902,292.0457,35.84,10240,616.96,a,1,4.1252,,292.0458,292.2454,0,6,6,6,1,1,rich,7,62,223,-166,207,-226,34,-162,126,-169,-116,-168,-160,-161,-27,15,-162,162,-21,79,-175,219,165,219,129,180,180,360,180,270,360,180,360,270,180,360,,,,,,,,,,,,,,,,,,,,,,,,,,,,,,,,,,,,,,,,,,,,,,,,,,,,,,,,,,,,,,,,,,,,,
,,6,10,${e://Field/PROLIFIC_PID,F,18,2023-11-03_01h04.09.355,MouseEye_CC,2023.2.2,Win32,60.41565974,1.28,,,1920,1080,43.637,5.05,"151.34, 363.21, 352.85, 197.05, 314.93, 377.3, 351.45",873.41,7.616866683,38.46517675,27.83653633,Passed,128.8583421,,,,,,,,,,,,,,,,,,,,,practice,0,8,180,right,s,,,,,292.2465,293.4961,35.84,-3,5,1,0,0,1.2489,fixationPoint,293.4963,293.5949,293.595,299.4432,35.84,10240,616.96,s,1,5.8158,,299.4434,299.6429,0,7,7,7,1,2,sparse,24,-64,120,18,215,126,172,33,121,-206,-170,-64,-162,-218,-78,130,-174,211,-74,168,-130,-164,32,-21,162,90,180,270,360,180,90,180,180,180,360,270,,,,,,,,,,,,,,,,,,,,,,,,,,,,,,,,,,,,,,,,,,,,,,,,,,,,,,,,,,,,,,,,,,,,,
,,6,10,${e://Field/PROLIFIC_PID,F,18,2023-11-03_01h04.09.355,MouseEye_CC,2023.2.2,Win32,60.41565974,1.28,,,1920,1080,43.637,5.05,"151.34, 363.21, 352.85, 197.05, 314.93, 377.3, 351.45",873.41,7.616866683,38.46517675,27.83653633,Passed,128.8583421,,,,,,,,,,,,,,,,,,,,,practice,0,9,180,right,s,,,,,299.6439,301.0255,35.84,-6,9,1,0,0,1.3814,fixationPoint,301.0257,301.114,301.114,305.791,35.84,10240,616.96,s,1,4.651,,305.7911,305.9909,0,8,8,8,1,3,sparse,85,-19,-173,127,30,62,223,217,67,-110,82,-21,162,-80,218,167,-163,126,-79,130,-174,-125,-167,-68,-219,360,360,360,180,360,360,180,270,90,360,180,,,,,,,,,,,,,,,,,,,,,,,,,,,,,,,,,,,,,,,,,,,,,,,,,,,,,,,,,,,,,,,,,,,,,
,,6,10,${e://Field/PROLIFIC_PID,F,18,2023-11-03_01h04.09.355,MouseEye_CC,2023.2.2,Win32,60.41565974,1.28,,,1920,1080,43.637,5.05,"151.34, 363.21, 352.85, 197.05, 314.93, 377.3, 351.45",873.41,7.616866683,38.46517675,27.83653633,Passed,128.8583421,,,,,,,,,,,,,,,,,,,,,practice,0,10,180,right,s,,,,,305.9919,307.2904,35.84,-6,9,1,0,0,1.298,fixationPoint,307.2906,307.3901,307.3901,309.0732,35.84,10240,616.96,s,1,1.6546,,309.0734,309.2728,0,9,9,9,1,1,rich,9,160,209,-166,207,-226,34,-120,223,-224,-120,-118,-217,-218,-78,112,-209,126,-113,169,-75,178,160,110,129,180,90,90,270,360,270,360,180,360,180,360,,,,,,,,,,,,,,,,,,,,,,,,,,,,,,,,,,,,,,,,,,,,,,,,,,,,,,,,,,,,,,,,,,,,,
,,6,10,${e://Field/PROLIFIC_PID,F,18,2023-11-03_01h04.09.355,MouseEye_CC,2023.2.2,Win32,60.41565974,1.28,,,1920,1080,43.637,5.05,"151.34, 363.21, 352.85, 197.05, 314.93, 377.3, 351.45",873.41,7.616866683,38.46517675,27.83653633,Passed,128.8583421,,,,,,,,,,,,,,,,,,,,,practice,0,11,180,right,s,,,,,309.274,312.4718,35.84,-6,5,1,0,0,3.1975,fixationPoint,312.4719,312.5718,312.5719,317.8205,35.84,10240,616.96,a,0,5.2222,,317.8207,321.8187,0,10,10,10,1,4,sparse,80,218,-129,62,223,159,121,110,129,-218,159,-223,206,-75,173,-169,-116,-118,-217,-125,-167,217,-164,169,-75,360,270,360,180,360,180,180,270,360,180,90,,,,,,,,,,,,,,,,,,,,,,,,,,,,,,,,,,,,,,,,,,,,,,,,,,,,,,,,,,,,,,,,,,,,,
,,6,10,${e://Field/PROLIFIC_PID,F,18,2023-11-03_01h04.09.355,MouseEye_CC,2023.2.2,Win32,60.41565974,1.28,,,1920,1080,43.637,5.05,"151.34, 363.21, 352.85, 197.05, 314.93, 377.3, 351.45",873.41,7.616866683,38.46517675,27.83653633,Passed,128.8583421,,,,,,,,,,,,,,,,,,,,,practice,0,12,0,left,a,,,,,321.8396,323.2178,35.84,-4,5,1,0,0,1.378,fixationPoint,323.2179,323.3178,323.3179,326.8503,35.84,10240,616.96,a,1,3.5002,,326.8505,327.0503,0,11,11,11,1,3,sparse,75,-25,-117,110,129,125,63,214,216,-164,32,-27,117,-126,125,171,-218,126,-113,167,-163,-21,-224,-212,-21,270,180,180,360,180,270,360,270,360,180,270,,,,,,,,,,,,,,,,,,,,,,,,,,,,,,,,,,,,,,,,,,,,,,,,,,,,,,,,,,,,,,,,,,,,,
,,6,10,${e://Field/PROLIFIC_PID,F,18,2023-11-03_01h04.09.355,MouseEye_CC,2023.2.2,Win32,60.41565974,1.28,,,1920,1080,43.637,5.05,"151.34, 363.21, 352.85, 197.05, 314.93, 377.3, 351.45",873.41,7.616866683,38.46517675,27.83653633,Passed,128.8583421,,,,,,,,,,,,,,,,,,,,,,,,,,,,,,,,,,,,,,,,,,,,,,,,,,,,,,,,,,,,,,,,,,,,,,,,,,,,,,,,,,,,,,,,,,,,,,,,,327.0527,331.1157,a,1,4.0361,,,,,,,,,,,,,,,,,,,,,,,,,,,,,,,,,,,,,,,,,,,,,,,,,,,,,,,,,,,,,,,,
,,6,10,${e://Field/PROLIFIC_PID,F,18,2023-11-03_01h04.09.355,MouseEye_CC,2023.2.2,Win32,60.41565974,1.28,,,1920,1080,43.637,5.05,"151.34, 363.21, 352.85, 197.05, 314.93, 377.3, 351.45",873.41,7.616866683,38.46517675,27.83653633,Passed,128.8583421,,,,,,,,,,,,,,,,,,,,,,,,,,,,,,,,,,,,,,,,,,,,,,,,,,,,,,,,,,,,,,,,,,,,,,,,,,,,,,,,,,,,,,,,,,,,,,,,,,,,,,,331.1158,334.6815,,,,,,,,,,,,,,,,,,,,,,,,,,,,,,,,,,,,,,,,,,,,,,,,,,,,,,,,,,,,,
,,6,10,${e://Field/PROLIFIC_PID,F,18,2023-11-03_01h04.09.355,MouseEye_CC,2023.2.2,Win32,60.41565974,1.28,,,1920,1080,43.637,5.05,"151.34, 363.21, 352.85, 197.05, 314.93, 377.3, 351.45",873.41,7.616866683,38.46517675,27.83653633,Passed,128.8583421,,,,,,,,,,,,,,,,,,,,,,,,,,,,,,,,,,,,,,,,,,,,,,,,,,,,,,,,,,,,,,,,,,,,,,,,,,,,,,,,,,,,,,,,,,,,,,,,,,,,,,,,,334.682,342.9969,,,,,,,,,,,,,,,,,,,,,,,,,,,,,,,,,,,,,,,,,,,,,,,,,,,,,,,,,,,
,,6,10,${e://Field/PROLIFIC_PID,F,18,2023-11-03_01h04.09.355,MouseEye_CC,2023.2.2,Win32,60.41565974,1.28,,,1920,1080,43.637,5.05,"151.34, 363.21, 352.85, 197.05, 314.93, 377.3, 351.45",873.41,7.616866683,38.46517675,27.83653633,Passed,128.8583421,,,,,,,,,,,,,,,,,,,,,training,1,1,180,right,s,,,,,343.1115,344.0111,35.84,-4,5,1,0,0,0.8995,fixationPoint,344.0113,344.1108,344.1108,350.1087,35.84,10240,616.96,s,1,5.9864,,350.1087,350.309,,,,,,,,68,114,-78,212,215,18,16,174,75,-163,208,-28,28,-75,224,-221,-28,-176,-19,-116,-116,172,-224,80,-219,90,180,270,360,270,90,360,180,360,180,270,,,,,,,,,,,350.3109,350.317,,0,0,0,0,1,8,repeated,,,,,,,,,,,,,,,,,,,,,,,,,,,,,,,,,,,,,,,,,,,,,,,,,
,,6,10,${e://Field/PROLIFIC_PID,F,18,2023-11-03_01h04.09.355,MouseEye_CC,2023.2.2,Win32,60.41565974,1.28,,,1920,1080,43.637,5.05,"151.34, 363.21, 352.85, 197.05, 314.93, 377.3, 351.45",873.41,7.616866683,38.46517675,27.83653633,Passed,128.8583421,,,,,,,,,,,,,,,,,,,,,training,1,2,180,right,s,,,,,350.3179,351.8259,35.84,-4,5,1,0,0,1.5078,fixationPoint,351.826,351.9248,351.9248,357.2899,35.84,10240,616.96,s,1,5.3479,,357.2899,357.4899,,,,,,,,71,-215,-119,212,215,26,175,170,167,-74,22,-65,70,-213,175,72,-21,125,-224,223,-27,-121,-21,-218,-174,360,180,360,180,90,270,180,180,90,270,360,,,,,,,,,,,357.49,357.4904,,0,1,1,1,1,6,repeated,,,,,,,,,,,,,,,,,,,,,,,,,,,,,,,,,,,,,,,,,,,,,,,,,
,,6,10,${e://Field/PROLIFIC_PID,F,18,2023-11-03_01h04.09.355,MouseEye_CC,2023.2.2,Win32,60.41565974,1.28,,,1920,1080,43.637,5.05,"151.34, 363.21, 352.85, 197.05, 314.93, 377.3, 351.45",873.41,7.616866683,38.46517675,27.83653633,Passed,128.8583421,,,,,,,,,,,,,,,,,,,,,training,1,3,180,right,s,,,,,357.4914,360.3054,35.84,-4,5,1,0,0,2.8139,fixationPoint,360.3055,360.4055,360.4056,362.9381,35.84,10240,616.96,s,1,2.5193,,362.9382,363.1379,,,,,,,,25,-27,122,128,113,112,72,65,164,-78,-218,-221,-28,-160,-168,27,-75,174,-19,26,-208,-211,215,-213,175,360,90,180,270,180,360,180,270,360,180,180,,,,,,,,,,,363.138,363.1385,,0,2,2,2,1,3,repeated,,,,,,,,,,,,,,,,,,,,,,,,,,,,,,,,,,,,,,,,,,,,,,,,,
,,6,10,${e://Field/PROLIFIC_PID,F,18,2023-11-03_01h04.09.355,MouseEye_CC,2023.2.2,Win32,60.41565974,1.28,,,1920,1080,43.637,5.05,"151.34, 363.21, 352.85, 197.05, 314.93, 377.3, 351.45",873.41,7.616866683,38.46517675,27.83653633,Passed,128.8583421,,,,,,,,,,,,,,,,,,,,,training,1,4,0,left,a,,,,,363.1395,363.8375,35.84,-4,5,1,0,0,0.6977,fixationPoint,363.8376,363.9375,363.9376,370.8852,35.84,10240,616.96,a,1,6.9296,,370.8852,371.085,,,,,,,,13,-115,168,112,72,128,113,68,222,-165,-118,-214,-220,-116,-116,64,-76,216,-69,216,-216,-209,74,-216,116,90,90,90,90,90,360,270,360,90,360,270,,,,,,,,,,,371.0851,371.0855,,0,3,3,3,1,15,novel,,,,,,,,,,,,,,,,,,,,,,,,,,,,,,,,,,,,,,,,,,,,,,,,,
,,6,10,${e://Field/PROLIFIC_PID,F,18,2023-11-03_01h04.09.355,MouseEye_CC,2023.2.2,Win32,60.41565974,1.28,,,1920,1080,43.637,5.05,"151.34, 363.21, 352.85, 197.05, 314.93, 377.3, 351.45",873.41,7.616866683,38.46517675,27.83653633,Passed,128.8583421,,,,,,,,,,,,,,,,,,,,,training,1,5,180,right,s,,,,,371.0864,371.8018,35.84,-4,5,1,0,0,0.7152,fixationPoint,371.8019,371.9011,371.9012,376.0005,35.84,10240,616.96,s,1,4.083,,376.0007,376.2002,,,,,,,,14,-73,163,125,208,69,114,112,163,-122,-165,-78,-218,-117,-218,20,-128,216,-69,114,-78,-128,217,-209,74,270,360,90,180,180,180,360,90,360,270,270,,,,,,,,,,,376.2002,376.2008,,0,4,4,4,1,4,repeated,,,,,,,,,,,,,,,,,,,,,,,,,,,,,,,,,,,,,,,,,,,,,,,,,
,,6,10,${e://Field/PROLIFIC_PID,F,18,2023-11-03_01h04.09.355,MouseEye_CC,2023.2.2,Win32,60.41565974,1.28,,,1920,1080,43.637,5.05,"151.34, 363.21, 352.85, 197.05, 314.93, 377.3, 351.45",873.41,7.616866683,38.46517675,27.83653633,Passed,128.8583421,,,,,,,,,,,,,,,,,,,,,training,1,6,0,left,a,,,,,376.2016,379.632,35.84,0,5,1,0,0,3.4303,fixationPoint,379.6321,379.7319,379.7319,382.732,35.84,10240,616.96,a,1,2.9836,,382.7322,382.9311,,,,,,,,87,76,-169,112,163,68,68,26,175,-32,67,-128,217,-213,175,-64,-171,-25,-115,-176,-19,64,-76,116,-163,180,180,360,270,90,180,180,270,90,270,90,,,,,,,,,,,382.9313,382.9317,,0,5,5,5,1,12,novel,,,,,,,,,,,,,,,,,,,,,,,,,,,,,,,,,,,,,,,,,,,,,,,,,
,,6,10,${e://Field/PROLIFIC_PID,F,18,2023-11-03_01h04.09.355,MouseEye_CC,2023.2.2,Win32,60.41565974,1.28,,,1920,1080,43.637,5.05,"151.34, 363.21, 352.85, 197.05, 314.93, 377.3, 351.45",873.41,7.616866683,38.46517675,27.83653633,Passed,128.8583421,,,,,,,,,,,,,,,,,,,,,training,1,7,0,left,a,,,,,382.9326,383.7477,35.84,0,5,1,0,0,0.8148,fixationPoint,383.7479,383.8471,383.8472,385.6138,35.84,10240,616.96,a,1,1.7504,,385.6138,385.8135,,,,,,,,27,69,114,-68,124,-167,28,-173,65,-121,-21,-165,-118,-24,-224,168,-163,124,-118,116,-163,21,208,128,113,270,270,90,90,360,90,360,90,90,360,180,,,,,,,,,,,385.8135,385.814,,0,6,6,6,1,1,repeated,,,,,,,,,,,,,,,,,,,,,,,,,,,,,,,,,,,,,,,,,,,,,,,,,
,,6,10,${e://Field/PROLIFIC_PID,F,18,2023-11-03_01h04.09.355,MouseEye_CC,2023.2.2,Win32,60.41565974,1.28,,,1920,1080,43.637,5.05,"151.34, 363.21, 352.85, 197.05, 314.93, 377.3, 351.45",873.41,7.616866683,38.46517675,27.83653633,Passed,128.8583421,,,,,,,,,,,,,,,,,,,,,training,1,8,0,left,a,,,,,385.8149,387.3629,35.84,0,5,1,0,0,1.5476,fixationPoint,387.3629,387.4627,387.4628,390.0284,35.84,10240,616.96,a,1,2.5487,,390.0285,390.2286,,,,,,,,33,-122,68,208,18,68,222,26,175,-27,-20,-78,-72,-30,-164,27,-75,78,-128,119,-23,-75,224,-68,124,180,270,360,90,270,180,360,270,270,90,180,,,,,,,,,,,390.2287,390.2292,,0,7,7,7,1,16,novel,,,,,,,,,,,,,,,,,,,,,,,,,,,,,,,,,,,,,,,,,,,,,,,,,
,,6,10,${e://Field/PROLIFIC_PID,F,18,2023-11-03_01h04.09.355,MouseEye_CC,2023.2.2,Win32,60.41565974,1.28,,,1920,1080,43.637,5.05,"151.34, 363.21, 352.85, 197.05, 314.93, 377.3, 351.45",873.41,7.616866683,38.46517675,27.83653633,Passed,128.8583421,,,,,,,,,,,,,,,,,,,,,training,1,9,0,left,a,,,,,390.2299,390.8953,35.84,0,5,1,0,0,0.665,fixationPoint,390.8954,390.9952,390.9952,393.3275,35.84,10240,616.96,a,1,2.3211,,393.3275,393.5274,,,,,,,,76,20,-128,18,16,164,120,212,67,-215,16,-164,175,-29,175,-117,-218,-215,-119,-79,-126,119,-23,215,-175,90,360,360,90,90,270,360,180,360,270,270,,,,,,,,,,,393.5275,393.5277,,0,8,8,8,1,11,novel,,,,,,,,,,,,,,,,,,,,,,,,,,,,,,,,,,,,,,,,,,,,,,,,,
,,6,10,${e://Field/PROLIFIC_PID,F,18,2023-11-03_01h04.09.355,MouseEye_CC,2023.2.2,Win32,60.41565974,1.28,,,1920,1080,43.637,5.05,"151.34, 363.21, 352.85, 197.05, 314.93, 377.3, 351.45",873.41,7.616866683,38.46517675,27.83653633,Passed,128.8583421,,,,,,,,,,,,,,,,,,,,,training,1,10,180,right,s,,,,,393.5284,396.2929,35.84,0,5,1,0,0,2.7644,fixationPoint,396.2929,396.393,396.3931,400.3084,35.84,10240,616.96,s,1,3.9058,,400.3084,400.5086,,,,,,,,88,116,-163,170,167,68,68,128,24,-32,67,-119,124,-164,117,-117,-218,-216,-65,-121,-21,80,-219,214,-112,270,270,360,90,270,360,270,360,90,90,180,,,,,,,,,,,400.5087,400.5093,,0,9,9,9,1,7,repeated,,,,,,,,,,,,,,,,,,,,,,,,,,,,,,,,,,,,,,,,,,,,,,,,,
,,6,10,${e://Field/PROLIFIC_PID,F,18,2023-11-03_01h04.09.355,MouseEye_CC,2023.2.2,Win32,60.41565974,1.28,,,1920,1080,43.637,5.05,"151.34, 363.21, 352.85, 197.05, 314.93, 377.3, 351.45",873.41,7.616866683,38.46517675,27.83653633,Passed,128.8583421,,,,,,,,,,,,,,,,,,,,,training,1,11,0,left,a,,,,,400.5103,402.8409,35.84,0,5,1,0,0,2.3304,fixationPoint,402.8409,402.9409,402.941,414.1038,35.84,10240,616.96,a,1,11.15,,414.104,414.3039,,,,,,,,29,164,120,-122,68,-215,16,-163,208,-176,-76,-165,-118,-78,-72,174,-19,78,-128,161,-119,112,163,174,22,180,360,180,180,270,180,360,360,270,90,360,,,,,,,,,,,414.304,414.3045,,0,10,10,10,1,2,repeated,,,,,,,,,,,,,,,,,,,,,,,,,,,,,,,,,,,,,,,,,,,,,,,,,
,,6,10,${e://Field/PROLIFIC_PID,F,18,2023-11-03_01h04.09.355,MouseEye_CC,2023.2.2,Win32,60.41565974,1.28,,,1920,1080,43.637,5.05,"151.34, 363.21, 352.85, 197.05, 314.93, 377.3, 351.45",873.41,7.616866683,38.46517675,27.83653633,Passed,128.8583421,,,,,,,,,,,,,,,,,,,,,training,1,12,180,right,s,,,,,414.3054,415.3367,35.84,0,5,1,0,0,1.0311,fixationPoint,415.3369,415.4369,415.4369,421.2348,35.84,10240,616.96,s,1,5.765,,421.235,421.4345,,,,,,,,30,217,124,-122,68,-17,217,-68,124,-116,-116,-160,-168,-78,-72,223,-27,80,-219,161,-119,18,16,128,113,360,270,90,360,180,180,180,90,360,90,270,,,,,,,,,,,421.4346,421.4349,,0,11,11,11,1,14,novel,,,,,,,,,,,,,,,,,,,,,,,,,,,,,,,,,,,,,,,,,,,,,,,,,
,,6,10,${e://Field/PROLIFIC_PID,F,18,2023-11-03_01h04.09.355,MouseEye_CC,2023.2.2,Win32,60.41565974,1.28,,,1920,1080,43.637,5.05,"151.34, 363.21, 352.85, 197.05, 314.93, 377.3, 351.45",873.41,7.616866683,38.46517675,27.83653633,Passed,128.8583421,,,,,,,,,,,,,,,,,,,,,training,1,13,0,left,a,,,,,421.4365,422.1687,35.84,0,5,1,0,0,0.732,fixationPoint,422.1689,422.2676,422.2676,426.2003,35.84,10240,616.96,a,1,3.9103,,426.2005,426.3998,,,,,,,,72,-165,-118,174,22,208,18,170,167,-115,168,-74,22,-65,70,119,-23,116,-163,78,-128,-117,-218,-78,-72,270,360,360,360,180,90,360,90,270,270,270,,,,,,,,,,,426.4,426.4004,,0,12,12,12,1,10,novel,,,,,,,,,,,,,,,,,,,,,,,,,,,,,,,,,,,,,,,,,,,,,,,,,
,,6,10,${e://Field/PROLIFIC_PID,F,18,2023-11-03_01h04.09.355,MouseEye_CC,2023.2.2,Win32,60.41565974,1.28,,,1920,1080,43.637,5.05,"151.34, 363.21, 352.85, 197.05, 314.93, 377.3, 351.45",873.41,7.616866683,38.46517675,27.83653633,Passed,128.8583421,,,,,,,,,,,,,,,,,,,,,training,1,14,180,right,s,,,,,426.4038,427.1498,35.84,0,5,1,0,0,0.7456,fixationPoint,427.1499,427.2493,427.2494,433.8697,35.84,10240,616.96,s,1,6.5982,,433.8698,434.0637,,,,,,,,95,-24,-224,208,18,18,16,65,164,-32,67,-209,74,-75,224,125,-224,215,-175,31,-162,-160,-168,-221,-28,270,270,90,180,180,360,90,180,180,180,360,,,,,,,,,,,434.0638,434.0642,,0,13,13,13,1,5,repeated,,,,,,,,,,,,,,,,,,,,,,,,,,,,,,,,,,,,,,,,,,,,,,,,,
,,6,10,${e://Field/PROLIFIC_PID,F,18,2023-11-03_01h04.09.355,MouseEye_CC,2023.2.2,Win32,60.41565974,1.28,,,1920,1080,43.637,5.05,"151.34, 363.21, 352.85, 197.05, 314.93, 377.3, 351.45",873.41,7.616866683,38.46517675,27.83653633,Passed,128.8583421,,,,,,,,,,,,,,,,,,,,,training,1,15,0,left,a,,,,,434.0655,434.7148,35.84,0,5,1,0,0,0.6489,fixationPoint,434.7149,434.8134,434.8134,437.4635,35.84,10240,616.96,a,1,2.6249,,437.4637,437.6627,,,,,,,,74,-79,-126,65,164,170,167,30,126,-164,175,-122,68,-27,122,124,-118,161,-64,216,-216,-160,-168,-77,-31,90,270,90,360,360,180,270,360,180,90,90,,,,,,,,,,,437.6627,437.6634,,0,14,14,14,1,9,novel,,,,,,,,,,,,,,,,,,,,,,,,,,,,,,,,,,,,,,,,,,,,,,,,,
,,6,10,${e://Field/PROLIFIC_PID,F,18,2023-11-03_01h04.09.355,MouseEye_CC,2023.2.2,Win32,60.41565974,1.28,,,1920,1080,43.637,5.05,"151.34, 363.21, 352.85, 197.05, 314.93, 377.3, 351.45",873.41,7.616866683,38.46517675,27.83653633,Passed,128.8583421,,,,,,,,,,,,,,,,,,,,,training,1,16,180,right,s,,,,,437.6644,438.4357,35.84,0,5,1,0,0,0.771,fixationPoint,438.4358,438.5286,438.5286,442.4279,35.84,10240,616.96,s,1,3.8737,,442.4283,442.6277,,,,,,,,6,21,208,-29,175,-73,163,-75,224,-117,-218,-32,-72,-79,-126,27,-75,119,-23,72,-21,212,167,171,212,90,90,90,180,90,270,180,360,90,90,180,,,,,,,,,,,442.6278,449.325,space,0,15,15,15,1,13,novel,6.6643,,,,,,,,,,,,,,,,,,,,,,,,,,,,,,,,,,,,,,,,,,,,,,,,
,,6,10,${e://Field/PROLIFIC_PID,F,18,2023-11-03_01h04.09.355,MouseEye_CC,2023.2.2,Win32,60.41565974,1.28,,,1920,1080,43.637,5.05,"151.34, 363.21, 352.85, 197.05, 314.93, 377.3, 351.45",873.41,7.616866683,38.46517675,27.83653633,Passed,128.8583421,,,,,,,,,,,,,,,,,,,,,training,2,1,180,right,s,,,,,449.3358,451.291,35.84,0,5,1,0,0,1.955,fixationPoint,451.291,451.3909,451.3909,452.7411,35.84,10240,616.96,s,1,1.3368,,452.7413,452.9404,,,,,,,,71,-215,-119,212,215,26,175,170,167,-74,22,-65,70,-213,175,72,-21,125,-224,223,-27,-121,-21,-218,-174,360,360,180,90,360,90,180,270,180,360,90,,,,,,,,,,,452.9404,452.9421,,0,16,16,16,1,6,repeated,,,,,,,,,,,,,,,,,,,,,,,,,,,,,,,,,,,,,,,,,,,,,,,,,
,,6,10,${e://Field/PROLIFIC_PID,F,18,2023-11-03_01h04.09.355,MouseEye_CC,2023.2.2,Win32,60.41565974,1.28,,,1920,1080,43.637,5.05,"151.34, 363.21, 352.85, 197.05, 314.93, 377.3, 351.45",873.41,7.616866683,38.46517675,27.83653633,Passed,128.8583421,,,,,,,,,,,,,,,,,,,,,training,2,2,180,right,s,,,,,452.9426,453.7075,35.84,0,5,1,0,0,0.7647,fixationPoint,453.7076,453.8071,453.8072,456.5564,35.84,10240,616.96,s,1,2.7316,,456.5566,456.7562,,,,,,,,87,76,-169,164,120,128,113,65,164,-213,175,-29,175,-119,124,-78,-218,-32,-72,-176,-19,64,-76,31,-162,360,360,270,270,270,270,360,180,360,360,270,,,,,,,,,,,456.7563,456.7568,,0,17,17,17,1,12,novel,,,,,,,,,,,,,,,,,,,,,,,,,,,,,,,,,,,,,,,,,,,,,,,,,
,,6,10,${e://Field/PROLIFIC_PID,F,18,2023-11-03_01h04.09.355,MouseEye_CC,2023.2.2,Win32,60.41565974,1.28,,,1920,1080,43.637,5.05,"151.34, 363.21, 352.85, 197.05, 314.93, 377.3, 351.45",873.41,7.616866683,38.46517675,27.83653633,Passed,128.8583421,,,,,,,,,,,,,,,,,,,,,training,2,3,180,right,s,,,,,456.7577,457.456,35.84,0,5,1,0,0,0.6982,fixationPoint,457.4561,457.556,457.5561,460.0053,35.84,10240,616.96,s,1,2.4357,,460.0054,460.2051,,,,,,,,68,114,-78,212,215,18,16,174,75,-163,208,-28,28,-75,224,-221,-28,-176,-19,-116,-116,172,-224,80,-219,270,270,270,180,90,360,90,180,180,180,360,,,,,,,,,,,460.2053,460.2058,,0,18,18,18,1,8,repeated,,,,,,,,,,,,,,,,,,,,,,,,,,,,,,,,,,,,,,,,,,,,,,,,,
,,6,10,${e://Field/PROLIFIC_PID,F,18,2023-11-03_01h04.09.355,MouseEye_CC,2023.2.2,Win32,60.41565974,1.28,,,1920,1080,43.637,5.05,"151.34, 363.21, 352.85, 197.05, 314.93, 377.3, 351.45",873.41,7.616866683,38.46517675,27.83653633,Passed,128.8583421,,,,,,,,,,,,,,,,,,,,,training,2,4,0,left,a,,,,,460.2066,461.0048,35.84,0,5,1,0,0,0.798,fixationPoint,461.0049,461.1046,461.1047,466.0865,35.84,10240,616.96,a,1,4.9687,,466.0867,466.2864,,,,,,,,13,-115,168,112,72,212,67,164,120,-215,-119,-77,-31,-64,-171,27,-75,20,-128,214,-112,-29,175,-122,68,180,180,90,90,90,360,90,90,360,360,270,,,,,,,,,,,466.2864,466.2869,,0,19,19,19,1,15,novel,,,,,,,,,,,,,,,,,,,,,,,,,,,,,,,,,,,,,,,,,,,,,,,,,
,,6,10,${e://Field/PROLIFIC_PID,F,18,2023-11-03_01h04.09.355,MouseEye_CC,2023.2.2,Win32,60.41565974,1.28,,,1920,1080,43.637,5.05,"151.34, 363.21, 352.85, 197.05, 314.93, 377.3, 351.45",873.41,7.616866683,38.46517675,27.83653633,Passed,128.8583421,,,,,,,,,,,,,,,,,,,,,training,2,5,180,right,s,,,,,466.2879,467.7354,35.84,0,5,1,0,0,1.4473,fixationPoint,467.7354,467.8359,467.836,469.269,35.84,10240,616.96,s,1,1.4153,,469.2693,469.4687,,,,,,,,6,21,208,-73,163,-29,175,-211,215,-218,-174,-221,-28,-176,-19,72,-21,78,-128,64,-76,72,30,128,24,90,90,180,180,90,180,360,180,270,270,90,,,,,,,,,,,469.4687,469.4692,,0,20,20,20,1,13,novel,,,,,,,,,,,,,,,,,,,,,,,,,,,,,,,,,,,,,,,,,,,,,,,,,
,,6,10,${e://Field/PROLIFIC_PID,F,18,2023-11-03_01h04.09.355,MouseEye_CC,2023.2.2,Win32,60.41565974,1.28,,,1920,1080,43.637,5.05,"151.34, 363.21, 352.85, 197.05, 314.93, 377.3, 351.45",873.41,7.616866683,38.46517675,27.83653633,Passed,128.8583421,,,,,,,,,,,,,,,,,,,,,training,2,6,0,left,a,,,,,469.4702,470.1854,35.84,0,5,1,0,0,0.7149,fixationPoint,470.1855,470.2851,470.2852,475.3828,35.84,10240,616.96,s,0,5.084,,475.3829,479.3827,,,,,,,,30,217,124,-173,65,-164,175,-163,208,-218,-174,-215,-119,-117,-218,216,-216,64,-76,161,-64,17,74,68,222,270,270,360,90,180,270,270,270,90,270,270,,,,,,,,,,,479.3827,479.3917,,0,21,21,21,1,14,novel,,,,,,,,,,,,,,,,,,,,,,,,,,,,,,,,,,,,,,,,,,,,,,,,,
,,6,10,${e://Field/PROLIFIC_PID,F,18,2023-11-03_01h04.09.355,MouseEye_CC,2023.2.2,Win32,60.41565974,1.28,,,1920,1080,43.637,5.05,"151.34, 363.21, 352.85, 197.05, 314.93, 377.3, 351.45",873.41,7.616866683,38.46517675,27.83653633,Passed,128.8583421,,,,,,,,,,,,,,,,,,,,,training,2,7,0,left,a,,,,,479.3921,479.9151,35.84,0,5,1,0,0,0.5229,fixationPoint,479.9152,480.0149,480.015,484.2971,35.84,10240,616.96,s,0,4.2651,,484.2973,488.2955,,,,,,,,29,164,120,-122,68,-215,16,-163,208,-176,-76,-165,-118,-78,-72,174,-19,78,-128,161,-119,112,163,174,22,90,180,270,90,270,90,360,180,180,90,180,,,,,,,,,,,488.2956,488.3171,,0,22,22,22,1,2,repeated,,,,,,,,,,,,,,,,,,,,,,,,,,,,,,,,,,,,,,,,,,,,,,,,,
,,6,10,${e://Field/PROLIFIC_PID,F,18,2023-11-03_01h04.09.355,MouseEye_CC,2023.2.2,Win32,60.41565974,1.28,,,1920,1080,43.637,5.05,"151.34, 363.21, 352.85, 197.05, 314.93, 377.3, 351.45",873.41,7.616866683,38.46517675,27.83653633,Passed,128.8583421,,,,,,,,,,,,,,,,,,,,,training,2,8,0,left,a,,,,,488.3175,488.962,35.84,0,5,1,0,0,0.6444,fixationPoint,488.962,489.062,489.0621,492.3105,35.84,10240,616.96,a,1,3.2329,,492.3106,492.5107,,,,,,,,95,-24,-224,208,18,18,16,65,164,-32,67,-209,74,-75,224,125,-224,215,-175,31,-162,-160,-168,-221,-28,90,270,270,180,270,90,180,270,180,90,180,,,,,,,,,,,492.5108,492.5111,,0,23,23,23,1,5,repeated,,,,,,,,,,,,,,,,,,,,,,,,,,,,,,,,,,,,,,,,,,,,,,,,,
,,6,10,${e://Field/PROLIFIC_PID,F,18,2023-11-03_01h04.09.355,MouseEye_CC,2023.2.2,Win32,60.41565974,1.28,,,1920,1080,43.637,5.05,"151.34, 363.21, 352.85, 197.05, 314.93, 377.3, 351.45",873.41,7.616866683,38.46517675,27.83653633,Passed,128.8583421,,,,,,,,,,,,,,,,,,,,,training,2,9,180,right,s,,,,,492.512,493.244,35.84,0,5,1,0,0,0.7318,fixationPoint,493.2442,493.3435,493.3436,496.9094,35.84,10240,616.96,s,1,3.5515,,496.9095,497.1094,,,,,,,,72,-165,-118,128,113,217,124,69,114,-215,16,-32,67,-74,22,214,-112,161,-119,161,-64,-77,-31,-221,-28,180,180,360,90,180,360,270,270,360,270,270,,,,,,,,,,,497.1094,497.1098,,0,24,24,24,1,10,novel,,,,,,,,,,,,,,,,,,,,,,,,,,,,,,,,,,,,,,,,,,,,,,,,,
,,6,10,${e://Field/PROLIFIC_PID,F,18,2023-11-03_01h04.09.355,MouseEye_CC,2023.2.2,Win32,60.41565974,1.28,,,1920,1080,43.637,5.05,"151.34, 363.21, 352.85, 197.05, 314.93, 377.3, 351.45",873.41,7.616866683,38.46517675,27.83653633,Passed,128.8583421,,,,,,,,,,,,,,,,,,,,,training,2,10,180,right,s,,,,,497.1107,497.8092,35.84,0,5,1,0,0,0.6982,fixationPoint,497.8094,497.9087,497.9087,500.3414,35.84,10240,616.96,s,1,2.4166,,500.3416,500.5415,,,,,,,,88,116,-163,170,167,68,68,128,24,-32,67,-119,124,-164,117,-117,-218,-216,-65,-121,-21,80,-219,214,-112,360,360,270,180,270,180,90,360,90,360,360,,,,,,,,,,,500.5416,500.542,,0,25,25,25,1,7,repeated,,,,,,,,,,,,,,,,,,,,,,,,,,,,,,,,,,,,,,,,,,,,,,,,,
,,6,10,${e://Field/PROLIFIC_PID,F,18,2023-11-03_01h04.09.355,MouseEye_CC,2023.2.2,Win32,60.41565974,1.28,,,1920,1080,43.637,5.05,"151.34, 363.21, 352.85, 197.05, 314.93, 377.3, 351.45",873.41,7.616866683,38.46517675,27.83653633,Passed,128.8583421,,,,,,,,,,,,,,,,,,,,,training,2,11,0,left,a,,,,,500.5428,501.2591,35.84,0,5,1,0,0,0.7161,fixationPoint,501.2592,501.3573,501.3573,505.5563,35.84,10240,616.96,a,1,4.191,,505.5565,505.7564,,,,,,,,33,-122,68,171,212,170,167,65,164,-121,-21,-27,-20,-116,-116,168,-163,124,-118,174,-19,-167,28,-32,67,270,180,360,360,270,90,90,270,270,270,360,,,,,,,,,,,505.7566,505.7569,,0,26,26,26,1,16,novel,,,,,,,,,,,,,,,,,,,,,,,,,,,,,,,,,,,,,,,,,,,,,,,,,
,,6,10,${e://Field/PROLIFIC_PID,F,18,2023-11-03_01h04.09.355,MouseEye_CC,2023.2.2,Win32,60.41565974,1.28,,,1920,1080,43.637,5.05,"151.34, 363.21, 352.85, 197.05, 314.93, 377.3, 351.45",873.41,7.616866683,38.46517675,27.83653633,Passed,128.8583421,,,,,,,,,,,,,,,,,,,,,training,2,12,180,right,s,,,,,505.7578,507.1062,35.84,0,5,1,0,0,1.348,fixationPoint,507.1062,507.2059,507.206,509.4551,35.84,10240,616.96,s,1,2.2325,,509.4552,509.6547,,,,,,,,74,-79,-126,112,72,128,113,217,124,-29,175,-213,175,-74,22,64,-76,168,-163,124,-118,-32,-72,-165,-118,90,90,360,90,270,270,90,180,180,90,180,,,,,,,,,,,509.6548,509.655,,0,27,27,27,1,9,novel,,,,,,,,,,,,,,,,,,,,,,,,,,,,,,,,,,,,,,,,,,,,,,,,,
,,6,10,${e://Field/PROLIFIC_PID,F,18,2023-11-03_01h04.09.355,MouseEye_CC,2023.2.2,Win32,60.41565974,1.28,,,1920,1080,43.637,5.05,"151.34, 363.21, 352.85, 197.05, 314.93, 377.3, 351.45",873.41,7.616866683,38.46517675,27.83653633,Passed,128.8583421,,,,,,,,,,,,,,,,,,,,,training,2,13,0,left,a,,,,,509.6557,511.1041,35.84,0,5,1,0,0,1.4483,fixationPoint,511.1042,511.204,511.2041,515.5365,35.84,10240,616.96,a,1,4.3211,,515.5367,515.7362,,,,,,,,76,20,-128,21,208,72,30,212,67,-209,74,-164,117,-28,28,-117,-218,-214,-220,-78,-72,78,-128,172,-224,360,90,270,360,180,90,270,270,360,180,360,,,,,,,,,,,515.7363,515.7366,,0,28,28,28,1,11,novel,,,,,,,,,,,,,,,,,,,,,,,,,,,,,,,,,,,,,,,,,,,,,,,,,
,,6,10,${e://Field/PROLIFIC_PID,F,18,2023-11-03_01h04.09.355,MouseEye_CC,2023.2.2,Win32,60.41565974,1.28,,,1920,1080,43.637,5.05,"151.34, 363.21, 352.85, 197.05, 314.93, 377.3, 351.45",873.41,7.616866683,38.46517675,27.83653633,Passed,128.8583421,,,,,,,,,,,,,,,,,,,,,training,2,14,180,right,s,,,,,515.7374,516.9693,35.84,0,5,1,0,0,1.2316,fixationPoint,516.9693,517.0692,517.0693,518.4852,35.84,10240,616.96,s,1,1.3975,,518.4854,518.6853,,,,,,,,27,69,114,-68,124,-167,28,-173,65,-121,-21,-165,-118,-24,-224,168,-163,124,-118,116,-163,21,208,128,113,90,270,180,90,90,180,90,90,180,360,180,,,,,,,,,,,518.6854,518.6859,,0,29,29,29,1,1,repeated,,,,,,,,,,,,,,,,,,,,,,,,,,,,,,,,,,,,,,,,,,,,,,,,,
,,6,10,${e://Field/PROLIFIC_PID,F,18,2023-11-03_01h04.09.355,MouseEye_CC,2023.2.2,Win32,60.41565974,1.28,,,1920,1080,43.637,5.05,"151.34, 363.21, 352.85, 197.05, 314.93, 377.3, 351.45",873.41,7.616866683,38.46517675,27.83653633,Passed,128.8583421,,,,,,,,,,,,,,,,,,,,,training,2,15,0,left,a,,,,,518.6873,519.4526,35.84,0,5,1,0,0,0.765,fixationPoint,519.4527,519.5514,519.5515,521.184,35.84,10240,616.96,a,1,1.6161,,521.184,521.3842,,,,,,,,25,-27,122,128,113,112,72,65,164,-78,-218,-221,-28,-160,-168,27,-75,174,-19,26,-208,-211,215,-213,175,360,360,270,90,360,360,90,90,90,90,360,,,,,,,,,,,521.3842,521.3844,,0,30,30,30,1,3,repeated,,,,,,,,,,,,,,,,,,,,,,,,,,,,,,,,,,,,,,,,,,,,,,,,,
,,6,10,${e://Field/PROLIFIC_PID,F,18,2023-11-03_01h04.09.355,MouseEye_CC,2023.2.2,Win32,60.41565974,1.28,,,1920,1080,43.637,5.05,"151.34, 363.21, 352.85, 197.05, 314.93, 377.3, 351.45",873.41,7.616866683,38.46517675,27.83653633,Passed,128.8583421,,,,,,,,,,,,,,,,,,,,,training,2,16,0,left,a,,,,,521.3849,523.4348,35.84,0,5,1,0,0,2.0495,fixationPoint,523.4349,523.5336,523.5336,524.8334,35.84,10240,616.96,a,1,1.2871,,524.8335,525.0331,,,,,,,,14,-73,163,125,208,69,114,112,163,-122,-165,-78,-218,-117,-218,20,-128,216,-69,114,-78,-128,217,-209,74,360,180,180,90,90,270,360,360,360,360,360,,,,,,,,,,,525.0332,531.2811,space,0,31,31,31,1,4,repeated,6.2184,,,,,,,,,,,,,,,,,,,,,,,,,,,,,,,,,,,,,,,,,,,,,,,,
,,6,10,${e://Field/PROLIFIC_PID,F,18,2023-11-03_01h04.09.355,MouseEye_CC,2023.2.2,Win32,60.41565974,1.28,,,1920,1080,43.637,5.05,"151.34, 363.21, 352.85, 197.05, 314.93, 377.3, 351.45",873.41,7.616866683,38.46517675,27.83653633,Passed,128.8583421,,,,,,,,,,,,,,,,,,,,,training,3,1,0,left,a,,,,,531.3038,532.2975,35.84,0,5,1,0,0,0.9935,fixationPoint,532.2976,532.3969,532.397,538.8948,35.84,10240,616.96,a,1,6.4821,,538.8949,539.095,,,,,,,,72,-165,-118,212,167,69,114,174,22,-29,175,-209,74,-164,117,172,-224,116,-163,114,-78,-64,-171,-218,-174,360,90,270,360,360,90,90,180,180,360,360,,,,,,,,,,,539.095,539.0978,,0,32,32,32,1,10,novel,,,,,,,,,,,,,,,,,,,,,,,,,,,,,,,,,,,,,,,,,,,,,,,,,
,,6,10,${e://Field/PROLIFIC_PID,F,18,2023-11-03_01h04.09.355,MouseEye_CC,2023.2.2,Win32,60.41565974,1.28,,,1920,1080,43.637,5.05,"151.34, 363.21, 352.85, 197.05, 314.93, 377.3, 351.45",873.41,7.616866683,38.46517675,27.83653633,Passed,128.8583421,,,,,,,,,,,,,,,,,,,,,training,3,2,0,left,a,,,,,539.0988,539.9949,35.84,0,5,1,0,0,0.896,fixationPoint,539.995,540.0947,540.0947,542.8933,35.84,10240,616.96,a,1,2.7811,,542.8935,543.0936,,,,,,,,68,114,-78,212,215,18,16,174,75,-163,208,-28,28,-75,224,-221,-28,-176,-19,-116,-116,172,-224,80,-219,180,360,360,360,90,360,360,180,270,90,180,,,,,,,,,,,543.0936,543.094,,0,33,33,33,1,8,repeated,,,,,,,,,,,,,,,,,,,,,,,,,,,,,,,,,,,,,,,,,,,,,,,,,
,,6,10,${e://Field/PROLIFIC_PID,F,18,2023-11-03_01h04.09.355,MouseEye_CC,2023.2.2,Win32,60.41565974,1.28,,,1920,1080,43.637,5.05,"151.34, 363.21, 352.85, 197.05, 314.93, 377.3, 351.45",873.41,7.616866683,38.46517675,27.83653633,Passed,128.8583421,,,,,,,,,,,,,,,,,,,,,training,3,3,0,left,a,,,,,543.095,544.3929,35.84,0,5,1,0,0,1.2979,fixationPoint,544.393,544.4931,544.4932,547.0258,35.84,10240,616.96,a,1,2.5179,,547.0259,547.2254,,,,,,,,14,-73,163,125,208,69,114,112,163,-122,-165,-78,-218,-117,-218,20,-128,216,-69,114,-78,-128,217,-209,74,360,90,360,270,180,180,360,90,360,360,270,,,,,,,,,,,547.2255,547.226,,0,34,34,34,1,4,repeated,,,,,,,,,,,,,,,,,,,,,,,,,,,,,,,,,,,,,,,,,,,,,,,,,
,,6,10,${e://Field/PROLIFIC_PID,F,18,2023-11-03_01h04.09.355,MouseEye_CC,2023.2.2,Win32,60.41565974,1.28,,,1920,1080,43.637,5.05,"151.34, 363.21, 352.85, 197.05, 314.93, 377.3, 351.45",873.41,7.616866683,38.46517675,27.83653633,Passed,128.8583421,,,,,,,,,,,,,,,,,,,,,training,3,4,0,left,a,,,,,547.2269,548.0257,35.84,0,5,1,0,0,0.7986,fixationPoint,548.0258,548.1253,548.1254,556.6223,35.84,10240,616.96,a,1,8.4861,,556.6224,556.8223,,,,,,,,30,217,124,-167,28,-27,122,-215,16,-24,-224,-176,-19,-218,-174,168,-163,78,-128,161,-64,208,18,68,222,90,180,360,360,180,360,360,90,360,360,90,,,,,,,,,,,556.8224,556.8227,,0,35,35,35,1,14,novel,,,,,,,,,,,,,,,,,,,,,,,,,,,,,,,,,,,,,,,,,,,,,,,,,
,,6,10,${e://Field/PROLIFIC_PID,F,18,2023-11-03_01h04.09.355,MouseEye_CC,2023.2.2,Win32,60.41565974,1.28,,,1920,1080,43.637,5.05,"151.34, 363.21, 352.85, 197.05, 314.93, 377.3, 351.45",873.41,7.616866683,38.46517675,27.83653633,Passed,128.8583421,,,,,,,,,,,,,,,,,,,,,training,3,5,180,right,s,,,,,556.8235,558.0716,35.84,0,5,1,0,0,1.2478,fixationPoint,558.0717,558.1716,558.1717,560.2552,35.84,10240,616.96,s,1,2.0748,,560.2553,560.4544,,,,,,,,76,20,-128,26,175,65,164,212,67,-17,217,-215,16,-209,74,-117,-218,-27,-20,-215,-119,168,-163,76,-169,90,360,270,360,360,360,360,90,180,180,90,,,,,,,,,,,560.4545,560.4549,,0,36,36,36,1,11,novel,,,,,,,,,,,,,,,,,,,,,,,,,,,,,,,,,,,,,,,,,,,,,,,,,
,,6,10,${e://Field/PROLIFIC_PID,F,18,2023-11-03_01h04.09.355,MouseEye_CC,2023.2.2,Win32,60.41565974,1.28,,,1920,1080,43.637,5.05,"151.34, 363.21, 352.85, 197.05, 314.93, 377.3, 351.45",873.41,7.616866683,38.46517675,27.83653633,Passed,128.8583421,,,,,,,,,,,,,,,,,,,,,training,3,6,0,left,a,,,,,560.4557,561.5536,35.84,0,5,1,0,0,1.0977,fixationPoint,561.5537,561.654,561.6541,564.6363,35.84,10240,616.96,a,1,2.9649,,564.6364,564.8363,,,,,,,,71,-215,-119,212,215,26,175,170,167,-74,22,-65,70,-213,175,72,-21,125,-224,223,-27,-121,-21,-218,-174,180,90,90,270,360,180,180,90,90,90,180,,,,,,,,,,,564.8365,564.8371,,0,37,37,37,1,6,repeated,,,,,,,,,,,,,,,,,,,,,,,,,,,,,,,,,,,,,,,,,,,,,,,,,
,,6,10,${e://Field/PROLIFIC_PID,F,18,2023-11-03_01h04.09.355,MouseEye_CC,2023.2.2,Win32,60.41565974,1.28,,,1920,1080,43.637,5.05,"151.34, 363.21, 352.85, 197.05, 314.93, 377.3, 351.45",873.41,7.616866683,38.46517675,27.83653633,Passed,128.8583421,,,,,,,,,,,,,,,,,,,,,training,3,7,180,right,s,,,,,564.8385,565.4693,35.84,0,5,1,0,0,0.6306,fixationPoint,565.4694,565.5689,565.569,567.3696,35.84,10240,616.96,s,1,1.7904,,567.3698,567.5686,,,,,,,,27,69,114,-68,124,-167,28,-173,65,-121,-21,-165,-118,-24,-224,168,-163,124,-118,116,-163,21,208,128,113,180,180,180,180,360,180,360,360,180,360,180,,,,,,,,,,,567.5687,567.5691,,0,38,38,38,1,1,repeated,,,,,,,,,,,,,,,,,,,,,,,,,,,,,,,,,,,,,,,,,,,,,,,,,
,,6,10,${e://Field/PROLIFIC_PID,F,18,2023-11-03_01h04.09.355,MouseEye_CC,2023.2.2,Win32,60.41565974,1.28,,,1920,1080,43.637,5.05,"151.34, 363.21, 352.85, 197.05, 314.93, 377.3, 351.45",873.41,7.616866683,38.46517675,27.83653633,Passed,128.8583421,,,,,,,,,,,,,,,,,,,,,training,3,8,180,right,s,,,,,567.57,568.685,35.84,0,5,1,0,0,1.1148,fixationPoint,568.6851,568.7847,568.7848,573.5663,35.84,10240,616.96,s,1,4.7644,,573.5663,573.7665,,,,,,,,6,21,208,-173,65,-73,163,-215,16,-121,-21,-78,-72,-221,-28,31,-162,124,-118,216,-216,212,167,128,113,360,180,90,90,180,90,180,270,360,360,90,,,,,,,,,,,573.7665,573.767,,0,39,39,39,1,13,novel,,,,,,,,,,,,,,,,,,,,,,,,,,,,,,,,,,,,,,,,,,,,,,,,,
,,6,10,${e://Field/PROLIFIC_PID,F,18,2023-11-03_01h04.09.355,MouseEye_CC,2023.2.2,Win32,60.41565974,1.28,,,1920,1080,43.637,5.05,"151.34, 363.21, 352.85, 197.05, 314.93, 377.3, 351.45",873.41,7.616866683,38.46517675,27.83653633,Passed,128.8583421,,,,,,,,,,,,,,,,,,,,,training,3,9,180,right,s,,,,,573.7679,575.2996,35.84,0,5,1,0,0,1.5315,fixationPoint,575.2997,575.3991,575.3991,577.2988,35.84,10240,616.96,s,1,1.8835,,577.2989,577.4986,,,,,,,,88,116,-163,170,167,68,68,128,24,-32,67,-119,124,-164,117,-117,-218,-216,-65,-121,-21,80,-219,214,-112,90,180,90,90,360,270,360,270,90,90,180,,,,,,,,,,,577.4987,577.4992,,0,40,40,40,1,7,repeated,,,,,,,,,,,,,,,,,,,,,,,,,,,,,,,,,,,,,,,,,,,,,,,,,
,,6,10,${e://Field/PROLIFIC_PID,F,18,2023-11-03_01h04.09.355,MouseEye_CC,2023.2.2,Win32,60.41565974,1.28,,,1920,1080,43.637,5.05,"151.34, 363.21, 352.85, 197.05, 314.93, 377.3, 351.45",873.41,7.616866683,38.46517675,27.83653633,Passed,128.8583421,,,,,,,,,,,,,,,,,,,,,training,3,10,180,right,s,,,,,577.5,579.4815,35.84,0,5,1,0,0,1.9811,fixationPoint,579.4816,579.581,579.5811,583.4968,35.84,10240,616.96,s,1,3.9077,,583.4969,583.6965,,,,,,,,95,-24,-224,208,18,18,16,65,164,-32,67,-209,74,-75,224,125,-224,215,-175,31,-162,-160,-168,-221,-28,360,270,90,360,360,180,360,360,360,360,90,,,,,,,,,,,583.6966,583.6971,,0,41,41,41,1,5,repeated,,,,,,,,,,,,,,,,,,,,,,,,,,,,,,,,,,,,,,,,,,,,,,,,,
,,6,10,${e://Field/PROLIFIC_PID,F,18,2023-11-03_01h04.09.355,MouseEye_CC,2023.2.2,Win32,60.41565974,1.28,,,1920,1080,43.637,5.05,"151.34, 363.21, 352.85, 197.05, 314.93, 377.3, 351.45",873.41,7.616866683,38.46517675,27.83653633,Passed,128.8583421,,,,,,,,,,,,,,,,,,,,,training,3,11,0,left,a,,,,,583.698,585.8628,35.84,0,5,1,0,0,2.1646,fixationPoint,585.8629,585.9622,585.9622,589.1616,35.84,10240,616.96,a,1,3.1873,,589.1618,589.3608,,,,,,,,29,164,120,-122,68,-215,16,-163,208,-176,-76,-165,-118,-78,-72,174,-19,78,-128,161,-119,112,163,174,22,270,360,270,180,180,180,270,270,270,270,360,,,,,,,,,,,589.3608,589.361,,0,42,42,42,1,2,repeated,,,,,,,,,,,,,,,,,,,,,,,,,,,,,,,,,,,,,,,,,,,,,,,,,
,,6,10,${e://Field/PROLIFIC_PID,F,18,2023-11-03_01h04.09.355,MouseEye_CC,2023.2.2,Win32,60.41565974,1.28,,,1920,1080,43.637,5.05,"151.34, 363.21, 352.85, 197.05, 314.93, 377.3, 351.45",873.41,7.616866683,38.46517675,27.83653633,Passed,128.8583421,,,,,,,,,,,,,,,,,,,,,training,3,12,0,left,a,,,,,589.3615,590.0777,35.84,0,5,1,0,0,0.7162,fixationPoint,590.0778,590.1774,590.1775,594.2597,35.84,10240,616.96,a,1,4.0665,,594.2598,594.4595,,,,,,,,33,-122,68,217,124,128,113,212,215,-64,-171,-215,-119,-221,-28,72,-21,116,-163,172,-224,-128,217,-119,124,90,270,360,270,90,360,360,270,360,90,180,,,,,,,,,,,594.4596,594.4599,,0,43,43,43,1,16,novel,,,,,,,,,,,,,,,,,,,,,,,,,,,,,,,,,,,,,,,,,,,,,,,,,
,,6,10,${e://Field/PROLIFIC_PID,F,18,2023-11-03_01h04.09.355,MouseEye_CC,2023.2.2,Win32,60.41565974,1.28,,,1920,1080,43.637,5.05,"151.34, 363.21, 352.85, 197.05, 314.93, 377.3, 351.45",873.41,7.616866683,38.46517675,27.83653633,Passed,128.8583421,,,,,,,,,,,,,,,,,,,,,training,3,13,0,left,a,,,,,594.4609,596.4424,35.84,0,5,1,0,0,1.9813,fixationPoint,596.4425,596.5418,596.5418,598.027,35.84,10240,616.96,a,1,1.469,,598.0273,598.225,,,,,,,,25,-27,122,128,113,112,72,65,164,-78,-218,-221,-28,-160,-168,27,-75,174,-19,26,-208,-211,215,-213,175,180,180,90,360,270,90,360,360,270,270,360,,,,,,,,,,,598.2251,598.2254,,0,44,44,44,1,3,repeated,,,,,,,,,,,,,,,,,,,,,,,,,,,,,,,,,,,,,,,,,,,,,,,,,
,,6,10,${e://Field/PROLIFIC_PID,F,18,2023-11-03_01h04.09.355,MouseEye_CC,2023.2.2,Win32,60.41565974,1.28,,,1920,1080,43.637,5.05,"151.34, 363.21, 352.85, 197.05, 314.93, 377.3, 351.45",873.41,7.616866683,38.46517675,27.83653633,Passed,128.8583421,,,,,,,,,,,,,,,,,,,,,training,3,14,180,right,s,,,,,598.2262,598.958,35.84,0,5,1,0,0,0.7317,fixationPoint,598.9582,599.0574,599.0574,601.5742,35.84,10240,616.96,s,1,2.5042,,601.5744,601.7739,,,,,,,,74,-79,-126,68,222,21,208,174,75,-120,28,-164,175,-17,217,116,-163,216,-216,214,-112,-173,-216,-214,-220,180,360,270,180,360,180,180,90,90,360,270,,,,,,,,,,,601.774,601.7744,,0,45,45,45,1,9,novel,,,,,,,,,,,,,,,,,,,,,,,,,,,,,,,,,,,,,,,,,,,,,,,,,
,,6,10,${e://Field/PROLIFIC_PID,F,18,2023-11-03_01h04.09.355,MouseEye_CC,2023.2.2,Win32,60.41565974,1.28,,,1920,1080,43.637,5.05,"151.34, 363.21, 352.85, 197.05, 314.93, 377.3, 351.45",873.41,7.616866683,38.46517675,27.83653633,Passed,128.8583421,,,,,,,,,,,,,,,,,,,,,training,3,15,180,right,s,,,,,601.7781,604.0727,35.84,0,5,1,0,0,2.2943,fixationPoint,604.0727,604.1725,604.1726,614.5863,35.84,10240,616.96,s,1,10.4048,,614.5865,614.7855,,,,,,,,87,76,-169,69,114,112,163,21,208,-164,175,-73,163,-119,124,-79,-126,-221,-28,-64,-171,216,-69,119,-23,180,270,360,180,90,270,90,90,90,180,180,,,,,,,,,,,614.7856,614.7859,,0,46,46,46,1,12,novel,,,,,,,,,,,,,,,,,,,,,,,,,,,,,,,,,,,,,,,,,,,,,,,,,
,,6,10,${e://Field/PROLIFIC_PID,F,18,2023-11-03_01h04.09.355,MouseEye_CC,2023.2.2,Win32,60.41565974,1.28,,,1920,1080,43.637,5.05,"151.34, 363.21, 352.85, 197.05, 314.93, 377.3, 351.45",873.41,7.616866683,38.46517675,27.83653633,Passed,128.8583421,,,,,,,,,,,,,,,,,,,,,training,3,16,180,right,s,,,,,614.7863,616.119,35.84,0,5,1,0,0,1.3324,fixationPoint,616.1192,616.2191,616.2192,621.6672,35.84,10240,616.96,s,1,5.4311,,621.6673,621.8665,,,,,,,,13,-115,168,217,124,128,24,68,68,-27,-20,-24,-224,-77,-31,72,-21,114,-78,26,-208,-167,28,-173,65,270,270,90,90,180,270,270,360,270,90,360,,,,,,,,,,,621.8666,626.315,space,0,47,47,47,1,15,novel,4.4273,,,,,,,,,,,,,,,,,,,,,,,,,,,,,,,,,,,,,,,,,,,,,,,,
,,6,10,${e://Field/PROLIFIC_PID,F,18,2023-11-03_01h04.09.355,MouseEye_CC,2023.2.2,Win32,60.41565974,1.28,,,1920,1080,43.637,5.05,"151.34, 363.21, 352.85, 197.05, 314.93, 377.3, 351.45",873.41,7.616866683,38.46517675,27.83653633,Passed,128.8583421,,,,,,,,,,,,,,,,,,,,,training,4,1,0,left,a,,,,,626.3252,628.0998,35.84,0,5,1,0,0,1.7744,fixationPoint,628.0998,628.1979,628.1979,633.4132,35.84,10240,616.96,a,1,5.2072,,633.4134,633.6129,,,,,,,,13,-115,168,30,126,212,167,68,68,-160,-168,-30,-164,-79,-126,72,-21,27,-75,216,-69,-173,65,-209,74,90,270,180,90,360,360,90,90,90,180,360,,,,,,,,,,,633.613,633.6153,,0,48,48,48,1,15,novel,,,,,,,,,,,,,,,,,,,,,,,,,,,,,,,,,,,,,,,,,,,,,,,,,
,,6,10,${e://Field/PROLIFIC_PID,F,18,2023-11-03_01h04.09.355,MouseEye_CC,2023.2.2,Win32,60.41565974,1.28,,,1920,1080,43.637,5.05,"151.34, 363.21, 352.85, 197.05, 314.93, 377.3, 351.45",873.41,7.616866683,38.46517675,27.83653633,Passed,128.8583421,,,,,,,,,,,,,,,,,,,,,training,4,2,0,left,a,,,,,633.6166,634.9453,35.84,0,5,1,0,0,1.3285,fixationPoint,634.9454,635.0457,635.0458,642.027,35.84,10240,616.96,a,1,6.964,,642.0271,642.2264,,,,,,,,6,21,208,-215,16,-68,124,-73,163,-173,-216,-218,-174,-116,-116,64,-76,116,-163,216,-216,26,175,17,74,270,180,90,90,360,360,270,90,360,90,90,,,,,,,,,,,642.2266,642.2269,,0,49,49,49,1,13,novel,,,,,,,,,,,,,,,,,,,,,,,,,,,,,,,,,,,,,,,,,,,,,,,,,
,,6,10,${e://Field/PROLIFIC_PID,F,18,2023-11-03_01h04.09.355,MouseEye_CC,2023.2.2,Win32,60.41565974,1.28,,,1920,1080,43.637,5.05,"151.34, 363.21, 352.85, 197.05, 314.93, 377.3, 351.45",873.41,7.616866683,38.46517675,27.83653633,Passed,128.8583421,,,,,,,,,,,,,,,,,,,,,training,4,3,0,left,a,,,,,642.2274,643.6941,35.84,0,5,1,0,0,1.4659,fixationPoint,643.6942,643.7924,643.7924,645.7091,35.84,10240,616.96,a,1,1.9013,,645.7092,645.9087,,,,,,,,27,69,114,-68,124,-167,28,-173,65,-121,-21,-165,-118,-24,-224,168,-163,124,-118,116,-163,21,208,128,113,180,360,360,90,90,270,180,90,90,270,180,,,,,,,,,,,645.9088,645.9093,,0,50,50,50,1,1,repeated,,,,,,,,,,,,,,,,,,,,,,,,,,,,,,,,,,,,,,,,,,,,,,,,,
,,6,10,${e://Field/PROLIFIC_PID,F,18,2023-11-03_01h04.09.355,MouseEye_CC,2023.2.2,Win32,60.41565974,1.28,,,1920,1080,43.637,5.05,"151.34, 363.21, 352.85, 197.05, 314.93, 377.3, 351.45",873.41,7.616866683,38.46517675,27.83653633,Passed,128.8583421,,,,,,,,,,,,,,,,,,,,,training,4,4,180,right,s,,,,,645.9102,649.0578,35.84,0,5,1,0,0,3.1473,fixationPoint,649.0579,649.1572,649.1572,652.0068,35.84,10240,616.96,s,1,2.8345,,652.0068,652.2067,,,,,,,,71,-215,-119,212,215,26,175,170,167,-74,22,-65,70,-213,175,72,-21,125,-224,223,-27,-121,-21,-218,-174,90,90,180,270,90,270,90,90,90,180,270,,,,,,,,,,,652.2068,652.2072,,0,51,51,51,1,6,repeated,,,,,,,,,,,,,,,,,,,,,,,,,,,,,,,,,,,,,,,,,,,,,,,,,
,,6,10,${e://Field/PROLIFIC_PID,F,18,2023-11-03_01h04.09.355,MouseEye_CC,2023.2.2,Win32,60.41565974,1.28,,,1920,1080,43.637,5.05,"151.34, 363.21, 352.85, 197.05, 314.93, 377.3, 351.45",873.41,7.616866683,38.46517675,27.83653633,Passed,128.8583421,,,,,,,,,,,,,,,,,,,,,training,4,5,0,left,a,,,,,652.2082,653.0064,35.84,0,5,1,0,0,0.7979,fixationPoint,653.0066,653.1058,653.1058,654.7227,35.84,10240,616.96,a,1,1.6093,,654.7228,654.9221,,,,,,,,33,-122,68,68,68,72,30,112,72,-78,-218,-218,-174,-216,-65,215,-175,78,-128,26,-208,-213,175,-209,74,360,270,270,180,180,270,270,90,90,270,360,,,,,,,,,,,654.9222,654.9224,,0,52,52,52,1,16,novel,,,,,,,,,,,,,,,,,,,,,,,,,,,,,,,,,,,,,,,,,,,,,,,,,
,,6,10,${e://Field/PROLIFIC_PID,F,18,2023-11-03_01h04.09.355,MouseEye_CC,2023.2.2,Win32,60.41565974,1.28,,,1920,1080,43.637,5.05,"151.34, 363.21, 352.85, 197.05, 314.93, 377.3, 351.45",873.41,7.616866683,38.46517675,27.83653633,Passed,128.8583421,,,,,,,,,,,,,,,,,,,,,training,4,6,0,left,a,,,,,654.9232,656.172,35.84,0,5,1,0,0,1.2487,fixationPoint,656.1721,656.2719,656.272,661.9533,35.84,10240,616.96,a,1,5.6642,,661.9534,662.153,,,,,,,,95,-24,-224,208,18,18,16,65,164,-32,67,-209,74,-75,224,125,-224,215,-175,31,-162,-160,-168,-221,-28,270,360,360,270,360,180,270,180,270,270,180,,,,,,,,,,,662.1531,662.1534,,0,53,53,53,1,5,repeated,,,,,,,,,,,,,,,,,,,,,,,,,,,,,,,,,,,,,,,,,,,,,,,,,
,,6,10,${e://Field/PROLIFIC_PID,F,18,2023-11-03_01h04.09.355,MouseEye_CC,2023.2.2,Win32,60.41565974,1.28,,,1920,1080,43.637,5.05,"151.34, 363.21, 352.85, 197.05, 314.93, 377.3, 351.45",873.41,7.616866683,38.46517675,27.83653633,Passed,128.8583421,,,,,,,,,,,,,,,,,,,,,training,4,7,180,right,s,,,,,662.1542,663.9522,35.84,0,5,1,0,0,1.7978,fixationPoint,663.9523,664.0525,664.0527,665.7522,35.84,10240,616.96,s,1,1.6891,,665.7522,665.952,,,,,,,,25,-27,122,128,113,112,72,65,164,-78,-218,-221,-28,-160,-168,27,-75,174,-19,26,-208,-211,215,-213,175,270,180,270,90,360,90,360,270,90,90,270,,,,,,,,,,,665.9521,665.9527,,0,54,54,54,1,3,repeated,,,,,,,,,,,,,,,,,,,,,,,,,,,,,,,,,,,,,,,,,,,,,,,,,
,,6,10,${e://Field/PROLIFIC_PID,F,18,2023-11-03_01h04.09.355,MouseEye_CC,2023.2.2,Win32,60.41565974,1.28,,,1920,1080,43.637,5.05,"151.34, 363.21, 352.85, 197.05, 314.93, 377.3, 351.45",873.41,7.616866683,38.46517675,27.83653633,Passed,128.8583421,,,,,,,,,,,,,,,,,,,,,training,4,8,180,right,s,,,,,665.9538,666.6187,35.84,0,5,1,0,0,0.6646,fixationPoint,666.6189,666.7181,666.7182,669.2511,35.84,10240,616.96,s,1,2.5174,,669.2512,669.4507,,,,,,,,30,217,124,-119,124,-216,116,-215,16,-173,-216,-27,-20,-176,-76,216,-69,168,-163,119,-23,72,30,212,67,180,360,180,270,180,180,180,360,90,180,270,,,,,,,,,,,669.4507,669.4511,,0,55,55,55,1,14,novel,,,,,,,,,,,,,,,,,,,,,,,,,,,,,,,,,,,,,,,,,,,,,,,,,
,,6,10,${e://Field/PROLIFIC_PID,F,18,2023-11-03_01h04.09.355,MouseEye_CC,2023.2.2,Win32,60.41565974,1.28,,,1920,1080,43.637,5.05,"151.34, 363.21, 352.85, 197.05, 314.93, 377.3, 351.45",873.41,7.616866683,38.46517675,27.83653633,Passed,128.8583421,,,,,,,,,,,,,,,,,,,,,training,4,9,0,left,a,,,,,669.4519,670.1674,35.84,0,5,1,0,0,0.7153,fixationPoint,670.1675,670.2672,670.2673,678.9646,35.84,10240,616.96,a,1,8.6809,,678.9647,679.1641,,,,,,,,74,-79,-126,128,113,174,22,164,120,-173,65,-68,124,-211,215,124,-118,31,-162,172,-224,-116,-72,-221,-28,180,90,90,180,90,360,360,360,360,180,180,,,,,,,,,,,679.1641,679.1645,,0,56,56,56,1,9,novel,,,,,,,,,,,,,,,,,,,,,,,,,,,,,,,,,,,,,,,,,,,,,,,,,
,,6,10,${e://Field/PROLIFIC_PID,F,18,2023-11-03_01h04.09.355,MouseEye_CC,2023.2.2,Win32,60.41565974,1.28,,,1920,1080,43.637,5.05,"151.34, 363.21, 352.85, 197.05, 314.93, 377.3, 351.45",873.41,7.616866683,38.46517675,27.83653633,Passed,128.8583421,,,,,,,,,,,,,,,,,,,,,training,4,10,180,right,s,,,,,679.1655,680.2806,35.84,0,5,1,0,0,1.115,fixationPoint,680.2807,680.3802,680.3803,682.5133,35.84,10240,616.96,s,1,2.1165,,682.5134,682.7129,,,,,,,,88,116,-163,170,167,68,68,128,24,-32,67,-119,124,-164,117,-117,-218,-216,-65,-121,-21,80,-219,214,-112,180,180,360,360,180,360,270,270,90,180,90,,,,,,,,,,,682.713,682.7135,,0,57,57,57,1,7,repeated,,,,,,,,,,,,,,,,,,,,,,,,,,,,,,,,,,,,,,,,,,,,,,,,,
,,6,10,${e://Field/PROLIFIC_PID,F,18,2023-11-03_01h04.09.355,MouseEye_CC,2023.2.2,Win32,60.41565974,1.28,,,1920,1080,43.637,5.05,"151.34, 363.21, 352.85, 197.05, 314.93, 377.3, 351.45",873.41,7.616866683,38.46517675,27.83653633,Passed,128.8583421,,,,,,,,,,,,,,,,,,,,,training,4,11,180,right,s,,,,,682.7143,683.8293,35.84,0,5,1,0,0,1.1148,fixationPoint,683.8294,683.929,683.9291,686.4952,35.84,10240,616.96,s,1,2.5496,,686.4954,686.6948,,,,,,,,76,20,-128,125,208,164,120,112,72,-216,116,-163,208,-17,217,-116,-72,-214,-220,-78,-218,161,-119,124,-118,360,180,90,270,90,90,360,360,90,360,270,,,,,,,,,,,686.6949,686.6953,,0,58,58,58,1,11,novel,,,,,,,,,,,,,,,,,,,,,,,,,,,,,,,,,,,,,,,,,,,,,,,,,
,,6,10,${e://Field/PROLIFIC_PID,F,18,2023-11-03_01h04.09.355,MouseEye_CC,2023.2.2,Win32,60.41565974,1.28,,,1920,1080,43.637,5.05,"151.34, 363.21, 352.85, 197.05, 314.93, 377.3, 351.45",873.41,7.616866683,38.46517675,27.83653633,Passed,128.8583421,,,,,,,,,,,,,,,,,,,,,training,4,12,0,left,a,,,,,686.6962,687.4278,35.84,0,5,1,0,0,0.7315,fixationPoint,687.4278,687.5275,687.5275,691.3762,35.84,10240,616.96,a,1,3.842,,691.3763,691.5765,,,,,,,,29,164,120,-122,68,-215,16,-163,208,-176,-76,-165,-118,-78,-72,174,-19,78,-128,161,-119,112,163,174,22,90,90,360,270,180,270,360,360,270,270,180,,,,,,,,,,,691.5767,691.5771,,0,59,59,59,1,2,repeated,,,,,,,,,,,,,,,,,,,,,,,,,,,,,,,,,,,,,,,,,,,,,,,,,
,,6,10,${e://Field/PROLIFIC_PID,F,18,2023-11-03_01h04.09.355,MouseEye_CC,2023.2.2,Win32,60.41565974,1.28,,,1920,1080,43.637,5.05,"151.34, 363.21, 352.85, 197.05, 314.93, 377.3, 351.45",873.41,7.616866683,38.46517675,27.83653633,Passed,128.8583421,,,,,,,,,,,,,,,,,,,,,training,4,13,0,left,a,,,,,691.578,692.5931,35.84,0,5,1,0,0,1.015,fixationPoint,692.5934,692.6927,692.6927,694.5089,35.84,10240,616.96,a,1,1.8028,,694.5091,694.7088,,,,,,,,87,76,-169,164,120,21,208,72,30,-167,28,-215,16,-163,208,-117,-218,-218,-174,-215,-119,27,-75,64,-76,90,270,90,180,270,180,180,360,180,360,180,,,,,,,,,,,694.7088,694.7092,,0,60,60,60,1,12,novel,,,,,,,,,,,,,,,,,,,,,,,,,,,,,,,,,,,,,,,,,,,,,,,,,
,,6,10,${e://Field/PROLIFIC_PID,F,18,2023-11-03_01h04.09.355,MouseEye_CC,2023.2.2,Win32,60.41565974,1.28,,,1920,1080,43.637,5.05,"151.34, 363.21, 352.85, 197.05, 314.93, 377.3, 351.45",873.41,7.616866683,38.46517675,27.83653633,Passed,128.8583421,,,,,,,,,,,,,,,,,,,,,training,4,14,180,right,s,,,,,694.7101,695.3749,35.84,0,5,1,0,0,0.6648,fixationPoint,695.375,695.4753,695.4755,697.6921,35.84,10240,616.96,s,1,2.2082,,697.6922,697.8909,,,,,,,,68,114,-78,212,215,18,16,174,75,-163,208,-28,28,-75,224,-221,-28,-176,-19,-116,-116,172,-224,80,-219,270,180,360,90,270,180,90,360,270,90,360,,,,,,,,,,,697.8909,697.8913,,0,61,61,61,1,8,repeated,,,,,,,,,,,,,,,,,,,,,,,,,,,,,,,,,,,,,,,,,,,,,,,,,
,,6,10,${e://Field/PROLIFIC_PID,F,18,2023-11-03_01h04.09.355,MouseEye_CC,2023.2.2,Win32,60.41565974,1.28,,,1920,1080,43.637,5.05,"151.34, 363.21, 352.85, 197.05, 314.93, 377.3, 351.45",873.41,7.616866683,38.46517675,27.83653633,Passed,128.8583421,,,,,,,,,,,,,,,,,,,,,training,4,15,180,right,s,,,,,697.8921,699.141,35.84,0,5,1,0,0,1.2484,fixationPoint,699.1411,699.2402,699.2402,707.6044,35.84,10240,616.96,s,1,8.347,,707.6045,707.8045,,,,,,,,14,-73,163,125,208,69,114,112,163,-122,-165,-78,-218,-117,-218,20,-128,216,-69,114,-78,-128,217,-209,74,360,270,360,360,270,270,360,90,180,180,270,,,,,,,,,,,707.8046,707.8051,,0,62,62,62,1,4,repeated,,,,,,,,,,,,,,,,,,,,,,,,,,,,,,,,,,,,,,,,,,,,,,,,,
,,6,10,${e://Field/PROLIFIC_PID,F,18,2023-11-03_01h04.09.355,MouseEye_CC,2023.2.2,Win32,60.41565974,1.28,,,1920,1080,43.637,5.05,"151.34, 363.21, 352.85, 197.05, 314.93, 377.3, 351.45",873.41,7.616866683,38.46517675,27.83653633,Passed,128.8583421,,,,,,,,,,,,,,,,,,,,,training,4,16,180,right,s,,,,,707.8061,708.9877,35.84,0,5,1,0,0,1.1814,fixationPoint,708.9877,709.0871,709.0873,710.6032,35.84,10240,616.96,s,1,1.4831,,710.6033,710.8033,,,,,,,,72,-165,-118,72,30,65,164,217,124,-17,217,-75,224,-173,65,28,-16,31,-162,172,-224,-176,-19,-176,-76,180,90,360,90,180,90,90,90,90,360,360,,,,,,,,,,,710.8034,717.0079,space,0,63,63,63,1,10,novel,6.1819,,,,,,,,,,,,,,,,,,,,,,,,,,,,,,,,,,,,,,,,,,,,,,,,
,,6,10,${e://Field/PROLIFIC_PID,F,18,2023-11-03_01h04.09.355,MouseEye_CC,2023.2.2,Win32,60.41565974,1.28,,,1920,1080,43.637,5.05,"151.34, 363.21, 352.85, 197.05, 314.93, 377.3, 351.45",873.41,7.616866683,38.46517675,27.83653633,Passed,128.8583421,,,,,,,,,,,,,,,,,,,,,training,5,1,180,right,s,,,,,717.0298,718.0677,35.84,0,5,1,0,0,1.0377,fixationPoint,718.0678,718.1671,718.1672,722.5661,35.84,10240,616.96,s,1,4.3868,,722.5663,722.7659,,,,,,,,76,20,-128,112,163,208,18,65,164,-215,16,-27,122,-122,68,-218,-174,-78,-218,-173,-216,64,-76,27,-75,360,270,360,270,180,270,180,180,360,180,180,,,,,,,,,,,722.766,722.7683,,0,64,64,64,1,11,novel,,,,,,,,,,,,,,,,,,,,,,,,,,,,,,,,,,,,,,,,,,,,,,,,,
,,6,10,${e://Field/PROLIFIC_PID,F,18,2023-11-03_01h04.09.355,MouseEye_CC,2023.2.2,Win32,60.41565974,1.28,,,1920,1080,43.637,5.05,"151.34, 363.21, 352.85, 197.05, 314.93, 377.3, 351.45",873.41,7.616866683,38.46517675,27.83653633,Passed,128.8583421,,,,,,,,,,,,,,,,,,,,,training,5,2,0,left,a,,,,,722.7691,723.9655,35.84,0,5,1,0,0,1.1961,fixationPoint,723.9656,724.0655,724.0656,726.0978,35.84,10240,616.96,a,1,2.0234,,726.0979,726.2981,,,,,,,,87,76,-169,212,67,112,163,69,114,-209,74,-216,116,-17,217,-173,-216,-77,-31,-79,-126,119,-23,116,-163,360,90,360,270,180,270,360,180,180,270,90,,,,,,,,,,,726.2983,726.2986,,0,65,65,65,1,12,novel,,,,,,,,,,,,,,,,,,,,,,,,,,,,,,,,,,,,,,,,,,,,,,,,,
,,6,10,${e://Field/PROLIFIC_PID,F,18,2023-11-03_01h04.09.355,MouseEye_CC,2023.2.2,Win32,60.41565974,1.28,,,1920,1080,43.637,5.05,"151.34, 363.21, 352.85, 197.05, 314.93, 377.3, 351.45",873.41,7.616866683,38.46517675,27.83653633,Passed,128.8583421,,,,,,,,,,,,,,,,,,,,,training,5,3,180,right,s,,,,,726.2995,727.6304,35.84,0,5,1,0,0,1.3307,fixationPoint,727.6305,727.7308,727.7308,732.0129,35.84,10240,616.96,s,1,4.2655,,732.013,732.2128,,,,,,,,25,-27,122,128,113,112,72,65,164,-78,-218,-221,-28,-160,-168,27,-75,174,-19,26,-208,-211,215,-213,175,180,360,270,360,90,270,360,90,180,360,90,,,,,,,,,,,732.2129,732.2135,,0,66,66,66,1,3,repeated,,,,,,,,,,,,,,,,,,,,,,,,,,,,,,,,,,,,,,,,,,,,,,,,,
,,6,10,${e://Field/PROLIFIC_PID,F,18,2023-11-03_01h04.09.355,MouseEye_CC,2023.2.2,Win32,60.41565974,1.28,,,1920,1080,43.637,5.05,"151.34, 363.21, 352.85, 197.05, 314.93, 377.3, 351.45",873.41,7.616866683,38.46517675,27.83653633,Passed,128.8583421,,,,,,,,,,,,,,,,,,,,,training,5,4,180,right,s,,,,,732.2146,734.9618,35.84,0,5,1,0,0,2.7469,fixationPoint,734.9618,735.0618,735.0619,740.0436,35.84,10240,616.96,s,1,4.9563,,740.0436,740.2434,,,,,,,,88,116,-163,170,167,68,68,128,24,-32,67,-119,124,-164,117,-117,-218,-216,-65,-121,-21,80,-219,214,-112,360,90,180,360,180,360,270,270,360,360,180,,,,,,,,,,,740.2435,740.2441,,0,67,67,67,1,7,repeated,,,,,,,,,,,,,,,,,,,,,,,,,,,,,,,,,,,,,,,,,,,,,,,,,
,,6,10,${e://Field/PROLIFIC_PID,F,18,2023-11-03_01h04.09.355,MouseEye_CC,2023.2.2,Win32,60.41565974,1.28,,,1920,1080,43.637,5.05,"151.34, 363.21, 352.85, 197.05, 314.93, 377.3, 351.45",873.41,7.616866683,38.46517675,27.83653633,Passed,128.8583421,,,,,,,,,,,,,,,,,,,,,training,5,5,180,right,s,,,,,740.2448,741.793,35.84,0,5,1,0,0,1.5479,fixationPoint,741.7932,741.8924,741.8925,743.3424,35.84,10240,616.96,s,1,1.4206,,743.3425,743.5422,,,,,,,,72,-165,-118,68,222,18,16,26,175,-115,168,-163,208,-27,122,161,-119,119,-23,174,-19,-218,-174,-25,-115,180,90,360,180,180,90,270,270,270,180,90,,,,,,,,,,,743.5424,743.5428,,0,68,68,68,1,10,novel,,,,,,,,,,,,,,,,,,,,,,,,,,,,,,,,,,,,,,,,,,,,,,,,,
,,6,10,${e://Field/PROLIFIC_PID,F,18,2023-11-03_01h04.09.355,MouseEye_CC,2023.2.2,Win32,60.41565974,1.28,,,1920,1080,43.637,5.05,"151.34, 363.21, 352.85, 197.05, 314.93, 377.3, 351.45",873.41,7.616866683,38.46517675,27.83653633,Passed,128.8583421,,,,,,,,,,,,,,,,,,,,,training,5,6,0,left,a,,,,,743.5437,744.3088,35.84,0,5,1,0,0,0.7649,fixationPoint,744.3088,744.4083,744.4084,752.7056,35.84,10240,616.96,a,1,8.2704,,752.7058,752.9059,,,,,,,,74,-79,-126,30,126,217,124,17,74,-29,175,-209,74,-128,217,174,-19,216,-216,168,-163,-216,-65,-116,-116,360,90,360,360,180,360,90,360,180,180,270,,,,,,,,,,,752.906,752.9066,,0,69,69,69,1,9,novel,,,,,,,,,,,,,,,,,,,,,,,,,,,,,,,,,,,,,,,,,,,,,,,,,
,,6,10,${e://Field/PROLIFIC_PID,F,18,2023-11-03_01h04.09.355,MouseEye_CC,2023.2.2,Win32,60.41565974,1.28,,,1920,1080,43.637,5.05,"151.34, 363.21, 352.85, 197.05, 314.93, 377.3, 351.45",873.41,7.616866683,38.46517675,27.83653633,Passed,128.8583421,,,,,,,,,,,,,,,,,,,,,training,5,7,0,left,a,,,,,752.9075,754.0723,35.84,0,5,1,0,0,1.1643,fixationPoint,754.0723,754.1719,754.172,764.6015,35.84,10240,616.96,s,0,10.397,,764.6017,768.6004,,,,,,,,30,217,124,-73,163,-164,175,-27,122,-165,-118,-27,-20,-64,-171,216,-69,125,-224,172,-224,212,215,17,74,180,90,270,90,180,360,270,180,90,360,180,,,,,,,,,,,768.6005,768.6009,,0,70,70,70,1,14,novel,,,,,,,,,,,,,,,,,,,,,,,,,,,,,,,,,,,,,,,,,,,,,,,,,
,,6,10,${e://Field/PROLIFIC_PID,F,18,2023-11-03_01h04.09.355,MouseEye_CC,2023.2.2,Win32,60.41565974,1.28,,,1920,1080,43.637,5.05,"151.34, 363.21, 352.85, 197.05, 314.93, 377.3, 351.45",873.41,7.616866683,38.46517675,27.83653633,Passed,128.8583421,,,,,,,,,,,,,,,,,,,,,training,5,8,180,right,s,,,,,768.6024,769.1337,35.84,0,5,1,0,0,0.531,fixationPoint,769.1339,769.2336,769.2337,770.4836,35.84,10240,616.96,s,1,1.2186,,770.4838,770.6828,,,,,,,,95,-24,-224,208,18,18,16,65,164,-32,67,-209,74,-75,224,125,-224,215,-175,31,-162,-160,-168,-221,-28,270,180,90,180,360,270,270,360,270,360,270,,,,,,,,,,,770.6829,770.6831,,0,71,71,71,1,5,repeated,,,,,,,,,,,,,,,,,,,,,,,,,,,,,,,,,,,,,,,,,,,,,,,,,
,,6,10,${e://Field/PROLIFIC_PID,F,18,2023-11-03_01h04.09.355,MouseEye_CC,2023.2.2,Win32,60.41565974,1.28,,,1920,1080,43.637,5.05,"151.34, 363.21, 352.85, 197.05, 314.93, 377.3, 351.45",873.41,7.616866683,38.46517675,27.83653633,Passed,128.8583421,,,,,,,,,,,,,,,,,,,,,training,5,9,0,left,a,,,,,770.6837,771.5158,35.84,0,5,1,0,0,0.8319,fixationPoint,771.5159,771.6157,771.6158,777.1647,35.84,10240,616.96,a,1,5.518,,777.1649,777.3642,,,,,,,,6,21,208,-119,124,-73,163,-32,67,-215,-119,-173,-216,-32,-72,223,-27,26,-208,76,-169,212,215,128,113,90,180,90,270,360,360,360,360,270,90,270,,,,,,,,,,,777.3643,777.3647,,0,72,72,72,1,13,novel,,,,,,,,,,,,,,,,,,,,,,,,,,,,,,,,,,,,,,,,,,,,,,,,,
,,6,10,${e://Field/PROLIFIC_PID,F,18,2023-11-03_01h04.09.355,MouseEye_CC,2023.2.2,Win32,60.41565974,1.28,,,1920,1080,43.637,5.05,"151.34, 363.21, 352.85, 197.05, 314.93, 377.3, 351.45",873.41,7.616866683,38.46517675,27.83653633,Passed,128.8583421,,,,,,,,,,,,,,,,,,,,,training,5,10,180,right,s,,,,,777.3654,778.1144,35.84,0,5,1,0,0,0.7486,fixationPoint,778.1145,778.2136,778.2136,780.6299,35.84,10240,616.96,s,1,2.3848,,780.6302,780.8296,,,,,,,,68,114,-78,212,215,18,16,174,75,-163,208,-28,28,-75,224,-221,-28,-176,-19,-116,-116,172,-224,80,-219,90,360,180,180,180,360,90,180,270,270,360,,,,,,,,,,,780.8297,780.8303,,0,73,73,73,1,8,repeated,,,,,,,,,,,,,,,,,,,,,,,,,,,,,,,,,,,,,,,,,,,,,,,,,
,,6,10,${e://Field/PROLIFIC_PID,F,18,2023-11-03_01h04.09.355,MouseEye_CC,2023.2.2,Win32,60.41565974,1.28,,,1920,1080,43.637,5.05,"151.34, 363.21, 352.85, 197.05, 314.93, 377.3, 351.45",873.41,7.616866683,38.46517675,27.83653633,Passed,128.8583421,,,,,,,,,,,,,,,,,,,,,training,5,11,0,left,a,,,,,780.8318,781.5964,35.84,0,5,1,0,0,0.7641,fixationPoint,781.5966,781.6958,781.6959,785.9009,35.84,10240,616.96,a,1,4.1825,,785.9011,786.0941,,,,,,,,14,-73,163,125,208,69,114,112,163,-122,-165,-78,-218,-117,-218,20,-128,216,-69,114,-78,-128,217,-209,74,90,180,90,360,270,90,180,90,270,360,90,,,,,,,,,,,786.0941,786.0944,,0,74,74,74,1,4,repeated,,,,,,,,,,,,,,,,,,,,,,,,,,,,,,,,,,,,,,,,,,,,,,,,,
,,6,10,${e://Field/PROLIFIC_PID,F,18,2023-11-03_01h04.09.355,MouseEye_CC,2023.2.2,Win32,60.41565974,1.28,,,1920,1080,43.637,5.05,"151.34, 363.21, 352.85, 197.05, 314.93, 377.3, 351.45",873.41,7.616866683,38.46517675,27.83653633,Passed,128.8583421,,,,,,,,,,,,,,,,,,,,,training,5,12,180,right,s,,,,,786.095,787.4104,35.84,0,5,1,0,0,1.3153,fixationPoint,787.4105,787.5105,787.5107,788.8103,35.84,10240,616.96,s,1,1.2726,,788.8105,789.0101,,,,,,,,71,-215,-119,212,215,26,175,170,167,-74,22,-65,70,-213,175,72,-21,125,-224,223,-27,-121,-21,-218,-174,360,90,360,90,360,180,180,90,360,90,90,,,,,,,,,,,789.0102,789.0106,,0,75,75,75,1,6,repeated,,,,,,,,,,,,,,,,,,,,,,,,,,,,,,,,,,,,,,,,,,,,,,,,,
,,6,10,${e://Field/PROLIFIC_PID,F,18,2023-11-03_01h04.09.355,MouseEye_CC,2023.2.2,Win32,60.41565974,1.28,,,1920,1080,43.637,5.05,"151.34, 363.21, 352.85, 197.05, 314.93, 377.3, 351.45",873.41,7.616866683,38.46517675,27.83653633,Passed,128.8583421,,,,,,,,,,,,,,,,,,,,,training,5,13,180,right,s,,,,,789.0117,789.8268,35.84,0,5,1,0,0,0.8148,fixationPoint,789.827,789.9262,789.9263,791.3266,35.84,10240,616.96,s,1,1.368,,791.3267,791.5259,,,,,,,,29,164,120,-122,68,-215,16,-163,208,-176,-76,-165,-118,-78,-72,174,-19,78,-128,161,-119,112,163,174,22,360,270,180,360,270,270,90,90,180,90,360,,,,,,,,,,,791.526,791.5262,,0,76,76,76,1,2,repeated,,,,,,,,,,,,,,,,,,,,,,,,,,,,,,,,,,,,,,,,,,,,,,,,,
,,6,10,${e://Field/PROLIFIC_PID,F,18,2023-11-03_01h04.09.355,MouseEye_CC,2023.2.2,Win32,60.41565974,1.28,,,1920,1080,43.637,5.05,"151.34, 363.21, 352.85, 197.05, 314.93, 377.3, 351.45",873.41,7.616866683,38.46517675,27.83653633,Passed,128.8583421,,,,,,,,,,,,,,,,,,,,,training,5,14,0,left,a,,,,,791.5271,792.3092,35.84,0,5,1,0,0,0.7819,fixationPoint,792.3094,792.4141,792.4141,796.2416,35.84,10240,616.96,a,1,3.8011,,796.2419,796.441,,,,,,,,27,69,114,-68,124,-167,28,-173,65,-121,-21,-165,-118,-24,-224,168,-163,124,-118,116,-163,21,208,128,113,360,360,270,360,270,360,270,180,90,180,360,,,,,,,,,,,796.4411,796.4414,,0,77,77,77,1,1,repeated,,,,,,,,,,,,,,,,,,,,,,,,,,,,,,,,,,,,,,,,,,,,,,,,,
,,6,10,${e://Field/PROLIFIC_PID,F,18,2023-11-03_01h04.09.355,MouseEye_CC,2023.2.2,Win32,60.41565974,1.28,,,1920,1080,43.637,5.05,"151.34, 363.21, 352.85, 197.05, 314.93, 377.3, 351.45",873.41,7.616866683,38.46517675,27.83653633,Passed,128.8583421,,,,,,,,,,,,,,,,,,,,,training,5,15,0,left,a,,,,,796.4424,797.9733,35.84,0,5,1,0,0,1.5306,fixationPoint,797.9734,798.0736,798.0738,807.9539,35.84,10240,616.96,a,1,9.8628,,807.9541,808.1425,,,,,,,,13,-115,168,21,208,26,175,171,212,-214,-220,-218,-174,-78,-218,27,-75,78,-128,223,-27,-209,74,-164,175,270,270,90,360,180,360,90,180,180,270,270,,,,,,,,,,,808.1426,808.1427,,0,78,78,78,1,15,novel,,,,,,,,,,,,,,,,,,,,,,,,,,,,,,,,,,,,,,,,,,,,,,,,,
,,6,10,${e://Field/PROLIFIC_PID,F,18,2023-11-03_01h04.09.355,MouseEye_CC,2023.2.2,Win32,60.41565974,1.28,,,1920,1080,43.637,5.05,"151.34, 363.21, 352.85, 197.05, 314.93, 377.3, 351.45",873.41,7.616866683,38.46517675,27.83653633,Passed,128.8583421,,,,,,,,,,,,,,,,,,,,,training,5,16,0,left,a,,,,,808.143,810.5697,35.84,0,5,1,0,0,2.4261,fixationPoint,810.5699,810.6694,810.6694,815.468,35.84,10240,616.96,a,1,4.7669,,815.4681,815.6734,,,,,,,,33,-122,68,17,74,72,30,125,208,-32,-72,-122,-165,-215,-119,214,-112,76,-169,125,-224,-213,175,-68,124,360,180,180,360,360,360,90,90,360,270,90,,,,,,,,,,,815.6735,819.2668,space,0,79,79,79,1,16,novel,3.5726,,,,,,,,,,,,,,,,,,,,,,,,,,,,,,,,,,,,,,,,,,,,,,,,
,,6,10,${e://Field/PROLIFIC_PID,F,18,2023-11-03_01h04.09.355,MouseEye_CC,2023.2.2,Win32,60.41565974,1.28,,,1920,1080,43.637,5.05,"151.34, 363.21, 352.85, 197.05, 314.93, 377.3, 351.45",873.41,7.616866683,38.46517675,27.83653633,Passed,128.8583421,,,,,,,,,,,,,,,,,,,,,training,6,1,180,right,s,,,,,819.2908,821.5656,35.84,0,5,1,0,0,2.2747,fixationPoint,821.5658,821.6656,821.6656,826.5976,35.84,10240,616.96,s,1,4.9021,,826.5977,826.7974,,,,,,,,25,-27,122,128,113,112,72,65,164,-78,-218,-221,-28,-160,-168,27,-75,174,-19,26,-208,-211,215,-213,175,90,360,270,270,90,270,360,90,270,180,90,,,,,,,,,,,826.7975,826.8001,,0,80,80,80,1,3,repeated,,,,,,,,,,,,,,,,,,,,,,,,,,,,,,,,,,,,,,,,,,,,,,,,,
,,6,10,${e://Field/PROLIFIC_PID,F,18,2023-11-03_01h04.09.355,MouseEye_CC,2023.2.2,Win32,60.41565974,1.28,,,1920,1080,43.637,5.05,"151.34, 363.21, 352.85, 197.05, 314.93, 377.3, 351.45",873.41,7.616866683,38.46517675,27.83653633,Passed,128.8583421,,,,,,,,,,,,,,,,,,,,,training,6,2,180,right,s,,,,,826.8008,827.6137,35.84,0,5,1,0,0,0.8128,fixationPoint,827.6139,827.7135,827.7136,829.7465,35.84,10240,616.96,s,1,2.0015,,829.7466,829.9464,,,,,,,,88,116,-163,170,167,68,68,128,24,-32,67,-119,124,-164,117,-117,-218,-216,-65,-121,-21,80,-219,214,-112,180,360,270,180,180,270,90,90,270,90,270,,,,,,,,,,,829.9465,829.9468,,0,81,81,81,1,7,repeated,,,,,,,,,,,,,,,,,,,,,,,,,,,,,,,,,,,,,,,,,,,,,,,,,
,,6,10,${e://Field/PROLIFIC_PID,F,18,2023-11-03_01h04.09.355,MouseEye_CC,2023.2.2,Win32,60.41565974,1.28,,,1920,1080,43.637,5.05,"151.34, 363.21, 352.85, 197.05, 314.93, 377.3, 351.45",873.41,7.616866683,38.46517675,27.83653633,Passed,128.8583421,,,,,,,,,,,,,,,,,,,,,training,6,3,180,right,s,,,,,829.9479,832.0457,35.84,0,5,1,0,0,2.0975,fixationPoint,832.0459,832.145,832.1451,834.4283,35.84,10240,616.96,s,1,2.2514,,834.4285,834.628,,,,,,,,68,114,-78,212,215,18,16,174,75,-163,208,-28,28,-75,224,-221,-28,-176,-19,-116,-116,172,-224,80,-219,270,90,360,180,180,90,90,360,90,270,90,,,,,,,,,,,834.6282,834.6285,,0,82,82,82,1,8,repeated,,,,,,,,,,,,,,,,,,,,,,,,,,,,,,,,,,,,,,,,,,,,,,,,,
,,6,10,${e://Field/PROLIFIC_PID,F,18,2023-11-03_01h04.09.355,MouseEye_CC,2023.2.2,Win32,60.41565974,1.28,,,1920,1080,43.637,5.05,"151.34, 363.21, 352.85, 197.05, 314.93, 377.3, 351.45",873.41,7.616866683,38.46517675,27.83653633,Passed,128.8583421,,,,,,,,,,,,,,,,,,,,,training,6,4,0,left,a,,,,,834.6296,835.2781,35.84,0,5,1,0,0,0.6482,fixationPoint,835.2782,835.3773,835.3773,837.2336,35.84,10240,616.96,a,1,1.8337,,837.2337,837.4269,,,,,,,,87,76,-169,174,75,18,16,217,124,-74,22,-32,67,-164,175,-165,-118,-218,-174,-176,-19,161,-119,161,-64,360,360,270,180,90,90,270,180,180,270,270,,,,,,,,,,,837.4271,837.4272,,0,83,83,83,1,12,novel,,,,,,,,,,,,,,,,,,,,,,,,,,,,,,,,,,,,,,,,,,,,,,,,,
,,6,10,${e://Field/PROLIFIC_PID,F,18,2023-11-03_01h04.09.355,MouseEye_CC,2023.2.2,Win32,60.41565974,1.28,,,1920,1080,43.637,5.05,"151.34, 363.21, 352.85, 197.05, 314.93, 377.3, 351.45",873.41,7.616866683,38.46517675,27.83653633,Passed,128.8583421,,,,,,,,,,,,,,,,,,,,,training,6,5,0,left,a,,,,,837.4278,838.6599,35.84,0,5,1,0,0,1.2319,fixationPoint,838.66,838.7601,838.7602,841.143,35.84,10240,616.96,a,1,2.3493,,841.1431,841.3314,,,,,,,,71,-215,-119,212,215,26,175,170,167,-74,22,-65,70,-213,175,72,-21,125,-224,223,-27,-121,-21,-218,-174,360,180,90,180,270,180,360,360,270,270,360,,,,,,,,,,,841.3315,841.3317,,0,84,84,84,1,6,repeated,,,,,,,,,,,,,,,,,,,,,,,,,,,,,,,,,,,,,,,,,,,,,,,,,
,,6,10,${e://Field/PROLIFIC_PID,F,18,2023-11-03_01h04.09.355,MouseEye_CC,2023.2.2,Win32,60.41565974,1.28,,,1920,1080,43.637,5.05,"151.34, 363.21, 352.85, 197.05, 314.93, 377.3, 351.45",873.41,7.616866683,38.46517675,27.83653633,Passed,128.8583421,,,,,,,,,,,,,,,,,,,,,training,6,6,180,right,s,,,,,841.3321,843.1253,35.84,0,5,1,0,0,1.7929,fixationPoint,843.1254,843.2248,843.2248,845.5081,35.84,10240,616.96,s,1,2.2519,,845.5083,845.7076,,,,,,,,95,-24,-224,208,18,18,16,65,164,-32,67,-209,74,-75,224,125,-224,215,-175,31,-162,-160,-168,-221,-28,270,180,180,270,90,180,180,180,180,360,360,,,,,,,,,,,845.7077,845.7082,,0,85,85,85,1,5,repeated,,,,,,,,,,,,,,,,,,,,,,,,,,,,,,,,,,,,,,,,,,,,,,,,,
,,6,10,${e://Field/PROLIFIC_PID,F,18,2023-11-03_01h04.09.355,MouseEye_CC,2023.2.2,Win32,60.41565974,1.28,,,1920,1080,43.637,5.05,"151.34, 363.21, 352.85, 197.05, 314.93, 377.3, 351.45",873.41,7.616866683,38.46517675,27.83653633,Passed,128.8583421,,,,,,,,,,,,,,,,,,,,,training,6,7,180,right,s,,,,,845.7093,846.4238,35.84,0,5,1,0,0,0.7143,fixationPoint,846.424,846.524,846.524,851.156,35.84,10240,616.96,s,1,4.6052,,851.1562,851.3557,,,,,,,,33,-122,68,26,175,69,114,125,208,-64,-171,-78,-218,-215,-119,116,-163,216,-69,114,-78,-74,22,-167,28,180,180,90,180,90,90,270,90,270,270,180,,,,,,,,,,,851.3557,851.3561,,0,86,86,86,1,16,novel,,,,,,,,,,,,,,,,,,,,,,,,,,,,,,,,,,,,,,,,,,,,,,,,,
,,6,10,${e://Field/PROLIFIC_PID,F,18,2023-11-03_01h04.09.355,MouseEye_CC,2023.2.2,Win32,60.41565974,1.28,,,1920,1080,43.637,5.05,"151.34, 363.21, 352.85, 197.05, 314.93, 377.3, 351.45",873.41,7.616866683,38.46517675,27.83653633,Passed,128.8583421,,,,,,,,,,,,,,,,,,,,,training,6,8,0,left,a,,,,,851.3569,854.7213,35.84,0,5,1,0,0,3.364,fixationPoint,854.7214,854.8212,854.8213,860.386,35.84,10240,616.96,a,1,5.5419,,860.3862,860.5857,,,,,,,,74,-79,-126,128,113,208,18,171,212,-215,16,-115,168,-28,28,161,-64,125,-224,172,-224,-121,-21,-216,-65,90,180,180,90,270,360,270,360,270,270,90,,,,,,,,,,,860.5857,860.586,,0,87,87,87,1,9,novel,,,,,,,,,,,,,,,,,,,,,,,,,,,,,,,,,,,,,,,,,,,,,,,,,
,,6,10,${e://Field/PROLIFIC_PID,F,18,2023-11-03_01h04.09.355,MouseEye_CC,2023.2.2,Win32,60.41565974,1.28,,,1920,1080,43.637,5.05,"151.34, 363.21, 352.85, 197.05, 314.93, 377.3, 351.45",873.41,7.616866683,38.46517675,27.83653633,Passed,128.8583421,,,,,,,,,,,,,,,,,,,,,training,6,9,0,left,a,,,,,860.587,862.2187,35.84,0,5,1,0,0,1.6314,fixationPoint,862.2189,862.3184,862.3185,864.918,35.84,10240,616.96,a,1,2.5673,,864.9181,865.1177,,,,,,,,29,164,120,-122,68,-215,16,-163,208,-176,-76,-165,-118,-78,-72,174,-19,78,-128,161,-119,112,163,174,22,90,360,90,270,90,180,180,270,90,180,180,,,,,,,,,,,865.1177,865.1183,,0,88,88,88,1,2,repeated,,,,,,,,,,,,,,,,,,,,,,,,,,,,,,,,,,,,,,,,,,,,,,,,,
,,6,10,${e://Field/PROLIFIC_PID,F,18,2023-11-03_01h04.09.355,MouseEye_CC,2023.2.2,Win32,60.41565974,1.28,,,1920,1080,43.637,5.05,"151.34, 363.21, 352.85, 197.05, 314.93, 377.3, 351.45",873.41,7.616866683,38.46517675,27.83653633,Passed,128.8583421,,,,,,,,,,,,,,,,,,,,,training,6,10,0,left,a,,,,,865.1192,865.8009,35.84,0,5,1,0,0,0.6814,fixationPoint,865.801,865.9004,865.9005,868.6664,35.84,10240,616.96,a,1,2.7339,,868.6665,868.8663,,,,,,,,72,-165,-118,208,18,26,175,69,114,-74,22,-28,28,-122,68,31,-162,64,-76,168,-163,-78,-72,-117,-218,180,360,270,270,90,90,360,270,360,360,360,,,,,,,,,,,868.8664,868.8667,,0,89,89,89,1,10,novel,,,,,,,,,,,,,,,,,,,,,,,,,,,,,,,,,,,,,,,,,,,,,,,,,
,,6,10,${e://Field/PROLIFIC_PID,F,18,2023-11-03_01h04.09.355,MouseEye_CC,2023.2.2,Win32,60.41565974,1.28,,,1920,1080,43.637,5.05,"151.34, 363.21, 352.85, 197.05, 314.93, 377.3, 351.45",873.41,7.616866683,38.46517675,27.83653633,Passed,128.8583421,,,,,,,,,,,,,,,,,,,,,training,6,11,180,right,s,,,,,868.8679,869.5494,35.84,0,5,1,0,0,0.6813,fixationPoint,869.5495,869.6493,869.6493,871.4322,35.84,10240,616.96,s,1,1.7553,,871.4323,871.6325,,,,,,,,13,-115,168,21,208,112,72,212,167,-64,-171,-221,-28,-79,-126,161,-64,26,-208,214,-112,-27,122,-29,175,360,360,180,90,180,90,90,270,90,360,90,,,,,,,,,,,871.6325,871.6329,,0,90,90,90,1,15,novel,,,,,,,,,,,,,,,,,,,,,,,,,,,,,,,,,,,,,,,,,,,,,,,,,
,,6,10,${e://Field/PROLIFIC_PID,F,18,2023-11-03_01h04.09.355,MouseEye_CC,2023.2.2,Win32,60.41565974,1.28,,,1920,1080,43.637,5.05,"151.34, 363.21, 352.85, 197.05, 314.93, 377.3, 351.45",873.41,7.616866683,38.46517675,27.83653633,Passed,128.8583421,,,,,,,,,,,,,,,,,,,,,training,6,12,180,right,s,,,,,871.634,873.0834,35.84,0,5,1,0,0,1.4491,fixationPoint,873.0836,873.1814,873.1815,878.5465,35.84,10240,616.96,s,1,5.3331,,878.5468,878.7464,,,,,,,,76,20,-128,174,22,208,18,68,68,-115,168,-17,217,-216,116,-214,-220,-77,-31,-173,-216,223,-27,80,-219,360,270,360,360,360,360,180,180,90,360,270,,,,,,,,,,,878.7466,878.747,,0,91,91,91,1,11,novel,,,,,,,,,,,,,,,,,,,,,,,,,,,,,,,,,,,,,,,,,,,,,,,,,
,,6,10,${e://Field/PROLIFIC_PID,F,18,2023-11-03_01h04.09.355,MouseEye_CC,2023.2.2,Win32,60.41565974,1.28,,,1920,1080,43.637,5.05,"151.34, 363.21, 352.85, 197.05, 314.93, 377.3, 351.45",873.41,7.616866683,38.46517675,27.83653633,Passed,128.8583421,,,,,,,,,,,,,,,,,,,,,training,6,13,180,right,s,,,,,878.7483,881.1354,35.84,0,5,1,0,0,2.3867,fixationPoint,881.1354,881.2286,881.2286,882.9283,35.84,10240,616.96,s,1,1.6691,,882.9285,883.1281,,,,,,,,6,21,208,-65,70,-209,74,-75,224,-176,-76,-117,-218,-24,-224,28,-16,20,-128,31,-162,30,126,72,30,180,270,270,90,270,90,90,90,180,360,360,,,,,,,,,,,883.1282,883.1285,,0,92,92,92,1,13,novel,,,,,,,,,,,,,,,,,,,,,,,,,,,,,,,,,,,,,,,,,,,,,,,,,
,,6,10,${e://Field/PROLIFIC_PID,F,18,2023-11-03_01h04.09.355,MouseEye_CC,2023.2.2,Win32,60.41565974,1.28,,,1920,1080,43.637,5.05,"151.34, 363.21, 352.85, 197.05, 314.93, 377.3, 351.45",873.41,7.616866683,38.46517675,27.83653633,Passed,128.8583421,,,,,,,,,,,,,,,,,,,,,training,6,14,0,left,a,,,,,883.1296,884.5277,35.84,0,5,1,0,0,1.398,fixationPoint,884.5279,884.6276,884.6278,886.0442,35.84,10240,616.96,a,1,1.3851,,886.0443,886.2439,,,,,,,,27,69,114,-68,124,-167,28,-173,65,-121,-21,-165,-118,-24,-224,168,-163,124,-118,116,-163,21,208,128,113,180,270,270,180,90,90,180,180,180,270,90,,,,,,,,,,,886.2441,886.2445,,0,93,93,93,1,1,repeated,,,,,,,,,,,,,,,,,,,,,,,,,,,,,,,,,,,,,,,,,,,,,,,,,
,,6,10,${e://Field/PROLIFIC_PID,F,18,2023-11-03_01h04.09.355,MouseEye_CC,2023.2.2,Win32,60.41565974,1.28,,,1920,1080,43.637,5.05,"151.34, 363.21, 352.85, 197.05, 314.93, 377.3, 351.45",873.41,7.616866683,38.46517675,27.83653633,Passed,128.8583421,,,,,,,,,,,,,,,,,,,,,training,6,15,0,left,a,,,,,886.2456,886.9438,35.84,0,5,1,0,0,0.6979,fixationPoint,886.9439,887.0434,887.0435,888.0267,35.84,10240,616.96,a,1,0.9515,,888.0268,888.2264,,,,,,,,14,-73,163,125,208,69,114,112,163,-122,-165,-78,-218,-117,-218,20,-128,216,-69,114,-78,-128,217,-209,74,180,90,180,270,360,360,180,180,90,180,270,,,,,,,,,,,888.2265,888.2269,,0,94,94,94,1,4,repeated,,,,,,,,,,,,,,,,,,,,,,,,,,,,,,,,,,,,,,,,,,,,,,,,,
,,6,10,${e://Field/PROLIFIC_PID,F,18,2023-11-03_01h04.09.355,MouseEye_CC,2023.2.2,Win32,60.41565974,1.28,,,1920,1080,43.637,5.05,"151.34, 363.21, 352.85, 197.05, 314.93, 377.3, 351.45",873.41,7.616866683,38.46517675,27.83653633,Passed,128.8583421,,,,,,,,,,,,,,,,,,,,,training,6,16,0,left,a,,,,,888.2278,889.526,35.84,0,5,1,0,0,1.2978,fixationPoint,889.5261,889.6261,889.6261,892.3813,35.84,10240,616.96,a,1,2.733,,892.3814,892.5751,,,,,,,,30,217,124,-68,124,-216,116,-215,16,-160,-168,-215,-119,-216,-65,216,-216,26,-208,64,-76,17,74,68,222,360,180,270,180,270,90,90,270,90,90,180,,,,,,,,,,,892.5753,895.5241,space,0,95,95,95,1,14,novel,2.9244,,,,,,,,,,,,,,,,,,,,,,,,,,,,,,,,,,,,,,,,,,,,,,,,
,,6,10,${e://Field/PROLIFIC_PID,F,18,2023-11-03_01h04.09.355,MouseEye_CC,2023.2.2,Win32,60.41565974,1.28,,,1920,1080,43.637,5.05,"151.34, 363.21, 352.85, 197.05, 314.93, 377.3, 351.45",873.41,7.616866683,38.46517675,27.83653633,Passed,128.8583421,,,,,,,,,,,,,,,,,,,,,training,7,1,0,left,a,,,,,895.5248,898.8906,35.84,0,5,1,0,0,3.3654,fixationPoint,898.8908,898.9891,898.9891,901.0388,35.84,10240,616.96,a,1,2.0178,,901.0389,901.2443,,,,,,,,74,-79,-126,17,74,208,18,68,222,-115,168,-29,175,-73,163,216,-69,161,-64,114,-78,-116,-72,-117,-218,180,180,360,180,270,360,360,270,90,180,270,,,,,,,,,,,901.2443,901.2456,,0,96,96,96,1,9,novel,,,,,,,,,,,,,,,,,,,,,,,,,,,,,,,,,,,,,,,,,,,,,,,,,
,,6,10,${e://Field/PROLIFIC_PID,F,18,2023-11-03_01h04.09.355,MouseEye_CC,2023.2.2,Win32,60.41565974,1.28,,,1920,1080,43.637,5.05,"151.34, 363.21, 352.85, 197.05, 314.93, 377.3, 351.45",873.41,7.616866683,38.46517675,27.83653633,Passed,128.8583421,,,,,,,,,,,,,,,,,,,,,training,7,2,180,right,s,,,,,901.246,901.8891,35.84,0,5,1,0,0,0.6429,fixationPoint,901.8893,901.9884,901.9885,906.6871,35.84,10240,616.96,s,1,4.6673,,906.6872,906.8868,,,,,,,,25,-27,122,128,113,112,72,65,164,-78,-218,-221,-28,-160,-168,27,-75,174,-19,26,-208,-211,215,-213,175,270,90,180,360,90,270,90,270,180,270,180,,,,,,,,,,,906.8868,906.8871,,0,97,97,97,1,3,repeated,,,,,,,,,,,,,,,,,,,,,,,,,,,,,,,,,,,,,,,,,,,,,,,,,
,,6,10,${e://Field/PROLIFIC_PID,F,18,2023-11-03_01h04.09.355,MouseEye_CC,2023.2.2,Win32,60.41565974,1.28,,,1920,1080,43.637,5.05,"151.34, 363.21, 352.85, 197.05, 314.93, 377.3, 351.45",873.41,7.616866683,38.46517675,27.83653633,Passed,128.8583421,,,,,,,,,,,,,,,,,,,,,training,7,3,0,left,a,,,,,906.8877,907.953,35.84,0,5,1,0,0,1.0649,fixationPoint,907.9531,908.053,908.0531,911.9687,35.84,10240,616.96,a,1,3.8846,,911.9689,912.1682,,,,,,,,14,-73,163,125,208,69,114,112,163,-122,-165,-78,-218,-117,-218,20,-128,216,-69,114,-78,-128,217,-209,74,270,360,90,90,90,270,90,180,180,180,360,,,,,,,,,,,912.1683,912.1687,,0,98,98,98,1,4,repeated,,,,,,,,,,,,,,,,,,,,,,,,,,,,,,,,,,,,,,,,,,,,,,,,,
,,6,10,${e://Field/PROLIFIC_PID,F,18,2023-11-03_01h04.09.355,MouseEye_CC,2023.2.2,Win32,60.41565974,1.28,,,1920,1080,43.637,5.05,"151.34, 363.21, 352.85, 197.05, 314.93, 377.3, 351.45",873.41,7.616866683,38.46517675,27.83653633,Passed,128.8583421,,,,,,,,,,,,,,,,,,,,,training,7,4,0,left,a,,,,,912.1695,914.1346,35.84,0,5,1,0,0,1.9648,fixationPoint,914.1348,914.234,914.2341,916.7237,35.84,10240,616.96,a,1,2.4668,,916.7238,916.9166,,,,,,,,88,116,-163,170,167,68,68,128,24,-32,67,-119,124,-164,117,-117,-218,-216,-65,-121,-21,80,-219,214,-112,270,90,180,270,90,270,270,270,360,90,270,,,,,,,,,,,916.9166,916.9169,,0,99,99,99,1,7,repeated,,,,,,,,,,,,,,,,,,,,,,,,,,,,,,,,,,,,,,,,,,,,,,,,,
,,6,10,${e://Field/PROLIFIC_PID,F,18,2023-11-03_01h04.09.355,MouseEye_CC,2023.2.2,Win32,60.41565974,1.28,,,1920,1080,43.637,5.05,"151.34, 363.21, 352.85, 197.05, 314.93, 377.3, 351.45",873.41,7.616866683,38.46517675,27.83653633,Passed,128.8583421,,,,,,,,,,,,,,,,,,,,,training,7,5,180,right,s,,,,,916.9176,919.9656,35.84,0,5,1,0,0,3.0479,fixationPoint,919.9657,920.0672,920.0673,923.9476,35.84,10240,616.96,s,1,3.8646,,923.9476,924.1476,,,,,,,,72,-165,-118,21,208,170,167,125,208,-128,217,-122,68,-73,163,216,-69,76,-169,114,-78,-176,-76,-78,-72,270,90,270,360,180,180,270,180,360,180,180,,,,,,,,,,,924.1478,924.148,,0,100,100,100,1,10,novel,,,,,,,,,,,,,,,,,,,,,,,,,,,,,,,,,,,,,,,,,,,,,,,,,
,,6,10,${e://Field/PROLIFIC_PID,F,18,2023-11-03_01h04.09.355,MouseEye_CC,2023.2.2,Win32,60.41565974,1.28,,,1920,1080,43.637,5.05,"151.34, 363.21, 352.85, 197.05, 314.93, 377.3, 351.45",873.41,7.616866683,38.46517675,27.83653633,Passed,128.8583421,,,,,,,,,,,,,,,,,,,,,training,7,6,180,right,s,,,,,924.1489,925.3139,35.84,0,5,1,0,0,1.1646,fixationPoint,925.314,925.4134,925.4134,927.4631,35.84,10240,616.96,s,1,2.0353,,927.4632,927.6631,,,,,,,,95,-24,-224,208,18,18,16,65,164,-32,67,-209,74,-75,224,125,-224,215,-175,31,-162,-160,-168,-221,-28,270,270,270,180,360,270,180,360,360,270,360,,,,,,,,,,,927.6632,927.6638,,0,101,101,101,1,5,repeated,,,,,,,,,,,,,,,,,,,,,,,,,,,,,,,,,,,,,,,,,,,,,,,,,
,,6,10,${e://Field/PROLIFIC_PID,F,18,2023-11-03_01h04.09.355,MouseEye_CC,2023.2.2,Win32,60.41565974,1.28,,,1920,1080,43.637,5.05,"151.34, 363.21, 352.85, 197.05, 314.93, 377.3, 351.45",873.41,7.616866683,38.46517675,27.83653633,Passed,128.8583421,,,,,,,,,,,,,,,,,,,,,training,7,7,0,left,a,,,,,927.6645,928.9626,35.84,0,5,1,0,0,1.2979,fixationPoint,928.9628,929.0624,929.0626,931.2618,35.84,10240,616.96,a,1,2.1852,,931.2619,931.4615,,,,,,,,71,-215,-119,212,215,26,175,170,167,-74,22,-65,70,-213,175,72,-21,125,-224,223,-27,-121,-21,-218,-174,270,360,90,360,270,90,270,360,360,90,90,,,,,,,,,,,931.4616,931.4617,,0,102,102,102,1,6,repeated,,,,,,,,,,,,,,,,,,,,,,,,,,,,,,,,,,,,,,,,,,,,,,,,,
,,6,10,${e://Field/PROLIFIC_PID,F,18,2023-11-03_01h04.09.355,MouseEye_CC,2023.2.2,Win32,60.41565974,1.28,,,1920,1080,43.637,5.05,"151.34, 363.21, 352.85, 197.05, 314.93, 377.3, 351.45",873.41,7.616866683,38.46517675,27.83653633,Passed,128.8583421,,,,,,,,,,,,,,,,,,,,,training,7,8,180,right,s,,,,,931.4622,932.6947,35.84,0,5,1,0,0,1.2323,fixationPoint,932.6948,932.7943,932.7944,938.3758,35.84,10240,616.96,s,1,5.5648,,938.3758,938.5761,,,,,,,,76,20,-128,128,113,112,163,18,16,-173,65,-28,28,-68,124,-218,-174,-221,-28,-160,-168,172,-224,174,-19,270,180,90,270,180,270,360,360,90,270,360,,,,,,,,,,,938.5762,938.5764,,0,103,103,103,1,11,novel,,,,,,,,,,,,,,,,,,,,,,,,,,,,,,,,,,,,,,,,,,,,,,,,,
,,6,10,${e://Field/PROLIFIC_PID,F,18,2023-11-03_01h04.09.355,MouseEye_CC,2023.2.2,Win32,60.41565974,1.28,,,1920,1080,43.637,5.05,"151.34, 363.21, 352.85, 197.05, 314.93, 377.3, 351.45",873.41,7.616866683,38.46517675,27.83653633,Passed,128.8583421,,,,,,,,,,,,,,,,,,,,,training,7,9,180,right,s,,,,,938.5771,939.7589,35.84,0,5,1,0,0,1.1815,fixationPoint,939.7591,939.8586,939.8586,941.975,35.84,10240,616.96,s,1,2.1006,,941.9752,942.1749,,,,,,,,27,69,114,-68,124,-167,28,-173,65,-121,-21,-165,-118,-24,-224,168,-163,124,-118,116,-163,21,208,128,113,270,90,360,360,270,180,270,360,90,270,270,,,,,,,,,,,942.1749,942.1752,,0,104,104,104,1,1,repeated,,,,,,,,,,,,,,,,,,,,,,,,,,,,,,,,,,,,,,,,,,,,,,,,,
,,6,10,${e://Field/PROLIFIC_PID,F,18,2023-11-03_01h04.09.355,MouseEye_CC,2023.2.2,Win32,60.41565974,1.28,,,1920,1080,43.637,5.05,"151.34, 363.21, 352.85, 197.05, 314.93, 377.3, 351.45",873.41,7.616866683,38.46517675,27.83653633,Passed,128.8583421,,,,,,,,,,,,,,,,,,,,,training,7,10,0,left,a,,,,,942.1761,943.4577,35.84,0,5,1,0,0,1.2815,fixationPoint,943.4578,943.5575,943.5576,944.6405,35.84,10240,616.96,a,1,1.0745,,944.6406,944.8406,,,,,,,,13,-115,168,212,167,21,208,112,72,-30,-164,-214,-220,-160,-168,114,-78,161,-119,174,-19,-122,68,-73,163,90,180,180,270,180,90,90,360,360,360,360,,,,,,,,,,,944.8407,944.841,,0,105,105,105,1,15,novel,,,,,,,,,,,,,,,,,,,,,,,,,,,,,,,,,,,,,,,,,,,,,,,,,
,,6,10,${e://Field/PROLIFIC_PID,F,18,2023-11-03_01h04.09.355,MouseEye_CC,2023.2.2,Win32,60.41565974,1.28,,,1920,1080,43.637,5.05,"151.34, 363.21, 352.85, 197.05, 314.93, 377.3, 351.45",873.41,7.616866683,38.46517675,27.83653633,Passed,128.8583421,,,,,,,,,,,,,,,,,,,,,training,7,11,180,right,s,,,,,944.8417,945.5238,35.84,0,5,1,0,0,0.6818,fixationPoint,945.5239,945.6236,945.6237,946.8561,35.84,10240,616.96,s,1,1.2129,,946.8561,947.0565,,,,,,,,6,21,208,-215,16,-115,168,-120,28,-218,-174,-160,-168,-173,-216,168,-163,119,-23,125,-224,170,167,69,114,180,180,90,180,360,360,270,180,360,90,180,,,,,,,,,,,947.0566,947.0569,,0,106,106,106,1,13,novel,,,,,,,,,,,,,,,,,,,,,,,,,,,,,,,,,,,,,,,,,,,,,,,,,
,,6,10,${e://Field/PROLIFIC_PID,F,18,2023-11-03_01h04.09.355,MouseEye_CC,2023.2.2,Win32,60.41565974,1.28,,,1920,1080,43.637,5.05,"151.34, 363.21, 352.85, 197.05, 314.93, 377.3, 351.45",873.41,7.616866683,38.46517675,27.83653633,Passed,128.8583421,,,,,,,,,,,,,,,,,,,,,training,7,12,0,left,a,,,,,947.0577,950.4386,35.84,0,5,1,0,0,3.3806,fixationPoint,950.4387,950.5385,950.5385,953.6544,35.84,10240,616.96,a,1,3.0999,,953.6546,953.8541,,,,,,,,30,217,124,-68,124,-128,217,-163,208,-218,-174,-221,-28,-214,-220,119,-23,161,-119,161,-64,174,22,174,75,90,270,180,180,180,360,90,270,360,180,360,,,,,,,,,,,953.8542,953.8545,,0,107,107,107,1,14,novel,,,,,,,,,,,,,,,,,,,,,,,,,,,,,,,,,,,,,,,,,,,,,,,,,
,,6,10,${e://Field/PROLIFIC_PID,F,18,2023-11-03_01h04.09.355,MouseEye_CC,2023.2.2,Win32,60.41565974,1.28,,,1920,1080,43.637,5.05,"151.34, 363.21, 352.85, 197.05, 314.93, 377.3, 351.45",873.41,7.616866683,38.46517675,27.83653633,Passed,128.8583421,,,,,,,,,,,,,,,,,,,,,training,7,13,0,left,a,,,,,953.8552,954.6372,35.84,0,5,1,0,0,0.7818,fixationPoint,954.6372,954.7373,954.7374,957.6363,35.84,10240,616.96,a,1,2.8674,,957.6365,957.8363,,,,,,,,87,76,-169,18,16,21,208,65,164,-68,124,-27,122,-29,175,-117,-218,-216,-65,-221,-28,116,-163,26,-208,90,180,270,360,360,90,180,270,180,90,360,,,,,,,,,,,957.8364,957.8368,,0,108,108,108,1,12,novel,,,,,,,,,,,,,,,,,,,,,,,,,,,,,,,,,,,,,,,,,,,,,,,,,
,,6,10,${e://Field/PROLIFIC_PID,F,18,2023-11-03_01h04.09.355,MouseEye_CC,2023.2.2,Win32,60.41565974,1.28,,,1920,1080,43.637,5.05,"151.34, 363.21, 352.85, 197.05, 314.93, 377.3, 351.45",873.41,7.616866683,38.46517675,27.83653633,Passed,128.8583421,,,,,,,,,,,,,,,,,,,,,training,7,14,180,right,s,,,,,957.8379,959.1525,35.84,0,5,1,0,0,1.3144,fixationPoint,959.1526,959.2519,959.2519,962.7347,35.84,10240,616.96,s,1,3.4514,,962.7349,962.9342,,,,,,,,29,164,120,-122,68,-215,16,-163,208,-176,-76,-165,-118,-78,-72,174,-19,78,-128,161,-119,112,163,174,22,90,360,180,360,90,270,180,90,180,360,90,,,,,,,,,,,962.9343,962.9346,,0,109,109,109,1,2,repeated,,,,,,,,,,,,,,,,,,,,,,,,,,,,,,,,,,,,,,,,,,,,,,,,,
,,6,10,${e://Field/PROLIFIC_PID,F,18,2023-11-03_01h04.09.355,MouseEye_CC,2023.2.2,Win32,60.41565974,1.28,,,1920,1080,43.637,5.05,"151.34, 363.21, 352.85, 197.05, 314.93, 377.3, 351.45",873.41,7.616866683,38.46517675,27.83653633,Passed,128.8583421,,,,,,,,,,,,,,,,,,,,,training,7,15,0,left,a,,,,,962.9351,964.3173,35.84,0,5,1,0,0,1.3819,fixationPoint,964.3174,964.417,964.417,968.2329,35.84,10240,616.96,a,1,3.8008,,968.2331,968.4326,,,,,,,,33,-122,68,212,67,68,68,112,72,-214,-220,-64,-171,-160,-168,216,-69,124,-118,216,-216,-17,217,-167,28,270,180,270,360,270,90,90,180,270,360,270,,,,,,,,,,,968.4327,968.4331,,0,110,110,110,1,16,novel,,,,,,,,,,,,,,,,,,,,,,,,,,,,,,,,,,,,,,,,,,,,,,,,,
,,6,10,${e://Field/PROLIFIC_PID,F,18,2023-11-03_01h04.09.355,MouseEye_CC,2023.2.2,Win32,60.41565974,1.28,,,1920,1080,43.637,5.05,"151.34, 363.21, 352.85, 197.05, 314.93, 377.3, 351.45",873.41,7.616866683,38.46517675,27.83653633,Passed,128.8583421,,,,,,,,,,,,,,,,,,,,,training,7,16,180,right,s,,,,,968.434,969.7323,35.84,0,5,1,0,0,1.298,fixationPoint,969.7324,969.832,969.832,972.9478,35.84,10240,616.96,s,1,3.0909,,972.9478,973.1477,,,,,,,,68,114,-78,212,215,18,16,174,75,-163,208,-28,28,-75,224,-221,-28,-176,-19,-116,-116,172,-224,80,-219,270,360,90,360,360,270,180,360,270,180,180,,,,,,,,,,,973.1477,984.2771,space,0,111,111,111,1,8,repeated,11.0992,,,,,,,,,,,,,,,,,,,,,,,,,,,,,,,,,,,,,,,,,,,,,,,,
,,6,10,${e://Field/PROLIFIC_PID,F,18,2023-11-03_01h04.09.355,MouseEye_CC,2023.2.2,Win32,60.41565974,1.28,,,1920,1080,43.637,5.05,"151.34, 363.21, 352.85, 197.05, 314.93, 377.3, 351.45",873.41,7.616866683,38.46517675,27.83653633,Passed,128.8583421,,,,,,,,,,,,,,,,,,,,,training,8,1,180,right,s,,,,,984.2778,985.9265,35.84,-7,-1,1,0,0,1.6485,fixationPoint,985.9267,986.0262,986.0262,992.7645,35.84,10240,616.96,s,1,6.7303,,992.7646,992.9577,,,,,,,,87,76,-169,217,124,68,68,208,18,-215,16,-17,217,-28,28,-78,-72,-24,-224,-25,-115,72,-21,119,-23,180,90,360,180,270,360,270,360,270,360,360,,,,,,,,,,,992.9578,992.9599,,0,112,112,112,1,12,novel,,,,,,,,,,,,,,,,,,,,,,,,,,,,,,,,,,,,,,,,,,,,,,,,,
,,6,10,${e://Field/PROLIFIC_PID,F,18,2023-11-03_01h04.09.355,MouseEye_CC,2023.2.2,Win32,60.41565974,1.28,,,1920,1080,43.637,5.05,"151.34, 363.21, 352.85, 197.05, 314.93, 377.3, 351.45",873.41,7.616866683,38.46517675,27.83653633,Passed,128.8583421,,,,,,,,,,,,,,,,,,,,,training,8,2,180,right,s,,,,,992.9608,994.3073,35.84,-7,-1,1,0,0,1.3462,fixationPoint,994.3074,994.4069,994.407,995.5566,35.84,10240,616.96,s,1,1.1314,,995.5566,995.7565,,,,,,,,71,-215,-119,212,215,26,175,170,167,-74,22,-65,70,-213,175,72,-21,125,-224,223,-27,-121,-21,-218,-174,180,360,90,360,90,360,270,90,180,270,360,,,,,,,,,,,995.7584,995.7588,,0,113,113,113,1,6,repeated,,,,,,,,,,,,,,,,,,,,,,,,,,,,,,,,,,,,,,,,,,,,,,,,,
,,6,10,${e://Field/PROLIFIC_PID,F,18,2023-11-03_01h04.09.355,MouseEye_CC,2023.2.2,Win32,60.41565974,1.28,,,1920,1080,43.637,5.05,"151.34, 363.21, 352.85, 197.05, 314.93, 377.3, 351.45",873.41,7.616866683,38.46517675,27.83653633,Passed,128.8583421,,,,,,,,,,,,,,,,,,,,,training,8,3,0,left,a,,,,,995.7598,996.573,35.84,-7,-1,1,0,0,0.8131,fixationPoint,996.5731,996.6729,996.673,1000.0053,35.84,10240,616.96,a,1,3.3238,,1000.0054,1000.205,,,,,,,,29,164,120,-122,68,-215,16,-163,208,-176,-76,-165,-118,-78,-72,174,-19,78,-128,161,-119,112,163,174,22,360,180,360,180,270,270,360,90,360,270,270,,,,,,,,,,,1000.2051,1000.2053,,0,114,114,114,1,2,repeated,,,,,,,,,,,,,,,,,,,,,,,,,,,,,,,,,,,,,,,,,,,,,,,,,
,,6,10,${e://Field/PROLIFIC_PID,F,18,2023-11-03_01h04.09.355,MouseEye_CC,2023.2.2,Win32,60.41565974,1.28,,,1920,1080,43.637,5.05,"151.34, 363.21, 352.85, 197.05, 314.93, 377.3, 351.45",873.41,7.616866683,38.46517675,27.83653633,Passed,128.8583421,,,,,,,,,,,,,,,,,,,,,training,8,4,0,left,a,,,,,1000.206,1001.7606,35.84,-7,-1,1,0,0,1.5544,fixationPoint,1001.7606,1001.8544,1001.8545,1003.0378,35.84,10240,616.96,a,1,1.1518,,1003.038,1003.2371,,,,,,,,27,69,114,-68,124,-167,28,-173,65,-121,-21,-165,-118,-24,-224,168,-163,124,-118,116,-163,21,208,128,113,90,90,180,180,270,180,270,360,180,270,360,,,,,,,,,,,1003.2372,1003.2373,,0,115,115,115,1,1,repeated,,,,,,,,,,,,,,,,,,,,,,,,,,,,,,,,,,,,,,,,,,,,,,,,,
,,6,10,${e://Field/PROLIFIC_PID,F,18,2023-11-03_01h04.09.355,MouseEye_CC,2023.2.2,Win32,60.41565974,1.28,,,1920,1080,43.637,5.05,"151.34, 363.21, 352.85, 197.05, 314.93, 377.3, 351.45",873.41,7.616866683,38.46517675,27.83653633,Passed,128.8583421,,,,,,,,,,,,,,,,,,,,,training,8,5,0,left,a,,,,,1003.238,1004.4705,35.84,-7,-1,1,0,0,1.2322,fixationPoint,1004.4707,1004.5703,1004.5703,1005.5032,35.84,10240,616.96,a,1,0.9001,,1005.5033,1005.7033,,,,,,,,25,-27,122,128,113,112,72,65,164,-78,-218,-221,-28,-160,-168,27,-75,174,-19,26,-208,-211,215,-213,175,360,90,270,360,360,90,360,270,90,360,90,,,,,,,,,,,1005.7034,1005.7037,,0,116,116,116,1,3,repeated,,,,,,,,,,,,,,,,,,,,,,,,,,,,,,,,,,,,,,,,,,,,,,,,,
,,6,10,${e://Field/PROLIFIC_PID,F,18,2023-11-03_01h04.09.355,MouseEye_CC,2023.2.2,Win32,60.41565974,1.28,,,1920,1080,43.637,5.05,"151.34, 363.21, 352.85, 197.05, 314.93, 377.3, 351.45",873.41,7.616866683,38.46517675,27.83653633,Passed,128.8583421,,,,,,,,,,,,,,,,,,,,,training,8,6,180,right,s,,,,,1005.7046,1007.5363,35.84,-7,-1,1,0,0,1.8312,fixationPoint,1007.5364,1007.6359,1007.6359,1008.5026,35.84,10240,616.96,s,1,0.8407,,1008.5027,1008.7024,,,,,,,,14,-73,163,125,208,69,114,112,163,-122,-165,-78,-218,-117,-218,20,-128,216,-69,114,-78,-128,217,-209,74,90,270,180,270,90,180,360,270,180,180,180,,,,,,,,,,,1008.7025,1008.7029,,0,117,117,117,1,4,repeated,,,,,,,,,,,,,,,,,,,,,,,,,,,,,,,,,,,,,,,,,,,,,,,,,
