InstrStartPage.started,InstrStartPage.stopped,participant,designid,prolificid,Gender,Age,date,expName,psychopyVersion,OS,frameRate,ratio_monitor2CRT,VirtualChinrest.started,VirtualChinrest.stopped,xRes,yRes,viewingdistance_cm,pixeldensity_px2mm,BallPos,squarePos,mm2degree,px2degree,CRT_px2degree,PassVirtualChinrest,foveaRadius_inPixel,InstrRedo.started,InstrRedo.stopped,VirtualChinrest_Redo.started,VirtualChinrest_Redo.stopped,Instruction1.started,Instruction1.stopped,keyPractice.started,keyPractice.stopped,key_keyprac.keys,key_keyprac.corr,key_keyprac.rt,key_keyprac.duration,keyPracFeedback.started,keyPracFeedback.stopped,keyPracLoop.thisRepN,keyPracLoop.thisTrialN,keyPracLoop.thisN,keyPracLoop.thisIndex,keyPracLoop.ran,phase,block,trial,targOrientdeg,targOrient,corrAnswer,Instruction2.started,Instruction2.stopped,Instruction3.started,Instruction3.stopped,fixation.started,fixation.stopped,fixationSize,mouseintial.x,mouseintial.y,mouseintial.leftButton,mouseintial.midButton,mouseintial.rightButton,mouseintial.time,mouseintial.clicked_name,greenFixation.started,greenFixation.stopped,trial.started,trial.stopped,letterSize,apertureSize,searchsize,key_respMain.keys,key_respMain.corr,key_respMain.rt,key_respMain.duration,trialFeedback.started,trialFeedback.stopped,trialsPractice.thisRepN,trialsPractice.thisTrialN,trialsPractice.thisN,trialsPractice.thisIndex,trialsPractice.ran,targetQuad,Tcondition,targcell,tlocx,tlocy,d1x,d1y,d2x,d2y,d3x,d3y,d4x,d4y,d5x,d5y,d6x,d6y,d7x,d7y,d8x,d8y,d9x,d9y,d10x,d10y,d11x,d11y,d1Orient,d2Orient,d3Orient,d4Orient,d5Orient,d6Orient,d7Orient,d8Orient,d9Orient,d10Orient,d11Orient,CheckInstr.started,CheckInstr.stopped,key_checkInstr.keys,key_checkInstr.corr,key_checkInstr.rt,key_checkInstr.duration,CheckInstr_FB.started,CheckInstr_FB.stopped,Instruction_MainExp.started,Instruction_MainExp.stopped,TakeABreak.started,TakeABreak.stopped,key_respBreak.keys,trials.thisRepN,trials.thisTrialN,trials.thisN,trials.thisIndex,trials.ran,configurationNumber,CCCondition,key_respBreak.rt,key_respBreak.duration,displayTestingPhase.started,displayTestingPhase.stopped,key_respTesting.keys,key_respTesting.corr,key_respTesting.rt,key_respTesting.duration,TakeABreak2.started,TakeABreak2.stopped,key_RespBreak.keys,Testingtrials.thisRepN,Testingtrials.thisTrialN,Testingtrials.thisN,Testingtrials.thisIndex,Testingtrials.ran,key_RespBreak.rt,key_RespBreak.duration,RecogQuestion.started,RecogQuestion.stopped,key_AnswerQues.keys,key_AnswerQues.rt,key_AnswerQues.duration,Disclose.started,Disclose.stopped,InstrRT.started,InstrRT.stopped,fixation_RT.started,fixation_RT.stopped,mouseInitial.x,mouseInitial.y,mouseInitial.leftButton,mouseInitial.midButton,mouseInitial.rightButton,mouseInitial.time,mouseInitial.clicked_name,displayRT.started,displayRT.stopped,key_respRT.keys,key_respRT.corr,key_respRT.rt,key_respRT.duration,RTtrials.thisRepN,RTtrials.thisTrialN,RTtrials.thisN,RTtrials.thisIndex,RTtrials.ran,EndOfExperiment.started,EndOfExperiment.stopped
0.0001,9.4055,7,7,${e://Field/PROLIFIC_PID,F,18,2023-11-03_05h29.19.306,MouseEye_CC,2023.2.2,Win32,59.95203837,1,,,,,,,,,,,,,,,,,,,,,,,,,,,,,,,,,,,,,,,,,,,,,,,,,,,,,,,,,,,,,,,,,,,,,,,,,,,,,,,,,,,,,,,,,,,,,,,,,,,,,,,,,,,,,,,,,,,,,,,,,,,,,,,,,,,,,,,,,,,,,,,,,,,,,,,,,,,,,,,,,,,,,,,,,,,,,,,,,
,,7,7,${e://Field/PROLIFIC_PID,F,18,2023-11-03_05h29.19.306,MouseEye_CC,2023.2.2,Win32,59.95203837,1.256545133,9.4057,294.6209,1707,960,65.701,3.05,"41.72, 85.94, 33.86, 29.91, 32.64, 25.58, 21.92",513.83,11.46815221,34.97786424,27.83653633,Passed,117.1758452,,,,,,,,,,,,,,,,,,,,,,,,,,,,,,,,,,,,,,,,,,,,,,,,,,,,,,,,,,,,,,,,,,,,,,,,,,,,,,,,,,,,,,,,,,,,,,,,,,,,,,,,,,,,,,,,,,,,,,,,,,,,,,,,,,,,,,,,,,,,,,,,,,,,,,,,,,,,,,,,,,,,
,,7,7,${e://Field/PROLIFIC_PID,F,18,2023-11-03_05h29.19.306,MouseEye_CC,2023.2.2,Win32,59.95203837,1.256545133,,,1707,960,65.701,3.05,"41.72, 85.94, 33.86, 29.91, 32.64, 25.58, 21.92",513.83,11.46815221,34.97786424,27.83653633,Passed,117.1758452,294.6211,294.6232,,,,,,,,,,,,,,,,,,,,,,,,,,,,,,,,,,,,,,,,,,,,,,,,,,,,,,,,,,,,,,,,,,,,,,,,,,,,,,,,,,,,,,,,,,,,,,,,,,,,,,,,,,,,,,,,,,,,,,,,,,,,,,,,,,,,,,,,,,,,,,,,,,,,,,,,,,,,,,,,,,
,,7,7,${e://Field/PROLIFIC_PID,F,18,2023-11-03_05h29.19.306,MouseEye_CC,2023.2.2,Win32,59.95203837,1.22361573,,,1707,960,66.373,2.94,"41.72, 85.94, 33.86, 29.91, 32.64, 25.58, 21.92",513.83,11.58545024,34.06122372,27.83653633,Passed,114.1050995,,,294.6233,462.0319,,,,,,,,,,,,,,,,,,,,,,,,,,,,,,,,,,,,,,,,,,,,,,,,,,,,,,,,,,,,,,,,,,,,,,,,,,,,,,,,,,,,,,,,,,,,,,,,,,,,,,,,,,,,,,,,,,,,,,,,,,,,,,,,,,,,,,,,,,,,,,,,,,,,,,,,,,,,,,,,
,,7,7,${e://Field/PROLIFIC_PID,F,18,2023-11-03_05h29.19.306,MouseEye_CC,2023.2.2,Win32,59.95203837,1.22361573,,,1707,960,66.373,2.94,"41.72, 85.94, 33.86, 29.91, 32.64, 25.58, 21.92",513.83,11.58545024,34.06122372,27.83653633,Passed,114.1050995,,,,,462.0321,498.7438,,,,,,,,,,,,,,,,,,,,,,,,,,,,,,,,,,,,,,,,,,,,,,,,,,,,,,,,,,,,,,,,,,,,,,,,,,,,,,,,,,,,,,,,,,,,,,,,,,,,,,,,,,,,,,,,,,,,,,,,,,,,,,,,,,,,,,,,,,,,,,,,,,,,,,,,,,,,,,
,,7,7,${e://Field/PROLIFIC_PID,F,18,2023-11-03_05h29.19.306,MouseEye_CC,2023.2.2,Win32,59.95203837,1.22361573,,,1707,960,66.373,2.94,"41.72, 85.94, 33.86, 29.91, 32.64, 25.58, 21.92",513.83,11.58545024,34.06122372,27.83653633,Passed,114.1050995,,,,,,,498.7533,500.049,a,1,0.7668,,500.049,500.5485,0,0,0,0,1,practice,1,1,0,left,a,,,,,,,,,,,,,,,,,,,,,,,,,,,,,,,,,,,,,,,,,,,,,,,,,,,,,,,,,,,,,,,,,,,,,,,,,,,,,,,,,,,,,,,,,,,,,,,,,,,,,,,,,,,,,,,,,,,,,,,,,,,,,,,,,,,,,,,,,,,
,,7,7,${e://Field/PROLIFIC_PID,F,18,2023-11-03_05h29.19.306,MouseEye_CC,2023.2.2,Win32,59.95203837,1.22361573,,,1707,960,66.373,2.94,"41.72, 85.94, 33.86, 29.91, 32.64, 25.58, 21.92",513.83,11.58545024,34.06122372,27.83653633,Passed,114.1050995,,,,,,,500.5488,501.7503,a,1,0.6852,,501.7503,502.2483,0,1,1,1,1,practice,1,2,0,left,a,,,,,,,,,,,,,,,,,,,,,,,,,,,,,,,,,,,,,,,,,,,,,,,,,,,,,,,,,,,,,,,,,,,,,,,,,,,,,,,,,,,,,,,,,,,,,,,,,,,,,,,,,,,,,,,,,,,,,,,,,,,,,,,,,,,,,,,,,,,
,,7,7,${e://Field/PROLIFIC_PID,F,18,2023-11-03_05h29.19.306,MouseEye_CC,2023.2.2,Win32,59.95203837,1.22361573,,,1707,960,66.373,2.94,"41.72, 85.94, 33.86, 29.91, 32.64, 25.58, 21.92",513.83,11.58545024,34.06122372,27.83653633,Passed,114.1050995,,,,,,,502.2486,503.4985,a,1,0.7181,,503.4986,503.9963,0,2,2,2,1,practice,1,3,0,left,a,,,,,,,,,,,,,,,,,,,,,,,,,,,,,,,,,,,,,,,,,,,,,,,,,,,,,,,,,,,,,,,,,,,,,,,,,,,,,,,,,,,,,,,,,,,,,,,,,,,,,,,,,,,,,,,,,,,,,,,,,,,,,,,,,,,,,,,,,,,
,,7,7,${e://Field/PROLIFIC_PID,F,18,2023-11-03_05h29.19.306,MouseEye_CC,2023.2.2,Win32,59.95203837,1.22361573,,,1707,960,66.373,2.94,"41.72, 85.94, 33.86, 29.91, 32.64, 25.58, 21.92",513.83,11.58545024,34.06122372,27.83653633,Passed,114.1050995,,,,,,,503.9965,505.0692,s,1,0.5528,,505.0692,505.5676,0,3,3,3,1,practice,1,4,180,right,s,,,,,,,,,,,,,,,,,,,,,,,,,,,,,,,,,,,,,,,,,,,,,,,,,,,,,,,,,,,,,,,,,,,,,,,,,,,,,,,,,,,,,,,,,,,,,,,,,,,,,,,,,,,,,,,,,,,,,,,,,,,,,,,,,,,,,,,,,,,
,,7,7,${e://Field/PROLIFIC_PID,F,18,2023-11-03_05h29.19.306,MouseEye_CC,2023.2.2,Win32,59.95203837,1.22361573,,,1707,960,66.373,2.94,"41.72, 85.94, 33.86, 29.91, 32.64, 25.58, 21.92",513.83,11.58545024,34.06122372,27.83653633,Passed,114.1050995,,,,,,,505.5678,506.7835,s,1,0.6829,,506.7835,507.2816,0,4,4,4,1,practice,1,5,180,right,s,,,,,,,,,,,,,,,,,,,,,,,,,,,,,,,,,,,,,,,,,,,,,,,,,,,,,,,,,,,,,,,,,,,,,,,,,,,,,,,,,,,,,,,,,,,,,,,,,,,,,,,,,,,,,,,,,,,,,,,,,,,,,,,,,,,,,,,,,,,
,,7,7,${e://Field/PROLIFIC_PID,F,18,2023-11-03_05h29.19.306,MouseEye_CC,2023.2.2,Win32,59.95203837,1.22361573,,,1707,960,66.373,2.94,"41.72, 85.94, 33.86, 29.91, 32.64, 25.58, 21.92",513.83,11.58545024,34.06122372,27.83653633,Passed,114.1050995,,,,,,,507.2818,508.3766,a,1,0.5669,,508.3766,508.8763,0,5,5,5,1,practice,1,6,0,left,a,,,,,,,,,,,,,,,,,,,,,,,,,,,,,,,,,,,,,,,,,,,,,,,,,,,,,,,,,,,,,,,,,,,,,,,,,,,,,,,,,,,,,,,,,,,,,,,,,,,,,,,,,,,,,,,,,,,,,,,,,,,,,,,,,,,,,,,,,,,
,,7,7,${e://Field/PROLIFIC_PID,F,18,2023-11-03_05h29.19.306,MouseEye_CC,2023.2.2,Win32,59.95203837,1.22361573,,,1707,960,66.373,2.94,"41.72, 85.94, 33.86, 29.91, 32.64, 25.58, 21.92",513.83,11.58545024,34.06122372,27.83653633,Passed,114.1050995,,,,,,,,,,,,,,,,,,,,,,,,,,508.8769,526.5598,,,,,,,,,,,,,,,,,,,,,,,,,,,,,,,,,,,,,,,,,,,,,,,,,,,,,,,,,,,,,,,,,,,,,,,,,,,,,,,,,,,,,,,,,,,,,,,,,,,,,,,,,,,,,,,,,,,,,,,,,,,,,,,,,,,,,,,,,
,,7,7,${e://Field/PROLIFIC_PID,F,18,2023-11-03_05h29.19.306,MouseEye_CC,2023.2.2,Win32,59.95203837,1.22361573,,,1707,960,66.373,2.94,"41.72, 85.94, 33.86, 29.91, 32.64, 25.58, 21.92",513.83,11.58545024,34.06122372,27.83653633,Passed,114.1050995,,,,,,,,,,,,,,,,,,,,,,,,,,,,526.5599,535.1597,,,,,,,,,,,,,,,,,,,,,,,,,,,,,,,,,,,,,,,,,,,,,,,,,,,,,,,,,,,,,,,,,,,,,,,,,,,,,,,,,,,,,,,,,,,,,,,,,,,,,,,,,,,,,,,,,,,,,,,,,,,,,,,,,,,,,,,
,,7,7,${e://Field/PROLIFIC_PID,F,18,2023-11-03_05h29.19.306,MouseEye_CC,2023.2.2,Win32,59.95203837,1.22361573,,,1707,960,66.373,2.94,"41.72, 85.94, 33.86, 29.91, 32.64, 25.58, 21.92",513.83,11.58545024,34.06122372,27.83653633,Passed,114.1050995,,,,,,,,,,,,,,,,,,,,practice,0,1,0,left,a,,,,,535.1758,544.7578,34.26124044,3.388916016,0.44442749,1,0,0,9.5818,fixationPoint,544.7579,544.8591,544.8594,551.4093,34.26124044,9788.925839,589.7827818,a,1,6.524,,551.4093,551.5997,0,0,0,0,1,4,sparse,90,217,-164,68,123,222,26,214,216,-218,159,-120,223,-110,82,-115,-130,-224,-120,-68,-219,79,-175,19,-128,90,270,360,90,270,270,180,90,90,90,270,,,,,,,,,,,,,,,,,,,,,,,,,,,,,,,,,,,,,,,,,,,,,,,,,,,,,,,,,,,,,,,,,,,,,
,,7,7,${e://Field/PROLIFIC_PID,F,18,2023-11-03_05h29.19.306,MouseEye_CC,2023.2.2,Win32,59.95203837,1.22361573,,,1707,960,66.373,2.94,"41.72, 85.94, 33.86, 29.91, 32.64, 25.58, 21.92",513.83,11.58545024,34.06122372,27.83653633,Passed,114.1050995,,,,,,,,,,,,,,,,,,,,practice,0,2,0,left,a,,,,,551.6,555.392,34.26124044,-0.166687012,2.666656494,1,0,0,3.7918,fixationPoint,555.392,555.4971,555.4972,561.1087,34.26124044,9788.925839,589.7827818,a,1,5.5787,,561.1088,561.3085,0,1,1,1,1,1,rich,39,169,66,-126,125,-169,169,-130,19,-169,-116,-125,-167,-224,-216,218,-129,171,-218,18,-208,166,26,17,170,180,90,360,270,90,90,90,270,180,180,270,,,,,,,,,,,,,,,,,,,,,,,,,,,,,,,,,,,,,,,,,,,,,,,,,,,,,,,,,,,,,,,,,,,,,
,,7,7,${e://Field/PROLIFIC_PID,F,18,2023-11-03_05h29.19.306,MouseEye_CC,2023.2.2,Win32,59.95203837,1.22361573,,,1707,960,66.373,2.94,"41.72, 85.94, 33.86, 29.91, 32.64, 25.58, 21.92",513.83,11.58545024,34.06122372,27.83653633,Passed,114.1050995,,,,,,,,,,,,,,,,,,,,practice,0,3,0,left,a,,,,,561.3089,563.2251,34.26124044,3.833312988,-2.222229004,1,0,0,1.9161,fixationPoint,563.2252,563.3251,563.3252,568.1417,34.26124044,9788.925839,589.7827818,a,1,4.8093,,568.1417,568.3419,0,2,2,2,1,2,sparse,22,-162,126,222,26,17,170,126,172,-25,-117,-175,-206,-224,-216,116,-19,130,-174,217,-164,-218,159,-21,162,90,90,180,360,360,270,360,360,360,360,180,,,,,,,,,,,,,,,,,,,,,,,,,,,,,,,,,,,,,,,,,,,,,,,,,,,,,,,,,,,,,,,,,,,,,
,,7,7,${e://Field/PROLIFIC_PID,F,18,2023-11-03_05h29.19.306,MouseEye_CC,2023.2.2,Win32,59.95203837,1.22361573,,,1707,960,66.373,2.94,"41.72, 85.94, 33.86, 29.91, 32.64, 25.58, 21.92",513.83,11.58545024,34.06122372,27.83653633,Passed,114.1050995,,,,,,,,,,,,,,,,,,,,practice,0,4,180,right,s,,,,,568.3422,569.7916,34.26124044,3.388916016,-4.444458008,1,0,0,1.4493,fixationPoint,569.7917,569.8916,569.8917,572.6807,34.26124044,9788.925839,589.7827818,s,1,2.7641,,572.6807,572.8749,0,3,3,3,1,4,sparse,76,19,-128,159,121,214,216,219,165,-218,159,-162,126,-219,119,-169,-116,-111,-31,-175,-206,18,-208,81,-114,90,270,180,180,270,180,360,360,360,270,360,,,,,,,,,,,,,,,,,,,,,,,,,,,,,,,,,,,,,,,,,,,,,,,,,,,,,,,,,,,,,,,,,,,,,
,,7,7,${e://Field/PROLIFIC_PID,F,18,2023-11-03_05h29.19.306,MouseEye_CC,2023.2.2,Win32,59.95203837,1.22361573,,,1707,960,66.373,2.94,"41.72, 85.94, 33.86, 29.91, 32.64, 25.58, 21.92",513.83,11.58545024,34.06122372,27.83653633,Passed,114.1050995,,,,,,,,,,,,,,,,,,,,practice,0,5,180,right,s,,,,,572.8752,574.1749,34.26124044,1.166687012,-3.55557251,1,0,0,1.2997,fixationPoint,574.175,574.2748,574.2749,575.4836,34.26124044,9788.925839,589.7827818,s,1,1.1868,,575.4837,575.6748,0,4,4,4,1,3,sparse,85,-19,-173,219,165,68,123,214,216,-160,68,-64,120,-226,34,162,-21,224,-216,167,-163,-167,-74,-224,-216,360,360,360,90,180,270,90,360,270,270,360,,,,,,,,,,,,,,,,,,,,,,,,,,,,,,,,,,,,,,,,,,,,,,,,,,,,,,,,,,,,,,,,,,,,,
,,7,7,${e://Field/PROLIFIC_PID,F,18,2023-11-03_05h29.19.306,MouseEye_CC,2023.2.2,Win32,59.95203837,1.22361573,,,1707,960,66.373,2.94,"41.72, 85.94, 33.86, 29.91, 32.64, 25.58, 21.92",513.83,11.58545024,34.06122372,27.83653633,Passed,114.1050995,,,,,,,,,,,,,,,,,,,,practice,0,6,180,right,s,,,,,575.6753,576.8582,34.26124044,5.61114502,-3.55557251,1,0,0,1.1829,fixationPoint,576.8582,576.958,576.9581,579.1914,34.26124044,9788.925839,589.7827818,s,1,2.201,,579.1915,579.3929,0,5,5,5,1,3,sparse,95,-21,-224,126,172,219,165,166,26,-166,207,-223,206,-219,119,169,-75,18,-208,224,-216,-72,-121,-115,-130,180,180,360,180,360,180,270,180,90,180,360,,,,,,,,,,,,,,,,,,,,,,,,,,,,,,,,,,,,,,,,,,,,,,,,,,,,,,,,,,,,,,,,,,,,,
,,7,7,${e://Field/PROLIFIC_PID,F,18,2023-11-03_05h29.19.306,MouseEye_CC,2023.2.2,Win32,59.95203837,1.22361573,,,1707,960,66.373,2.94,"41.72, 85.94, 33.86, 29.91, 32.64, 25.58, 21.92",513.83,11.58545024,34.06122372,27.83653633,Passed,114.1050995,,,,,,,,,,,,,,,,,,,,practice,0,7,0,left,a,,,,,579.3931,580.4496,34.26124044,3.388916016,0.44442749,1,0,0,1.0563,fixationPoint,580.4496,580.5413,580.5414,584.1579,34.26124044,9788.925839,589.7827818,a,1,3.5913,,584.158,584.3489,0,6,6,6,1,1,rich,7,62,223,-166,207,-226,34,-162,126,-169,-116,-168,-160,-161,-27,15,-162,162,-21,79,-175,219,165,219,129,180,180,360,180,270,360,180,360,270,180,360,,,,,,,,,,,,,,,,,,,,,,,,,,,,,,,,,,,,,,,,,,,,,,,,,,,,,,,,,,,,,,,,,,,,,
,,7,7,${e://Field/PROLIFIC_PID,F,18,2023-11-03_05h29.19.306,MouseEye_CC,2023.2.2,Win32,59.95203837,1.22361573,,,1707,960,66.373,2.94,"41.72, 85.94, 33.86, 29.91, 32.64, 25.58, 21.92",513.83,11.58545024,34.06122372,27.83653633,Passed,114.1050995,,,,,,,,,,,,,,,,,,,,practice,0,8,180,right,s,,,,,584.349,585.6079,34.26124044,10.5,11.1111145,1,0,0,1.2588,fixationPoint,585.6081,585.708,585.708,595.4802,34.26124044,9788.925839,589.7827818,s,1,9.748,,595.4803,595.6743,0,7,7,7,1,2,sparse,24,-64,120,18,215,126,172,33,121,-206,-170,-64,-162,-218,-78,130,-174,211,-74,168,-130,-164,32,-21,162,90,180,270,360,180,90,180,180,180,360,270,,,,,,,,,,,,,,,,,,,,,,,,,,,,,,,,,,,,,,,,,,,,,,,,,,,,,,,,,,,,,,,,,,,,,
,,7,7,${e://Field/PROLIFIC_PID,F,18,2023-11-03_05h29.19.306,MouseEye_CC,2023.2.2,Win32,59.95203837,1.22361573,,,1707,960,66.373,2.94,"41.72, 85.94, 33.86, 29.91, 32.64, 25.58, 21.92",513.83,11.58545024,34.06122372,27.83653633,Passed,114.1050995,,,,,,,,,,,,,,,,,,,,practice,0,9,180,right,s,,,,,595.6747,596.5244,34.26124044,-0.166687012,-4,1,0,0,0.8495,fixationPoint,596.5245,596.6242,596.6244,599.5261,34.26124044,9788.925839,589.7827818,s,1,2.8802,,599.5262,599.7258,0,8,8,8,1,3,sparse,85,-19,-173,127,30,62,223,217,67,-110,82,-21,162,-80,218,167,-163,126,-79,130,-174,-125,-167,-68,-219,360,360,360,180,360,360,180,270,90,360,180,,,,,,,,,,,,,,,,,,,,,,,,,,,,,,,,,,,,,,,,,,,,,,,,,,,,,,,,,,,,,,,,,,,,,
,,7,7,${e://Field/PROLIFIC_PID,F,18,2023-11-03_05h29.19.306,MouseEye_CC,2023.2.2,Win32,59.95203837,1.22361573,,,1707,960,66.373,2.94,"41.72, 85.94, 33.86, 29.91, 32.64, 25.58, 21.92",513.83,11.58545024,34.06122372,27.83653633,Passed,114.1050995,,,,,,,,,,,,,,,,,,,,practice,0,10,180,right,s,,,,,599.726,600.9831,34.26124044,2.944458008,-5.777770996,1,0,0,1.2569,fixationPoint,600.9831,601.0794,601.0794,602.5797,34.26124044,9788.925839,589.7827818,s,1,1.4827,,602.5797,602.7795,0,9,9,9,1,1,rich,9,160,209,-166,207,-226,34,-120,223,-224,-120,-118,-217,-218,-78,112,-209,126,-113,169,-75,178,160,110,129,180,90,90,270,360,270,360,180,360,180,360,,,,,,,,,,,,,,,,,,,,,,,,,,,,,,,,,,,,,,,,,,,,,,,,,,,,,,,,,,,,,,,,,,,,,
,,7,7,${e://Field/PROLIFIC_PID,F,18,2023-11-03_05h29.19.306,MouseEye_CC,2023.2.2,Win32,59.95203837,1.22361573,,,1707,960,66.373,2.94,"41.72, 85.94, 33.86, 29.91, 32.64, 25.58, 21.92",513.83,11.58545024,34.06122372,27.83653633,Passed,114.1050995,,,,,,,,,,,,,,,,,,,,practice,0,11,180,right,s,,,,,602.7797,603.7242,34.26124044,0.722229004,7.555541992,1,0,0,0.9443,fixationPoint,603.7242,603.8241,603.8241,607.8128,34.26124044,9788.925839,589.7827818,s,1,3.9668,,607.8128,608.0075,0,10,10,10,1,4,sparse,80,218,-129,62,223,159,121,110,129,-218,159,-223,206,-75,173,-169,-116,-118,-217,-125,-167,217,-164,169,-75,360,270,360,180,360,180,180,270,360,180,90,,,,,,,,,,,,,,,,,,,,,,,,,,,,,,,,,,,,,,,,,,,,,,,,,,,,,,,,,,,,,,,,,,,,,
,,7,7,${e://Field/PROLIFIC_PID,F,18,2023-11-03_05h29.19.306,MouseEye_CC,2023.2.2,Win32,59.95203837,1.22361573,,,1707,960,66.373,2.94,"41.72, 85.94, 33.86, 29.91, 32.64, 25.58, 21.92",513.83,11.58545024,34.06122372,27.83653633,Passed,114.1050995,,,,,,,,,,,,,,,,,,,,practice,0,12,0,left,a,,,,,608.0079,609.0074,34.26124044,-4.611083984,-5.333343506,1,0,0,0.9994,fixationPoint,609.0074,609.1073,609.1073,613.7459,34.26124044,9788.925839,589.7827818,a,1,4.6136,,613.746,613.9459,0,11,11,11,1,3,sparse,75,-25,-117,110,129,125,63,214,216,-164,32,-27,117,-126,125,171,-218,126,-113,167,-163,-21,-224,-212,-21,270,180,180,360,180,270,360,270,360,180,270,,,,,,,,,,,,,,,,,,,,,,,,,,,,,,,,,,,,,,,,,,,,,,,,,,,,,,,,,,,,,,,,,,,,,
,,7,7,${e://Field/PROLIFIC_PID,F,18,2023-11-03_05h29.19.306,MouseEye_CC,2023.2.2,Win32,59.95203837,1.22361573,,,1707,960,66.373,2.94,"41.72, 85.94, 33.86, 29.91, 32.64, 25.58, 21.92",513.83,11.58545024,34.06122372,27.83653633,Passed,114.1050995,,,,,,,,,,,,,,,,,,,,,,,,,,,,,,,,,,,,,,,,,,,,,,,,,,,,,,,,,,,,,,,,,,,,,,,,,,,,,,,,,,,,,,,,,,,,,,,,613.9464,621.924,a,1,7.9548,,,,,,,,,,,,,,,,,,,,,,,,,,,,,,,,,,,,,,,,,,,,,,,,,,,,,,,,,,,,,,,,
,,7,7,${e://Field/PROLIFIC_PID,F,18,2023-11-03_05h29.19.306,MouseEye_CC,2023.2.2,Win32,59.95203837,1.22361573,,,1707,960,66.373,2.94,"41.72, 85.94, 33.86, 29.91, 32.64, 25.58, 21.92",513.83,11.58545024,34.06122372,27.83653633,Passed,114.1050995,,,,,,,,,,,,,,,,,,,,,,,,,,,,,,,,,,,,,,,,,,,,,,,,,,,,,,,,,,,,,,,,,,,,,,,,,,,,,,,,,,,,,,,,,,,,,,,,,,,,,,621.924,628.7295,,,,,,,,,,,,,,,,,,,,,,,,,,,,,,,,,,,,,,,,,,,,,,,,,,,,,,,,,,,,,
,,7,7,${e://Field/PROLIFIC_PID,F,18,2023-11-03_05h29.19.306,MouseEye_CC,2023.2.2,Win32,59.95203837,1.22361573,,,1707,960,66.373,2.94,"41.72, 85.94, 33.86, 29.91, 32.64, 25.58, 21.92",513.83,11.58545024,34.06122372,27.83653633,Passed,114.1050995,,,,,,,,,,,,,,,,,,,,,,,,,,,,,,,,,,,,,,,,,,,,,,,,,,,,,,,,,,,,,,,,,,,,,,,,,,,,,,,,,,,,,,,,,,,,,,,,,,,,,,,,628.7296,643.3569,,,,,,,,,,,,,,,,,,,,,,,,,,,,,,,,,,,,,,,,,,,,,,,,,,,,,,,,,,,
,,7,7,${e://Field/PROLIFIC_PID,F,18,2023-11-03_05h29.19.306,MouseEye_CC,2023.2.2,Win32,59.95203837,1.22361573,,,1707,960,66.373,2.94,"41.72, 85.94, 33.86, 29.91, 32.64, 25.58, 21.92",513.83,11.58545024,34.06122372,27.83653633,Passed,114.1050995,,,,,,,,,,,,,,,,,,,,training,1,1,0,left,a,,,,,643.4172,644.6398,34.26124044,-3.277770996,-2.222229004,1,0,0,1.2224,fixationPoint,644.6399,644.7398,644.7399,649.1898,34.26124044,9788.925839,589.7827818,a,1,4.4277,,649.1898,649.3898,,,,,,,,39,168,64,-30,218,-127,116,-26,27,-221,-163,-24,-71,-165,-215,17,-115,214,-74,120,-219,64,72,221,32,270,90,180,360,180,90,270,180,180,360,90,,,,,,,,,,,649.3903,649.3918,,0,0,0,0,1,14,novel,,,,,,,,,,,,,,,,,,,,,,,,,,,,,,,,,,,,,,,,,,,,,,,,,
,,7,7,${e://Field/PROLIFIC_PID,F,18,2023-11-03_05h29.19.306,MouseEye_CC,2023.2.2,Win32,59.95203837,1.22361573,,,1707,960,66.373,2.94,"41.72, 85.94, 33.86, 29.91, 32.64, 25.58, 21.92",513.83,11.58545024,34.06122372,27.83653633,Passed,114.1050995,,,,,,,,,,,,,,,,,,,,training,1,2,180,right,s,,,,,649.3921,650.3896,34.26124044,0.722229004,-2.666656494,1,0,0,0.9973,fixationPoint,650.3896,650.4896,650.4896,652.2232,34.26124044,9788.925839,589.7827818,s,1,1.7212,,652.2233,652.4229,,,,,,,,19,165,174,-79,220,-24,73,-66,160,-172,-124,-80,-218,-17,-162,169,-32,120,-219,163,-165,116,28,160,116,90,180,360,270,90,360,90,360,180,270,180,,,,,,,,,,,652.423,652.4231,,0,1,1,1,1,1,repeated,,,,,,,,,,,,,,,,,,,,,,,,,,,,,,,,,,,,,,,,,,,,,,,,,
,,7,7,${e://Field/PROLIFIC_PID,F,18,2023-11-03_05h29.19.306,MouseEye_CC,2023.2.2,Win32,59.95203837,1.22361573,,,1707,960,66.373,2.94,"41.72, 85.94, 33.86, 29.91, 32.64, 25.58, 21.92",513.83,11.58545024,34.06122372,27.83653633,Passed,114.1050995,,,,,,,,,,,,,,,,,,,,training,1,3,0,left,a,,,,,652.4234,653.0562,34.26124044,-15.722229,-4.888885498,1,0,0,0.6326,fixationPoint,653.0563,653.1562,653.1562,656.3229,34.26124044,9788.925839,589.7827818,a,1,3.1567,,656.323,656.5229,,,,,,,,68,120,-78,224,175,29,23,168,64,-119,212,-20,120,-127,116,-208,-27,-26,-117,-224,-68,215,-113,210,-16,180,270,90,90,90,90,270,360,360,90,180,,,,,,,,,,,656.5229,656.523,,0,2,2,2,1,11,novel,,,,,,,,,,,,,,,,,,,,,,,,,,,,,,,,,,,,,,,,,,,,,,,,,
,,7,7,${e://Field/PROLIFIC_PID,F,18,2023-11-03_05h29.19.306,MouseEye_CC,2023.2.2,Win32,59.95203837,1.22361573,,,1707,960,66.373,2.94,"41.72, 85.94, 33.86, 29.91, 32.64, 25.58, 21.92",513.83,11.58545024,34.06122372,27.83653633,Passed,114.1050995,,,,,,,,,,,,,,,,,,,,training,1,4,180,right,s,,,,,656.5232,657.0561,34.26124044,-3.277770996,-0.444458008,1,0,0,0.5329,fixationPoint,657.0562,657.1561,657.1561,663.9394,34.26124044,9788.925839,589.7827818,s,1,6.7727,,663.9395,664.1394,,,,,,,,48,116,28,-162,80,-212,64,-70,72,-172,-32,-114,-116,-72,-80,25,-164,64,-208,27,-74,120,114,73,172,270,90,180,270,360,90,360,360,270,360,360,,,,,,,,,,,664.1394,664.1396,,0,3,3,3,1,13,novel,,,,,,,,,,,,,,,,,,,,,,,,,,,,,,,,,,,,,,,,,,,,,,,,,
,,7,7,${e://Field/PROLIFIC_PID,F,18,2023-11-03_05h29.19.306,MouseEye_CC,2023.2.2,Win32,59.95203837,1.22361573,,,1707,960,66.373,2.94,"41.72, 85.94, 33.86, 29.91, 32.64, 25.58, 21.92",513.83,11.58545024,34.06122372,27.83653633,Passed,114.1050995,,,,,,,,,,,,,,,,,,,,training,1,5,0,left,a,,,,,664.1399,664.9393,34.26124044,1.166687012,0,1,0,0,0.7992,fixationPoint,664.9393,665.0393,665.0394,668.4615,34.26124044,9788.925839,589.7827818,a,1,3.4179,,668.4615,668.6635,,,,,,,,79,175,-117,29,214,64,72,124,76,-176,168,-213,170,-26,27,-165,-215,-26,-117,-24,-71,215,-113,208,-174,90,90,270,270,90,180,180,270,360,360,270,,,,,,,,,,,668.6635,668.6637,,0,4,4,4,1,8,repeated,,,,,,,,,,,,,,,,,,,,,,,,,,,,,,,,,,,,,,,,,,,,,,,,,
,,7,7,${e://Field/PROLIFIC_PID,F,18,2023-11-03_05h29.19.306,MouseEye_CC,2023.2.2,Win32,59.95203837,1.22361573,,,1707,960,66.373,2.94,"41.72, 85.94, 33.86, 29.91, 32.64, 25.58, 21.92",513.83,11.58545024,34.06122372,27.83653633,Passed,114.1050995,,,,,,,,,,,,,,,,,,,,training,1,6,0,left,a,,,,,668.6639,669.9625,34.26124044,-2.833312988,-12.44445801,1,0,0,1.2985,fixationPoint,669.9625,670.0558,670.0558,674.4801,34.26124044,9788.925839,589.7827818,a,1,4.4002,,674.4802,674.6723,,,,,,,,94,-80,-218,168,64,67,17,165,174,-172,116,-75,29,-70,72,25,-164,120,-78,116,-24,-68,-176,-24,-216,360,180,90,180,180,180,180,270,270,360,270,,,,,,,,,,,674.6723,674.6724,,0,5,5,5,1,10,novel,,,,,,,,,,,,,,,,,,,,,,,,,,,,,,,,,,,,,,,,,,,,,,,,,
,,7,7,${e://Field/PROLIFIC_PID,F,18,2023-11-03_05h29.19.306,MouseEye_CC,2023.2.2,Win32,59.95203837,1.22361573,,,1707,960,66.373,2.94,"41.72, 85.94, 33.86, 29.91, 32.64, 25.58, 21.92",513.83,11.58545024,34.06122372,27.83653633,Passed,114.1050995,,,,,,,,,,,,,,,,,,,,training,1,7,180,right,s,,,,,674.6727,675.4224,34.26124044,-2.833312988,4.888885498,1,0,0,0.7496,fixationPoint,675.4224,675.5223,675.5223,679.9225,34.26124044,9788.925839,589.7827818,s,1,4.3649,,679.9226,680.1224,,,,,,,,96,28,-215,22,117,165,23,215,74,-213,170,-170,217,-220,24,-71,-113,-80,-218,-124,-64,215,-113,71,-114,90,360,180,90,270,90,180,270,90,360,180,,,,,,,,,,,680.1225,680.1226,,0,6,6,6,1,7,repeated,,,,,,,,,,,,,,,,,,,,,,,,,,,,,,,,,,,,,,,,,,,,,,,,,
,,7,7,${e://Field/PROLIFIC_PID,F,18,2023-11-03_05h29.19.306,MouseEye_CC,2023.2.2,Win32,59.95203837,1.22361573,,,1707,960,66.373,2.94,"41.72, 85.94, 33.86, 29.91, 32.64, 25.58, 21.92",513.83,11.58545024,34.06122372,27.83653633,Passed,114.1050995,,,,,,,,,,,,,,,,,,,,training,1,8,0,left,a,,,,,680.123,680.9222,34.26124044,-3.277770996,0.888885498,1,0,0,0.7992,fixationPoint,680.9223,681.0222,681.0222,685.5889,34.26124044,9788.925839,589.7827818,a,1,4.5599,,685.589,685.7889,,,,,,,,7,79,208,-30,218,-20,120,-77,115,-172,-32,-172,-124,-68,-176,215,-220,116,-24,165,-217,29,161,220,215,180,180,90,270,180,90,360,90,180,270,180,,,,,,,,,,,685.789,685.7891,,0,7,7,7,1,2,repeated,,,,,,,,,,,,,,,,,,,,,,,,,,,,,,,,,,,,,,,,,,,,,,,,,
,,7,7,${e://Field/PROLIFIC_PID,F,18,2023-11-03_05h29.19.306,MouseEye_CC,2023.2.2,Win32,59.95203837,1.22361573,,,1707,960,66.373,2.94,"41.72, 85.94, 33.86, 29.91, 32.64, 25.58, 21.92",513.83,11.58545024,34.06122372,27.83653633,Passed,114.1050995,,,,,,,,,,,,,,,,,,,,training,1,9,180,right,s,,,,,685.7893,686.773,34.26124044,0.722229004,2.222229004,1,0,0,0.9837,fixationPoint,686.773,686.8722,686.8722,691.2298,34.26124044,9788.925839,589.7827818,s,1,4.3403,,691.2299,691.4273,,,,,,,,82,-163,-171,220,215,79,208,73,172,-70,72,-24,73,-172,116,71,-114,27,-74,114,-128,-80,-218,-17,-162,90,180,360,90,360,180,90,180,270,180,270,,,,,,,,,,,691.4273,691.4274,,0,8,8,8,1,9,novel,,,,,,,,,,,,,,,,,,,,,,,,,,,,,,,,,,,,,,,,,,,,,,,,,
,,7,7,${e://Field/PROLIFIC_PID,F,18,2023-11-03_05h29.19.306,MouseEye_CC,2023.2.2,Win32,59.95203837,1.22361573,,,1707,960,66.373,2.94,"41.72, 85.94, 33.86, 29.91, 32.64, 25.58, 21.92",513.83,11.58545024,34.06122372,27.83653633,Passed,114.1050995,,,,,,,,,,,,,,,,,,,,training,1,10,0,left,a,,,,,691.4276,692.3962,34.26124044,-3.722229004,0,1,0,0,0.9685,fixationPoint,692.3963,692.4946,692.4947,693.8222,34.26124044,9788.925839,589.7827818,a,1,1.3107,,693.8222,694.0106,,,,,,,,5,-30,218,68,127,165,222,220,215,-165,-215,-163,-171,-68,-176,114,-128,210,-16,116,-24,-70,72,-220,24,90,180,180,270,270,180,270,270,360,360,180,,,,,,,,,,,694.0106,694.0106,,0,9,9,9,1,15,novel,,,,,,,,,,,,,,,,,,,,,,,,,,,,,,,,,,,,,,,,,,,,,,,,,
,,7,7,${e://Field/PROLIFIC_PID,F,18,2023-11-03_05h29.19.306,MouseEye_CC,2023.2.2,Win32,59.95203837,1.22361573,,,1707,960,66.373,2.94,"41.72, 85.94, 33.86, 29.91, 32.64, 25.58, 21.92",513.83,11.58545024,34.06122372,27.83653633,Passed,114.1050995,,,,,,,,,,,,,,,,,,,,training,1,11,180,right,s,,,,,694.0109,695.0605,34.26124044,2.5,11.55554199,1,0,0,1.0496,fixationPoint,695.0606,695.1552,695.1552,700.4783,34.26124044,9788.925839,589.7827818,s,1,5.2992,,700.4783,700.6797,,,,,,,,62,-166,-77,73,172,29,161,29,23,-126,164,-212,64,-75,29,210,-16,28,-215,64,-208,-208,-27,-80,-218,360,270,270,180,180,270,270,180,270,360,90,,,,,,,,,,,700.6797,700.6799,,0,10,10,10,1,6,repeated,,,,,,,,,,,,,,,,,,,,,,,,,,,,,,,,,,,,,,,,,,,,,,,,,
,,7,7,${e://Field/PROLIFIC_PID,F,18,2023-11-03_05h29.19.306,MouseEye_CC,2023.2.2,Win32,59.95203837,1.22361573,,,1707,960,66.373,2.94,"41.72, 85.94, 33.86, 29.91, 32.64, 25.58, 21.92",513.83,11.58545024,34.06122372,27.83653633,Passed,114.1050995,,,,,,,,,,,,,,,,,,,,training,1,12,180,right,s,,,,,700.6806,701.8884,34.26124044,5.61114502,-3.111114502,1,0,0,1.2077,fixationPoint,701.8884,701.9808,701.9808,704.8772,34.26124044,9788.925839,589.7827818,s,1,2.8838,,704.8772,705.0768,,,,,,,,53,-128,-18,27,65,168,64,165,23,-217,210,-119,212,-170,217,175,-117,64,-208,27,-74,-17,-162,-68,-176,180,180,90,360,270,180,180,360,180,90,180,,,,,,,,,,,705.0769,705.0771,,0,11,11,11,1,5,repeated,,,,,,,,,,,,,,,,,,,,,,,,,,,,,,,,,,,,,,,,,,,,,,,,,
,,7,7,${e://Field/PROLIFIC_PID,F,18,2023-11-03_05h29.19.306,MouseEye_CC,2023.2.2,Win32,59.95203837,1.22361573,,,1707,960,66.373,2.94,"41.72, 85.94, 33.86, 29.91, 32.64, 25.58, 21.92",513.83,11.58545024,34.06122372,27.83653633,Passed,114.1050995,,,,,,,,,,,,,,,,,,,,training,1,13,0,left,a,,,,,705.0774,706.3882,34.26124044,-2.38885498,1.777770996,1,0,0,1.3108,fixationPoint,706.3883,706.4882,706.4883,709.855,34.26124044,9788.925839,589.7827818,a,1,3.3406,,709.855,710.046,,,,,,,,88,126,-169,73,172,220,127,64,72,-213,124,-113,19,-217,210,-31,-24,-80,-218,-163,-171,208,-174,27,-74,180,180,360,180,180,360,180,180,180,270,360,,,,,,,,,,,710.046,710.046,,0,12,12,12,1,12,novel,,,,,,,,,,,,,,,,,,,,,,,,,,,,,,,,,,,,,,,,,,,,,,,,,
,,7,7,${e://Field/PROLIFIC_PID,F,18,2023-11-03_05h29.19.306,MouseEye_CC,2023.2.2,Win32,59.95203837,1.22361573,,,1707,960,66.373,2.94,"41.72, 85.94, 33.86, 29.91, 32.64, 25.58, 21.92",513.83,11.58545024,34.06122372,27.83653633,Passed,114.1050995,,,,,,,,,,,,,,,,,,,,training,1,14,0,left,a,,,,,710.0463,711.1549,34.26124044,6.055541992,-6.222229004,1,0,0,1.1085,fixationPoint,711.1549,711.2548,711.2548,713.0882,34.26124044,9788.925839,589.7827818,a,1,1.7996,,713.0883,713.2881,,,,,,,,13,-126,164,120,114,221,32,64,72,-72,-80,-210,-224,-24,-71,175,-117,64,-68,17,-115,-213,170,-172,116,180,90,360,270,180,360,180,180,270,180,360,,,,,,,,,,,713.2881,713.2882,,0,13,13,13,1,4,repeated,,,,,,,,,,,,,,,,,,,,,,,,,,,,,,,,,,,,,,,,,,,,,,,,,
,,7,7,${e://Field/PROLIFIC_PID,F,18,2023-11-03_05h29.19.306,MouseEye_CC,2023.2.2,Win32,59.95203837,1.22361573,,,1707,960,66.373,2.94,"41.72, 85.94, 33.86, 29.91, 32.64, 25.58, 21.92",513.83,11.58545024,34.06122372,27.83653633,Passed,114.1050995,,,,,,,,,,,,,,,,,,,,training,1,15,180,right,s,,,,,713.2885,714.8881,34.26124044,7.833312988,-3.111114502,1,0,0,1.5994,fixationPoint,714.8881,714.9881,714.9881,719.9713,34.26124044,9788.925839,589.7827818,s,1,4.9553,,719.9714,720.1713,,,,,,,,33,-116,68,27,65,165,174,215,74,-71,-113,-17,-162,-166,-77,120,-78,114,-128,28,-215,-26,27,-75,29,180,360,270,180,270,270,270,270,270,180,270,,,,,,,,,,,720.1714,720.1714,,0,14,14,14,1,3,repeated,,,,,,,,,,,,,,,,,,,,,,,,,,,,,,,,,,,,,,,,,,,,,,,,,
,,7,7,${e://Field/PROLIFIC_PID,F,18,2023-11-03_05h29.19.306,MouseEye_CC,2023.2.2,Win32,59.95203837,1.22361573,,,1707,960,66.373,2.94,"41.72, 85.94, 33.86, 29.91, 32.64, 25.58, 21.92",513.83,11.58545024,34.06122372,27.83653633,Passed,114.1050995,,,,,,,,,,,,,,,,,,,,training,1,16,180,right,s,,,,,720.1716,720.6213,34.26124044,7.833312988,-3.111114502,1,0,0,0.4497,fixationPoint,720.6213,720.7212,720.7212,729.6254,34.26124044,9788.925839,589.7827818,s,1,8.8824,,729.6255,729.821,,,,,,,,22,-172,116,165,222,29,214,220,215,-71,-113,-120,-165,-72,-80,120,-219,126,-169,64,-208,-217,210,-176,168,90,90,180,270,270,90,360,270,360,270,270,,,,,,,,,,,729.821,748.9427,space,0,15,15,15,1,16,novel,19.0969,,,,,,,,,,,,,,,,,,,,,,,,,,,,,,,,,,,,,,,,,,,,,,,,
,,7,7,${e://Field/PROLIFIC_PID,F,18,2023-11-03_05h29.19.306,MouseEye_CC,2023.2.2,Win32,59.95203837,1.22361573,,,1707,960,66.373,2.94,"41.72, 85.94, 33.86, 29.91, 32.64, 25.58, 21.92",513.83,11.58545024,34.06122372,27.83653633,Passed,114.1050995,,,,,,,,,,,,,,,,,,,,training,2,1,180,right,s,,,,,748.9479,750.2539,34.26124044,1.61114502,0.44442749,1,0,0,1.3059,fixationPoint,750.2539,750.3539,750.3539,753.2371,34.26124044,9788.925839,589.7827818,s,1,2.8614,,753.2372,753.4371,,,,,,,,88,126,-169,127,220,27,65,220,215,-77,115,-213,124,-20,120,-72,-80,-114,-116,-163,-171,71,-114,32,-29,270,90,90,270,90,180,360,180,270,180,90,,,,,,,,,,,753.4372,753.4379,,0,16,16,16,1,12,novel,,,,,,,,,,,,,,,,,,,,,,,,,,,,,,,,,,,,,,,,,,,,,,,,,
,,7,7,${e://Field/PROLIFIC_PID,F,18,2023-11-03_05h29.19.306,MouseEye_CC,2023.2.2,Win32,59.95203837,1.22361573,,,1707,960,66.373,2.94,"41.72, 85.94, 33.86, 29.91, 32.64, 25.58, 21.92",513.83,11.58545024,34.06122372,27.83653633,Passed,114.1050995,,,,,,,,,,,,,,,,,,,,training,2,2,180,right,s,,,,,753.4381,753.9204,34.26124044,1.61114502,0.44442749,1,0,0,0.4822,fixationPoint,753.9204,754.0204,754.0204,756.4871,34.26124044,9788.925839,589.7827818,s,1,2.4405,,756.4872,756.6903,,,,,,,,53,-128,-18,27,65,168,64,165,23,-217,210,-119,212,-170,217,175,-117,64,-208,27,-74,-17,-162,-68,-176,180,180,90,270,90,180,180,270,90,270,90,,,,,,,,,,,756.6903,756.6904,,0,17,17,17,1,5,repeated,,,,,,,,,,,,,,,,,,,,,,,,,,,,,,,,,,,,,,,,,,,,,,,,,
,,7,7,${e://Field/PROLIFIC_PID,F,18,2023-11-03_05h29.19.306,MouseEye_CC,2023.2.2,Win32,59.95203837,1.22361573,,,1707,960,66.373,2.94,"41.72, 85.94, 33.86, 29.91, 32.64, 25.58, 21.92",513.83,11.58545024,34.06122372,27.83653633,Passed,114.1050995,,,,,,,,,,,,,,,,,,,,training,2,3,0,left,a,,,,,756.6906,757.0536,34.26124044,1.61114502,0.44442749,1,0,0,0.363,fixationPoint,757.0536,757.1537,757.1538,761.1589,34.26124044,9788.925839,589.7827818,a,1,3.9834,,761.159,761.3535,,,,,,,,19,165,174,-79,220,-24,73,-66,160,-172,-124,-80,-218,-17,-162,169,-32,120,-219,163,-165,116,28,160,116,360,270,90,360,360,180,90,90,270,360,90,,,,,,,,,,,761.3535,761.3537,,0,18,18,18,1,1,repeated,,,,,,,,,,,,,,,,,,,,,,,,,,,,,,,,,,,,,,,,,,,,,,,,,
,,7,7,${e://Field/PROLIFIC_PID,F,18,2023-11-03_05h29.19.306,MouseEye_CC,2023.2.2,Win32,59.95203837,1.22361573,,,1707,960,66.373,2.94,"41.72, 85.94, 33.86, 29.91, 32.64, 25.58, 21.92",513.83,11.58545024,34.06122372,27.83653633,Passed,114.1050995,,,,,,,,,,,,,,,,,,,,training,2,4,0,left,a,,,,,761.3539,761.7369,34.26124044,1.61114502,0.44442749,1,0,0,0.3829,fixationPoint,761.7369,761.8368,761.8369,765.0252,34.26124044,9788.925839,589.7827818,a,1,3.1666,,765.0252,765.2203,,,,,,,,94,-80,-218,73,172,29,161,79,208,-79,220,-77,115,-70,72,28,-215,175,-117,176,-74,-166,-77,-68,-176,180,180,90,270,360,90,270,90,360,270,270,,,,,,,,,,,765.2203,765.2203,,0,19,19,19,1,10,novel,,,,,,,,,,,,,,,,,,,,,,,,,,,,,,,,,,,,,,,,,,,,,,,,,
,,7,7,${e://Field/PROLIFIC_PID,F,18,2023-11-03_05h29.19.306,MouseEye_CC,2023.2.2,Win32,59.95203837,1.22361573,,,1707,960,66.373,2.94,"41.72, 85.94, 33.86, 29.91, 32.64, 25.58, 21.92",513.83,11.58545024,34.06122372,27.83653633,Passed,114.1050995,,,,,,,,,,,,,,,,,,,,training,2,5,180,right,s,,,,,765.2206,765.5034,34.26124044,1.61114502,0.44442749,1,0,0,0.2828,fixationPoint,765.5034,765.6034,765.6035,768.8754,34.26124044,9788.925839,589.7827818,s,1,3.2501,,768.8754,769.07,,,,,,,,79,175,-117,29,214,64,72,124,76,-176,168,-213,170,-26,27,-165,-215,-26,-117,-24,-71,215,-113,208,-174,270,270,90,180,270,90,180,360,90,90,180,,,,,,,,,,,769.07,769.0701,,0,20,20,20,1,8,repeated,,,,,,,,,,,,,,,,,,,,,,,,,,,,,,,,,,,,,,,,,,,,,,,,,
,,7,7,${e://Field/PROLIFIC_PID,F,18,2023-11-03_05h29.19.306,MouseEye_CC,2023.2.2,Win32,59.95203837,1.22361573,,,1707,960,66.373,2.94,"41.72, 85.94, 33.86, 29.91, 32.64, 25.58, 21.92",513.83,11.58545024,34.06122372,27.83653633,Passed,114.1050995,,,,,,,,,,,,,,,,,,,,training,2,6,0,left,a,,,,,769.0703,769.4367,34.26124044,1.61114502,0.44442749,1,0,0,0.3663,fixationPoint,769.4367,769.5366,769.5367,775.8371,34.26124044,9788.925839,589.7827818,a,1,6.2632,,775.8372,776.0366,,,,,,,,22,-172,116,168,64,220,127,160,116,-221,-163,-70,-19,-124,-64,215,-220,17,-115,163,-165,-176,168,-77,115,180,270,360,180,180,180,360,180,360,180,270,,,,,,,,,,,776.0366,776.0367,,0,21,21,21,1,16,novel,,,,,,,,,,,,,,,,,,,,,,,,,,,,,,,,,,,,,,,,,,,,,,,,,
,,7,7,${e://Field/PROLIFIC_PID,F,18,2023-11-03_05h29.19.306,MouseEye_CC,2023.2.2,Win32,59.95203837,1.22361573,,,1707,960,66.373,2.94,"41.72, 85.94, 33.86, 29.91, 32.64, 25.58, 21.92",513.83,11.58545024,34.06122372,27.83653633,Passed,114.1050995,,,,,,,,,,,,,,,,,,,,training,2,7,180,right,s,,,,,776.037,776.4198,34.26124044,1.61114502,0.44442749,1,0,0,0.3828,fixationPoint,776.4198,776.5198,776.5198,778.1699,34.26124044,9788.925839,589.7827818,s,1,1.6156,,778.17,778.3699,,,,,,,,33,-116,68,27,65,165,174,215,74,-71,-113,-17,-162,-166,-77,120,-78,114,-128,28,-215,-26,27,-75,29,180,90,90,180,270,270,180,180,90,90,180,,,,,,,,,,,778.37,778.37,,0,22,22,22,1,3,repeated,,,,,,,,,,,,,,,,,,,,,,,,,,,,,,,,,,,,,,,,,,,,,,,,,
,,7,7,${e://Field/PROLIFIC_PID,F,18,2023-11-03_05h29.19.306,MouseEye_CC,2023.2.2,Win32,59.95203837,1.22361573,,,1707,960,66.373,2.94,"41.72, 85.94, 33.86, 29.91, 32.64, 25.58, 21.92",513.83,11.58545024,34.06122372,27.83653633,Passed,114.1050995,,,,,,,,,,,,,,,,,,,,training,2,8,0,left,a,,,,,778.3704,778.8532,34.26124044,1.61114502,0.44442749,1,0,0,0.4827,fixationPoint,778.8532,778.9532,778.9532,783.4046,34.26124044,9788.925839,589.7827818,a,1,4.4319,,783.4047,783.603,,,,,,,,62,-166,-77,73,172,29,161,29,23,-126,164,-212,64,-75,29,210,-16,28,-215,64,-208,-208,-27,-80,-218,180,270,360,90,270,180,270,180,90,360,360,,,,,,,,,,,783.6031,783.6032,,0,23,23,23,1,6,repeated,,,,,,,,,,,,,,,,,,,,,,,,,,,,,,,,,,,,,,,,,,,,,,,,,
,,7,7,${e://Field/PROLIFIC_PID,F,18,2023-11-03_05h29.19.306,MouseEye_CC,2023.2.2,Win32,59.95203837,1.22361573,,,1707,960,66.373,2.94,"41.72, 85.94, 33.86, 29.91, 32.64, 25.58, 21.92",513.83,11.58545024,34.06122372,27.83653633,Passed,114.1050995,,,,,,,,,,,,,,,,,,,,training,2,9,0,left,a,,,,,783.6034,783.953,34.26124044,1.61114502,0.44442749,1,0,0,0.3496,fixationPoint,783.9531,784.0531,784.0531,785.4885,34.26124044,9788.925839,589.7827818,a,1,1.4175,,785.4885,785.6863,,,,,,,,48,116,28,-162,80,-16,170,-113,19,-124,-221,-17,-162,-26,-117,163,-165,215,-220,114,-128,29,214,124,162,360,360,360,360,90,180,90,270,90,180,90,,,,,,,,,,,785.6863,785.6864,,0,24,24,24,1,13,novel,,,,,,,,,,,,,,,,,,,,,,,,,,,,,,,,,,,,,,,,,,,,,,,,,
,,7,7,${e://Field/PROLIFIC_PID,F,18,2023-11-03_05h29.19.306,MouseEye_CC,2023.2.2,Win32,59.95203837,1.22361573,,,1707,960,66.373,2.94,"41.72, 85.94, 33.86, 29.91, 32.64, 25.58, 21.92",513.83,11.58545024,34.06122372,27.83653633,Passed,114.1050995,,,,,,,,,,,,,,,,,,,,training,2,10,0,left,a,,,,,785.6866,786.103,34.26124044,1.61114502,0.44442749,1,0,0,0.4163,fixationPoint,786.1031,786.203,786.203,791.0695,34.26124044,9788.925839,589.7827818,a,1,4.8469,,791.0696,791.2695,,,,,,,,68,120,-78,221,32,127,220,124,162,-162,80,-66,160,-172,116,-172,-124,-128,-18,-26,-117,17,-115,215,-220,180,180,270,270,90,360,360,90,360,180,90,,,,,,,,,,,791.2695,791.2696,,0,25,25,25,1,11,novel,,,,,,,,,,,,,,,,,,,,,,,,,,,,,,,,,,,,,,,,,,,,,,,,,
,,7,7,${e://Field/PROLIFIC_PID,F,18,2023-11-03_05h29.19.306,MouseEye_CC,2023.2.2,Win32,59.95203837,1.22361573,,,1707,960,66.373,2.94,"41.72, 85.94, 33.86, 29.91, 32.64, 25.58, 21.92",513.83,11.58545024,34.06122372,27.83653633,Passed,114.1050995,,,,,,,,,,,,,,,,,,,,training,2,11,180,right,s,,,,,791.2699,791.6361,34.26124044,1.61114502,0.44442749,1,0,0,0.366,fixationPoint,791.6361,791.7361,791.7361,792.7529,34.26124044,9788.925839,589.7827818,s,1,0.9828,,792.753,792.9527,,,,,,,,5,-30,218,73,172,27,65,165,222,-208,-27,-172,-32,-24,-71,120,-219,126,-169,68,-172,-213,170,-176,168,90,90,90,90,270,360,90,360,180,270,360,,,,,,,,,,,792.9528,792.9529,,0,26,26,26,1,15,novel,,,,,,,,,,,,,,,,,,,,,,,,,,,,,,,,,,,,,,,,,,,,,,,,,
,,7,7,${e://Field/PROLIFIC_PID,F,18,2023-11-03_05h29.19.306,MouseEye_CC,2023.2.2,Win32,59.95203837,1.22361573,,,1707,960,66.373,2.94,"41.72, 85.94, 33.86, 29.91, 32.64, 25.58, 21.92",513.83,11.58545024,34.06122372,27.83653633,Passed,114.1050995,,,,,,,,,,,,,,,,,,,,training,2,12,180,right,s,,,,,792.9531,793.5028,34.26124044,1.61114502,0.44442749,1,0,0,0.5496,fixationPoint,793.5029,793.6027,793.6028,797.2413,34.26124044,9788.925839,589.7827818,s,1,3.6167,,797.2414,797.436,,,,,,,,82,-163,-171,224,175,124,162,29,161,-16,170,-213,170,-217,210,215,-220,208,-174,210,-16,-31,-24,-214,-118,90,90,360,360,90,270,90,90,360,90,270,,,,,,,,,,,797.436,797.4361,,0,27,27,27,1,9,novel,,,,,,,,,,,,,,,,,,,,,,,,,,,,,,,,,,,,,,,,,,,,,,,,,
,,7,7,${e://Field/PROLIFIC_PID,F,18,2023-11-03_05h29.19.306,MouseEye_CC,2023.2.2,Win32,59.95203837,1.22361573,,,1707,960,66.373,2.94,"41.72, 85.94, 33.86, 29.91, 32.64, 25.58, 21.92",513.83,11.58545024,34.06122372,27.83653633,Passed,114.1050995,,,,,,,,,,,,,,,,,,,,training,2,13,180,right,s,,,,,797.4364,797.8361,34.26124044,1.61114502,0.44442749,1,0,0,0.3995,fixationPoint,797.8361,797.9359,797.936,799.1415,34.26124044,9788.925839,589.7827818,s,1,1.1534,,799.1415,799.3361,,,,,,,,13,-126,164,120,114,221,32,64,72,-72,-80,-210,-224,-24,-71,175,-117,64,-68,17,-115,-213,170,-172,116,180,90,180,360,270,270,180,90,90,270,270,,,,,,,,,,,799.3362,799.3364,,0,28,28,28,1,4,repeated,,,,,,,,,,,,,,,,,,,,,,,,,,,,,,,,,,,,,,,,,,,,,,,,,
,,7,7,${e://Field/PROLIFIC_PID,F,18,2023-11-03_05h29.19.306,MouseEye_CC,2023.2.2,Win32,59.95203837,1.22361573,,,1707,960,66.373,2.94,"41.72, 85.94, 33.86, 29.91, 32.64, 25.58, 21.92",513.83,11.58545024,34.06122372,27.83653633,Passed,114.1050995,,,,,,,,,,,,,,,,,,,,training,2,14,0,left,a,,,,,799.3367,799.886,34.26124044,1.61114502,0.44442749,1,0,0,0.5492,fixationPoint,799.886,799.9859,799.9859,803.3193,34.26124044,9788.925839,589.7827818,a,1,3.2996,,803.3193,803.5192,,,,,,,,96,28,-215,22,117,165,23,215,74,-213,170,-170,217,-220,24,-71,-113,-80,-218,-124,-64,215,-113,71,-114,360,360,270,270,270,180,270,360,180,270,180,,,,,,,,,,,803.5192,803.5193,,0,29,29,29,1,7,repeated,,,,,,,,,,,,,,,,,,,,,,,,,,,,,,,,,,,,,,,,,,,,,,,,,
,,7,7,${e://Field/PROLIFIC_PID,F,18,2023-11-03_05h29.19.306,MouseEye_CC,2023.2.2,Win32,59.95203837,1.22361573,,,1707,960,66.373,2.94,"41.72, 85.94, 33.86, 29.91, 32.64, 25.58, 21.92",513.83,11.58545024,34.06122372,27.83653633,Passed,114.1050995,,,,,,,,,,,,,,,,,,,,training,2,15,180,right,s,,,,,803.5196,803.9913,34.26124044,1.61114502,0.44442749,1,0,0,0.4716,fixationPoint,803.9913,804.0858,804.0858,809.2068,34.26124044,9788.925839,589.7827818,s,1,5.099,,809.2068,809.4023,,,,,,,,39,168,64,-212,64,-126,164,-217,210,-210,-224,-31,-24,-24,-71,210,-16,120,-78,27,-74,220,215,27,65,270,360,270,180,270,180,180,180,270,270,360,,,,,,,,,,,809.4023,809.4025,,0,30,30,30,1,14,novel,,,,,,,,,,,,,,,,,,,,,,,,,,,,,,,,,,,,,,,,,,,,,,,,,
,,7,7,${e://Field/PROLIFIC_PID,F,18,2023-11-03_05h29.19.306,MouseEye_CC,2023.2.2,Win32,59.95203837,1.22361573,,,1707,960,66.373,2.94,"41.72, 85.94, 33.86, 29.91, 32.64, 25.58, 21.92",513.83,11.58545024,34.06122372,27.83653633,Passed,114.1050995,,,,,,,,,,,,,,,,,,,,training,2,16,0,left,a,,,,,809.4027,809.9525,34.26124044,1.61114502,0.44442749,1,0,0,0.5497,fixationPoint,809.9526,810.0523,810.0523,817.559,34.26124044,9788.925839,589.7827818,a,1,7.4849,,817.559,817.7522,,,,,,,,7,79,208,-30,218,-20,120,-77,115,-172,-32,-172,-124,-68,-176,215,-220,116,-24,165,-217,29,161,220,215,270,180,180,270,360,90,360,360,270,180,180,,,,,,,,,,,817.7522,824.7074,space,0,31,31,31,1,2,repeated,6.9332,,,,,,,,,,,,,,,,,,,,,,,,,,,,,,,,,,,,,,,,,,,,,,,,
,,7,7,${e://Field/PROLIFIC_PID,F,18,2023-11-03_05h29.19.306,MouseEye_CC,2023.2.2,Win32,59.95203837,1.22361573,,,1707,960,66.373,2.94,"41.72, 85.94, 33.86, 29.91, 32.64, 25.58, 21.92",513.83,11.58545024,34.06122372,27.83653633,Passed,114.1050995,,,,,,,,,,,,,,,,,,,,training,3,1,180,right,s,,,,,824.7126,825.6519,34.26124044,1.61114502,0.44442749,1,0,0,0.9393,fixationPoint,825.6519,825.7519,825.7519,827.2687,34.26124044,9788.925839,589.7827818,s,1,1.4874,,827.2687,827.4686,,,,,,,,94,-80,-218,165,222,127,220,27,65,-162,80,-164,29,-77,115,169,-32,215,-113,120,-219,-128,-18,-172,-32,180,270,360,180,90,270,180,360,360,90,180,,,,,,,,,,,827.4686,827.4693,,0,32,32,32,1,10,novel,,,,,,,,,,,,,,,,,,,,,,,,,,,,,,,,,,,,,,,,,,,,,,,,,
,,7,7,${e://Field/PROLIFIC_PID,F,18,2023-11-03_05h29.19.306,MouseEye_CC,2023.2.2,Win32,59.95203837,1.22361573,,,1707,960,66.373,2.94,"41.72, 85.94, 33.86, 29.91, 32.64, 25.58, 21.92",513.83,11.58545024,34.06122372,27.83653633,Passed,114.1050995,,,,,,,,,,,,,,,,,,,,training,3,2,180,right,s,,,,,827.4696,827.8353,34.26124044,1.61114502,0.44442749,1,0,0,0.3656,fixationPoint,827.8353,827.9353,827.9353,832.9851,34.26124044,9788.925839,589.7827818,s,1,5.0236,,832.9851,833.1851,,,,,,,,88,126,-169,220,215,160,116,224,175,-212,64,-162,80,-126,164,-163,-171,-80,-218,-114,-116,71,-114,176,-74,180,180,180,90,360,360,360,270,180,180,360,,,,,,,,,,,833.1852,833.1853,,0,33,33,33,1,12,novel,,,,,,,,,,,,,,,,,,,,,,,,,,,,,,,,,,,,,,,,,,,,,,,,,
,,7,7,${e://Field/PROLIFIC_PID,F,18,2023-11-03_05h29.19.306,MouseEye_CC,2023.2.2,Win32,59.95203837,1.22361573,,,1707,960,66.373,2.94,"41.72, 85.94, 33.86, 29.91, 32.64, 25.58, 21.92",513.83,11.58545024,34.06122372,27.83653633,Passed,114.1050995,,,,,,,,,,,,,,,,,,,,training,3,3,0,left,a,,,,,833.1855,833.5685,34.26124044,1.61114502,0.44442749,1,0,0,0.3829,fixationPoint,833.5686,833.6684,833.6685,835.6351,34.26124044,9788.925839,589.7827818,a,1,1.9326,,835.6352,835.835,,,,,,,,62,-166,-77,73,172,29,161,29,23,-126,164,-212,64,-75,29,210,-16,28,-215,64,-208,-208,-27,-80,-218,270,360,180,90,90,180,90,180,90,180,360,,,,,,,,,,,835.8351,835.8352,,0,34,34,34,1,6,repeated,,,,,,,,,,,,,,,,,,,,,,,,,,,,,,,,,,,,,,,,,,,,,,,,,
,,7,7,${e://Field/PROLIFIC_PID,F,18,2023-11-03_05h29.19.306,MouseEye_CC,2023.2.2,Win32,59.95203837,1.22361573,,,1707,960,66.373,2.94,"41.72, 85.94, 33.86, 29.91, 32.64, 25.58, 21.92",513.83,11.58545024,34.06122372,27.83653633,Passed,114.1050995,,,,,,,,,,,,,,,,,,,,training,3,4,0,left,a,,,,,835.8355,836.235,34.26124044,1.61114502,0.44442749,1,0,0,0.3995,fixationPoint,836.2351,836.335,836.335,843.5349,34.26124044,9788.925839,589.7827818,a,1,7.1734,,843.535,843.7349,,,,,,,,33,-116,68,27,65,165,174,215,74,-71,-113,-17,-162,-166,-77,120,-78,114,-128,28,-215,-26,27,-75,29,270,270,270,180,360,360,90,360,180,180,270,,,,,,,,,,,843.7349,843.735,,0,35,35,35,1,3,repeated,,,,,,,,,,,,,,,,,,,,,,,,,,,,,,,,,,,,,,,,,,,,,,,,,
,,7,7,${e://Field/PROLIFIC_PID,F,18,2023-11-03_05h29.19.306,MouseEye_CC,2023.2.2,Win32,59.95203837,1.22361573,,,1707,960,66.373,2.94,"41.72, 85.94, 33.86, 29.91, 32.64, 25.58, 21.92",513.83,11.58545024,34.06122372,27.83653633,Passed,114.1050995,,,,,,,,,,,,,,,,,,,,training,3,5,0,left,a,,,,,843.7352,844.1349,34.26124044,1.61114502,0.44442749,1,0,0,0.3997,fixationPoint,844.1349,844.235,844.2351,847.3848,34.26124044,9788.925839,589.7827818,a,1,3.124,,847.3849,847.5847,,,,,,,,53,-128,-18,27,65,168,64,165,23,-217,210,-119,212,-170,217,175,-117,64,-208,27,-74,-17,-162,-68,-176,270,360,180,180,360,270,360,360,360,90,90,,,,,,,,,,,847.5849,847.585,,0,36,36,36,1,5,repeated,,,,,,,,,,,,,,,,,,,,,,,,,,,,,,,,,,,,,,,,,,,,,,,,,
,,7,7,${e://Field/PROLIFIC_PID,F,18,2023-11-03_05h29.19.306,MouseEye_CC,2023.2.2,Win32,59.95203837,1.22361573,,,1707,960,66.373,2.94,"41.72, 85.94, 33.86, 29.91, 32.64, 25.58, 21.92",513.83,11.58545024,34.06122372,27.83653633,Passed,114.1050995,,,,,,,,,,,,,,,,,,,,training,3,6,0,left,a,,,,,847.5853,847.9544,34.26124044,1.61114502,0.44442749,1,0,0,0.3691,fixationPoint,847.9545,848.0515,848.0516,849.3259,34.26124044,9788.925839,589.7827818,a,1,1.2526,,849.3259,849.518,,,,,,,,5,-30,218,165,23,124,162,67,17,-114,-116,-210,-224,-165,-215,120,-219,68,-172,169,-32,-116,68,-70,72,270,180,360,360,270,270,90,180,90,270,360,,,,,,,,,,,849.518,849.5181,,0,37,37,37,1,15,novel,,,,,,,,,,,,,,,,,,,,,,,,,,,,,,,,,,,,,,,,,,,,,,,,,
,,7,7,${e://Field/PROLIFIC_PID,F,18,2023-11-03_05h29.19.306,MouseEye_CC,2023.2.2,Win32,59.95203837,1.22361573,,,1707,960,66.373,2.94,"41.72, 85.94, 33.86, 29.91, 32.64, 25.58, 21.92",513.83,11.58545024,34.06122372,27.83653633,Passed,114.1050995,,,,,,,,,,,,,,,,,,,,training,3,7,180,right,s,,,,,849.5183,850.0681,34.26124044,1.61114502,0.44442749,1,0,0,0.5497,fixationPoint,850.0681,850.168,850.168,853.2513,34.26124044,9788.925839,589.7827818,s,1,3.0548,,853.2514,853.4513,,,,,,,,82,-163,-171,29,23,73,172,165,174,-176,168,-79,220,-213,170,64,-24,68,-172,214,-74,-208,-27,-172,-124,90,270,90,180,180,270,270,360,270,270,360,,,,,,,,,,,853.4513,853.4515,,0,38,38,38,1,9,novel,,,,,,,,,,,,,,,,,,,,,,,,,,,,,,,,,,,,,,,,,,,,,,,,,
,,7,7,${e://Field/PROLIFIC_PID,F,18,2023-11-03_05h29.19.306,MouseEye_CC,2023.2.2,Win32,59.95203837,1.22361573,,,1707,960,66.373,2.94,"41.72, 85.94, 33.86, 29.91, 32.64, 25.58, 21.92",513.83,11.58545024,34.06122372,27.83653633,Passed,114.1050995,,,,,,,,,,,,,,,,,,,,training,3,8,180,right,s,,,,,853.4518,853.8013,34.26124044,1.61114502,0.44442749,1,0,0,0.3494,fixationPoint,853.8013,853.9014,853.9014,858.1066,34.26124044,9788.925839,589.7827818,s,1,4.1833,,858.1067,858.3012,,,,,,,,7,79,208,-30,218,-20,120,-77,115,-172,-32,-172,-124,-68,-176,215,-220,116,-24,165,-217,29,161,220,215,270,270,180,360,180,360,270,90,270,180,270,,,,,,,,,,,858.3012,858.3013,,0,39,39,39,1,2,repeated,,,,,,,,,,,,,,,,,,,,,,,,,,,,,,,,,,,,,,,,,,,,,,,,,
,,7,7,${e://Field/PROLIFIC_PID,F,18,2023-11-03_05h29.19.306,MouseEye_CC,2023.2.2,Win32,59.95203837,1.22361573,,,1707,960,66.373,2.94,"41.72, 85.94, 33.86, 29.91, 32.64, 25.58, 21.92",513.83,11.58545024,34.06122372,27.83653633,Passed,114.1050995,,,,,,,,,,,,,,,,,,,,training,3,9,0,left,a,,,,,858.3015,858.7012,34.26124044,1.61114502,0.44442749,1,0,0,0.3997,fixationPoint,858.7012,858.8011,858.8011,862.0178,34.26124044,9788.925839,589.7827818,a,1,3.1804,,862.0178,862.2178,,,,,,,,79,175,-117,29,214,64,72,124,76,-176,168,-213,170,-26,27,-165,-215,-26,-117,-24,-71,215,-113,208,-174,360,180,180,180,180,90,270,180,360,180,180,,,,,,,,,,,862.2178,862.2179,,0,40,40,40,1,8,repeated,,,,,,,,,,,,,,,,,,,,,,,,,,,,,,,,,,,,,,,,,,,,,,,,,
,,7,7,${e://Field/PROLIFIC_PID,F,18,2023-11-03_05h29.19.306,MouseEye_CC,2023.2.2,Win32,59.95203837,1.22361573,,,1707,960,66.373,2.94,"41.72, 85.94, 33.86, 29.91, 32.64, 25.58, 21.92",513.83,11.58545024,34.06122372,27.83653633,Passed,114.1050995,,,,,,,,,,,,,,,,,,,,training,3,10,180,right,s,,,,,862.2182,862.651,34.26124044,1.61114502,0.44442749,1,0,0,0.4328,fixationPoint,862.6511,862.751,862.7511,869.8342,34.26124044,9788.925839,589.7827818,s,1,7.0488,,869.8343,870.0343,,,,,,,,39,168,64,-119,212,-213,170,-70,72,-124,-221,-114,-116,-128,-18,163,-165,25,-164,64,-208,124,76,79,208,360,90,180,360,180,270,360,270,180,180,270,,,,,,,,,,,870.0343,870.0344,,0,41,41,41,1,14,novel,,,,,,,,,,,,,,,,,,,,,,,,,,,,,,,,,,,,,,,,,,,,,,,,,
,,7,7,${e://Field/PROLIFIC_PID,F,18,2023-11-03_05h29.19.306,MouseEye_CC,2023.2.2,Win32,59.95203837,1.22361573,,,1707,960,66.373,2.94,"41.72, 85.94, 33.86, 29.91, 32.64, 25.58, 21.92",513.83,11.58545024,34.06122372,27.83653633,Passed,114.1050995,,,,,,,,,,,,,,,,,,,,training,3,11,0,left,a,,,,,870.0347,870.4175,34.26124044,1.61114502,0.44442749,1,0,0,0.3828,fixationPoint,870.4175,870.5176,870.5176,882.2084,34.26124044,9788.925839,589.7827818,s,0,11.669,,882.2085,886.2058,,,,,,,,19,165,174,-79,220,-24,73,-66,160,-172,-124,-80,-218,-17,-162,169,-32,120,-219,163,-165,116,28,160,116,270,360,180,90,90,180,90,90,90,90,90,,,,,,,,,,,886.2059,886.206,,0,42,42,42,1,1,repeated,,,,,,,,,,,,,,,,,,,,,,,,,,,,,,,,,,,,,,,,,,,,,,,,,
,,7,7,${e://Field/PROLIFIC_PID,F,18,2023-11-03_05h29.19.306,MouseEye_CC,2023.2.2,Win32,59.95203837,1.22361573,,,1707,960,66.373,2.94,"41.72, 85.94, 33.86, 29.91, 32.64, 25.58, 21.92",513.83,11.58545024,34.06122372,27.83653633,Passed,114.1050995,,,,,,,,,,,,,,,,,,,,training,3,12,180,right,s,,,,,886.2063,887.4506,34.26124044,2.944458008,-1.333343506,1,0,0,1.2441,fixationPoint,887.4507,887.5505,887.5505,888.6005,34.26124044,9788.925839,589.7827818,s,1,1.0208,,888.6005,888.7902,,,,,,,,13,-126,164,120,114,221,32,64,72,-72,-80,-210,-224,-24,-71,175,-117,64,-68,17,-115,-213,170,-172,116,360,360,90,270,360,180,180,360,180,270,180,,,,,,,,,,,888.7902,888.7904,,0,43,43,43,1,4,repeated,,,,,,,,,,,,,,,,,,,,,,,,,,,,,,,,,,,,,,,,,,,,,,,,,
,,7,7,${e://Field/PROLIFIC_PID,F,18,2023-11-03_05h29.19.306,MouseEye_CC,2023.2.2,Win32,59.95203837,1.22361573,,,1707,960,66.373,2.94,"41.72, 85.94, 33.86, 29.91, 32.64, 25.58, 21.92",513.83,11.58545024,34.06122372,27.83653633,Passed,114.1050995,,,,,,,,,,,,,,,,,,,,training,3,13,0,left,a,,,,,888.7908,890.2891,34.26124044,5.166687012,1.333343506,1,0,0,1.4982,fixationPoint,890.2891,890.3837,890.3837,893.5224,34.26124044,9788.925839,589.7827818,a,1,3.1146,,893.5225,893.717,,,,,,,,96,28,-215,22,117,165,23,215,74,-213,170,-170,217,-220,24,-71,-113,-80,-218,-124,-64,215,-113,71,-114,360,90,90,360,180,360,360,270,270,90,180,,,,,,,,,,,893.717,893.717,,0,44,44,44,1,7,repeated,,,,,,,,,,,,,,,,,,,,,,,,,,,,,,,,,,,,,,,,,,,,,,,,,
,,7,7,${e://Field/PROLIFIC_PID,F,18,2023-11-03_05h29.19.306,MouseEye_CC,2023.2.2,Win32,59.95203837,1.22361573,,,1707,960,66.373,2.94,"41.72, 85.94, 33.86, 29.91, 32.64, 25.58, 21.92",513.83,11.58545024,34.06122372,27.83653633,Passed,114.1050995,,,,,,,,,,,,,,,,,,,,training,3,14,0,left,a,,,,,893.7173,894.117,34.26124044,5.61114502,1.333343506,1,0,0,0.3997,fixationPoint,894.117,894.217,894.217,896.8556,34.26124044,9788.925839,589.7827818,a,1,2.6169,,896.8557,897.0502,,,,,,,,68,120,-78,168,64,68,127,160,116,-75,29,-30,218,-176,168,-128,-18,-224,-68,-80,-218,64,-68,163,-165,90,180,360,90,180,180,180,270,360,360,270,,,,,,,,,,,897.0503,897.0504,,0,45,45,45,1,11,novel,,,,,,,,,,,,,,,,,,,,,,,,,,,,,,,,,,,,,,,,,,,,,,,,,
,,7,7,${e://Field/PROLIFIC_PID,F,18,2023-11-03_05h29.19.306,MouseEye_CC,2023.2.2,Win32,59.95203837,1.22361573,,,1707,960,66.373,2.94,"41.72, 85.94, 33.86, 29.91, 32.64, 25.58, 21.92",513.83,11.58545024,34.06122372,27.83653633,Passed,114.1050995,,,,,,,,,,,,,,,,,,,,training,3,15,180,right,s,,,,,897.0508,897.5502,34.26124044,5.61114502,1.333343506,1,0,0,0.4993,fixationPoint,897.5502,897.6502,897.6503,901.3668,34.26124044,9788.925839,589.7827818,s,1,3.6845,,901.3669,901.5668,,,,,,,,22,-172,116,165,222,79,208,73,172,-24,-216,-166,-77,-71,-113,214,-74,163,-165,126,-169,-70,72,-119,212,90,180,90,90,270,360,90,180,90,270,270,,,,,,,,,,,901.5668,901.567,,0,46,46,46,1,16,novel,,,,,,,,,,,,,,,,,,,,,,,,,,,,,,,,,,,,,,,,,,,,,,,,,
,,7,7,${e://Field/PROLIFIC_PID,F,18,2023-11-03_05h29.19.306,MouseEye_CC,2023.2.2,Win32,59.95203837,1.22361573,,,1707,960,66.373,2.94,"41.72, 85.94, 33.86, 29.91, 32.64, 25.58, 21.92",513.83,11.58545024,34.06122372,27.83653633,Passed,114.1050995,,,,,,,,,,,,,,,,,,,,training,3,16,180,right,s,,,,,901.5672,901.9168,34.26124044,5.61114502,1.333343506,1,0,0,0.3496,fixationPoint,901.9169,902.0167,902.0167,907.1333,34.26124044,9788.925839,589.7827818,s,1,5.1022,,907.1335,907.3333,,,,,,,,48,116,28,-79,220,-172,116,-127,116,-221,-163,-71,-113,-26,-117,17,-115,208,-174,169,-32,73,172,224,175,270,90,270,360,360,180,270,180,90,360,180,,,,,,,,,,,907.3333,911.1332,space,0,47,47,47,1,13,novel,3.7891,,,,,,,,,,,,,,,,,,,,,,,,,,,,,,,,,,,,,,,,,,,,,,,,
,,7,7,${e://Field/PROLIFIC_PID,F,18,2023-11-03_05h29.19.306,MouseEye_CC,2023.2.2,Win32,59.95203837,1.22361573,,,1707,960,66.373,2.94,"41.72, 85.94, 33.86, 29.91, 32.64, 25.58, 21.92",513.83,11.58545024,34.06122372,27.83653633,Passed,114.1050995,,,,,,,,,,,,,,,,,,,,training,4,1,180,right,s,,,,,911.1379,912.0832,34.26124044,5.61114502,1.333343506,1,0,0,0.9452,fixationPoint,912.0833,912.1832,912.1832,915.4831,34.26124044,9788.925839,589.7827818,s,1,3.2719,,915.4833,915.683,,,,,,,,88,126,-169,168,64,79,208,73,172,-77,115,-172,116,-30,218,-17,-162,-72,-80,-26,-117,17,-115,68,-172,180,90,360,360,180,180,180,90,270,270,360,,,,,,,,,,,915.6831,915.6839,,0,48,48,48,1,12,novel,,,,,,,,,,,,,,,,,,,,,,,,,,,,,,,,,,,,,,,,,,,,,,,,,
,,7,7,${e://Field/PROLIFIC_PID,F,18,2023-11-03_05h29.19.306,MouseEye_CC,2023.2.2,Win32,59.95203837,1.22361573,,,1707,960,66.373,2.94,"41.72, 85.94, 33.86, 29.91, 32.64, 25.58, 21.92",513.83,11.58545024,34.06122372,27.83653633,Passed,114.1050995,,,,,,,,,,,,,,,,,,,,training,4,2,180,right,s,,,,,915.6842,916.0164,34.26124044,5.61114502,1.333343506,1,0,0,0.3322,fixationPoint,916.0164,916.1164,916.1165,917.0719,34.26124044,9788.925839,589.7827818,s,1,0.9337,,917.0719,917.2664,,,,,,,,13,-126,164,120,114,221,32,64,72,-72,-80,-210,-224,-24,-71,175,-117,64,-68,17,-115,-213,170,-172,116,360,180,270,270,270,180,270,180,180,360,270,,,,,,,,,,,917.2665,917.2666,,0,49,49,49,1,4,repeated,,,,,,,,,,,,,,,,,,,,,,,,,,,,,,,,,,,,,,,,,,,,,,,,,
,,7,7,${e://Field/PROLIFIC_PID,F,18,2023-11-03_05h29.19.306,MouseEye_CC,2023.2.2,Win32,59.95203837,1.22361573,,,1707,960,66.373,2.94,"41.72, 85.94, 33.86, 29.91, 32.64, 25.58, 21.92",513.83,11.58545024,34.06122372,27.83653633,Passed,114.1050995,,,,,,,,,,,,,,,,,,,,training,4,3,0,left,a,,,,,917.2668,917.6497,34.26124044,5.61114502,1.333343506,1,0,0,0.3829,fixationPoint,917.6497,917.7497,917.7497,920.0883,34.26124044,9788.925839,589.7827818,a,1,2.3168,,920.0884,920.2829,,,,,,,,82,-163,-171,73,172,220,127,120,114,-126,164,-113,19,-20,120,175,-117,163,-165,64,-24,-124,-221,-172,-124,270,360,270,180,90,180,180,270,270,270,90,,,,,,,,,,,920.283,920.2832,,0,50,50,50,1,9,novel,,,,,,,,,,,,,,,,,,,,,,,,,,,,,,,,,,,,,,,,,,,,,,,,,
,,7,7,${e://Field/PROLIFIC_PID,F,18,2023-11-03_05h29.19.306,MouseEye_CC,2023.2.2,Win32,59.95203837,1.22361573,,,1707,960,66.373,2.94,"41.72, 85.94, 33.86, 29.91, 32.64, 25.58, 21.92",513.83,11.58545024,34.06122372,27.83653633,Passed,114.1050995,,,,,,,,,,,,,,,,,,,,training,4,4,180,right,s,,,,,920.2833,920.633,34.26124044,5.61114502,1.333343506,1,0,0,0.3496,fixationPoint,920.633,920.7214,920.7215,922.1496,34.26124044,9788.925839,589.7827818,s,1,1.4078,,922.1496,922.3496,,,,,,,,7,79,208,-30,218,-20,120,-77,115,-172,-32,-172,-124,-68,-176,215,-220,116,-24,165,-217,29,161,220,215,180,360,180,180,270,90,270,180,90,90,270,,,,,,,,,,,922.3497,922.3497,,0,51,51,51,1,2,repeated,,,,,,,,,,,,,,,,,,,,,,,,,,,,,,,,,,,,,,,,,,,,,,,,,
,,7,7,${e://Field/PROLIFIC_PID,F,18,2023-11-03_05h29.19.306,MouseEye_CC,2023.2.2,Win32,59.95203837,1.22361573,,,1707,960,66.373,2.94,"41.72, 85.94, 33.86, 29.91, 32.64, 25.58, 21.92",513.83,11.58545024,34.06122372,27.83653633,Passed,114.1050995,,,,,,,,,,,,,,,,,,,,training,4,5,0,left,a,,,,,922.35,922.6996,34.26124044,5.61114502,1.333343506,1,0,0,0.3496,fixationPoint,922.6996,922.7995,922.7995,928.5548,34.26124044,9788.925839,589.7827818,a,1,5.7335,,928.5549,928.7494,,,,,,,,33,-116,68,27,65,165,174,215,74,-71,-113,-17,-162,-166,-77,120,-78,114,-128,28,-215,-26,27,-75,29,90,360,180,360,360,360,90,360,90,270,270,,,,,,,,,,,928.7494,928.7495,,0,52,52,52,1,3,repeated,,,,,,,,,,,,,,,,,,,,,,,,,,,,,,,,,,,,,,,,,,,,,,,,,
,,7,7,${e://Field/PROLIFIC_PID,F,18,2023-11-03_05h29.19.306,MouseEye_CC,2023.2.2,Win32,59.95203837,1.22361573,,,1707,960,66.373,2.94,"41.72, 85.94, 33.86, 29.91, 32.64, 25.58, 21.92",513.83,11.58545024,34.06122372,27.83653633,Passed,114.1050995,,,,,,,,,,,,,,,,,,,,training,4,6,0,left,a,,,,,928.7498,929.1161,34.26124044,5.61114502,1.333343506,1,0,0,0.3662,fixationPoint,929.1161,929.216,929.2161,936.3326,34.26124044,9788.925839,589.7827818,a,1,7.0844,,936.3327,936.5325,,,,,,,,39,168,64,-70,72,-212,64,-170,217,-163,-171,-72,-80,-210,-224,210,-16,32,-29,68,-172,67,17,165,23,180,180,90,180,360,90,90,360,270,180,270,,,,,,,,,,,936.5326,936.5327,,0,53,53,53,1,14,novel,,,,,,,,,,,,,,,,,,,,,,,,,,,,,,,,,,,,,,,,,,,,,,,,,
,,7,7,${e://Field/PROLIFIC_PID,F,18,2023-11-03_05h29.19.306,MouseEye_CC,2023.2.2,Win32,59.95203837,1.22361573,,,1707,960,66.373,2.94,"41.72, 85.94, 33.86, 29.91, 32.64, 25.58, 21.92",513.83,11.58545024,34.06122372,27.83653633,Passed,114.1050995,,,,,,,,,,,,,,,,,,,,training,4,7,180,right,s,,,,,936.533,936.9993,34.26124044,5.61114502,1.333343506,1,0,0,0.4662,fixationPoint,936.9993,937.0991,937.0992,940.6158,34.26124044,9788.925839,589.7827818,s,1,3.4901,,940.6158,940.8158,,,,,,,,53,-128,-18,27,65,168,64,165,23,-217,210,-119,212,-170,217,175,-117,64,-208,27,-74,-17,-162,-68,-176,90,270,180,90,270,180,90,270,90,270,180,,,,,,,,,,,940.8158,940.8159,,0,54,54,54,1,5,repeated,,,,,,,,,,,,,,,,,,,,,,,,,,,,,,,,,,,,,,,,,,,,,,,,,
,,7,7,${e://Field/PROLIFIC_PID,F,18,2023-11-03_05h29.19.306,MouseEye_CC,2023.2.2,Win32,59.95203837,1.22361573,,,1707,960,66.373,2.94,"41.72, 85.94, 33.86, 29.91, 32.64, 25.58, 21.92",513.83,11.58545024,34.06122372,27.83653633,Passed,114.1050995,,,,,,,,,,,,,,,,,,,,training,4,8,0,left,a,,,,,940.8163,941.2158,34.26124044,5.61114502,1.333343506,1,0,0,0.3995,fixationPoint,941.2158,941.3157,941.3157,942.8545,34.26124044,9788.925839,589.7827818,a,1,1.517,,942.8545,943.0491,,,,,,,,19,165,174,-79,220,-24,73,-66,160,-172,-124,-80,-218,-17,-162,169,-32,120,-219,163,-165,116,28,160,116,180,180,360,180,90,180,90,360,360,180,360,,,,,,,,,,,943.0491,943.0492,,0,55,55,55,1,1,repeated,,,,,,,,,,,,,,,,,,,,,,,,,,,,,,,,,,,,,,,,,,,,,,,,,
,,7,7,${e://Field/PROLIFIC_PID,F,18,2023-11-03_05h29.19.306,MouseEye_CC,2023.2.2,Win32,59.95203837,1.22361573,,,1707,960,66.373,2.94,"41.72, 85.94, 33.86, 29.91, 32.64, 25.58, 21.92",513.83,11.58545024,34.06122372,27.83653633,Passed,114.1050995,,,,,,,,,,,,,,,,,,,,training,4,9,180,right,s,,,,,943.0495,943.4658,34.26124044,5.61114502,1.333343506,1,0,0,0.4162,fixationPoint,943.4658,943.5658,943.5658,944.6159,34.26124044,9788.925839,589.7827818,s,1,1.0171,,944.6159,944.8157,,,,,,,,5,-30,218,116,28,73,172,220,127,-26,-117,-214,-118,-208,-27,25,-164,116,-24,64,-68,-119,212,-213,170,90,360,270,180,360,360,270,360,270,360,360,,,,,,,,,,,944.8157,944.8158,,0,56,56,56,1,15,novel,,,,,,,,,,,,,,,,,,,,,,,,,,,,,,,,,,,,,,,,,,,,,,,,,
,,7,7,${e://Field/PROLIFIC_PID,F,18,2023-11-03_05h29.19.306,MouseEye_CC,2023.2.2,Win32,59.95203837,1.22361573,,,1707,960,66.373,2.94,"41.72, 85.94, 33.86, 29.91, 32.64, 25.58, 21.92",513.83,11.58545024,34.06122372,27.83653633,Passed,114.1050995,,,,,,,,,,,,,,,,,,,,training,4,10,0,left,a,,,,,944.8161,945.2489,34.26124044,5.61114502,1.333343506,1,0,0,0.4328,fixationPoint,945.2491,945.349,945.349,949.6822,34.26124044,9788.925839,589.7827818,a,1,4.3041,,949.6822,949.8822,,,,,,,,22,-172,116,120,114,29,161,124,76,-71,-113,-24,-216,-114,-116,17,-115,64,-68,32,-29,-77,115,-176,168,270,180,360,360,90,90,270,270,360,360,180,,,,,,,,,,,949.8822,949.8824,,0,57,57,57,1,16,novel,,,,,,,,,,,,,,,,,,,,,,,,,,,,,,,,,,,,,,,,,,,,,,,,,
,,7,7,${e://Field/PROLIFIC_PID,F,18,2023-11-03_05h29.19.306,MouseEye_CC,2023.2.2,Win32,59.95203837,1.22361573,,,1707,960,66.373,2.94,"41.72, 85.94, 33.86, 29.91, 32.64, 25.58, 21.92",513.83,11.58545024,34.06122372,27.83653633,Passed,114.1050995,,,,,,,,,,,,,,,,,,,,training,4,11,0,left,a,,,,,949.8826,950.2489,34.26124044,5.61114502,1.333343506,1,0,0,0.3662,fixationPoint,950.2489,950.3489,950.349,954.6822,34.26124044,9788.925839,589.7827818,a,1,4.3063,,954.6822,954.8821,,,,,,,,68,120,-78,67,17,116,28,165,23,-119,212,-213,170,-66,160,-172,-124,-124,-221,-71,-113,64,-208,68,-172,360,270,270,90,90,270,180,360,180,270,90,,,,,,,,,,,954.8821,954.8823,,0,58,58,58,1,11,novel,,,,,,,,,,,,,,,,,,,,,,,,,,,,,,,,,,,,,,,,,,,,,,,,,
,,7,7,${e://Field/PROLIFIC_PID,F,18,2023-11-03_05h29.19.306,MouseEye_CC,2023.2.2,Win32,59.95203837,1.22361573,,,1707,960,66.373,2.94,"41.72, 85.94, 33.86, 29.91, 32.64, 25.58, 21.92",513.83,11.58545024,34.06122372,27.83653633,Passed,114.1050995,,,,,,,,,,,,,,,,,,,,training,4,12,180,right,s,,,,,954.8825,955.2375,34.26124044,5.61114502,1.333343506,1,0,0,0.355,fixationPoint,955.2376,955.332,955.3321,958.782,34.26124044,9788.925839,589.7827818,s,1,3.4267,,958.7821,958.9705,,,,,,,,94,-80,-218,168,64,29,23,27,65,-217,210,-164,29,-79,220,175,-117,71,-114,114,-128,-163,-171,-210,-224,270,270,270,360,180,180,270,270,270,90,270,,,,,,,,,,,958.9706,958.9707,,0,59,59,59,1,10,novel,,,,,,,,,,,,,,,,,,,,,,,,,,,,,,,,,,,,,,,,,,,,,,,,,
,,7,7,${e://Field/PROLIFIC_PID,F,18,2023-11-03_05h29.19.306,MouseEye_CC,2023.2.2,Win32,59.95203837,1.22361573,,,1707,960,66.373,2.94,"41.72, 85.94, 33.86, 29.91, 32.64, 25.58, 21.92",513.83,11.58545024,34.06122372,27.83653633,Passed,114.1050995,,,,,,,,,,,,,,,,,,,,training,4,13,180,right,s,,,,,958.9708,959.3654,34.26124044,5.61114502,1.333343506,1,0,0,0.3944,fixationPoint,959.3654,959.4686,959.4686,962.5875,34.26124044,9788.925839,589.7827818,s,1,3.1014,,962.5876,962.782,,,,,,,,62,-166,-77,73,172,29,161,29,23,-126,164,-212,64,-75,29,210,-16,28,-215,64,-208,-208,-27,-80,-218,180,180,90,360,180,270,270,270,270,270,180,,,,,,,,,,,962.782,962.7821,,0,60,60,60,1,6,repeated,,,,,,,,,,,,,,,,,,,,,,,,,,,,,,,,,,,,,,,,,,,,,,,,,
,,7,7,${e://Field/PROLIFIC_PID,F,18,2023-11-03_05h29.19.306,MouseEye_CC,2023.2.2,Win32,59.95203837,1.22361573,,,1707,960,66.373,2.94,"41.72, 85.94, 33.86, 29.91, 32.64, 25.58, 21.92",513.83,11.58545024,34.06122372,27.83653633,Passed,114.1050995,,,,,,,,,,,,,,,,,,,,training,4,14,180,right,s,,,,,962.7823,963.1652,34.26124044,5.61114502,1.333343506,1,0,0,0.3829,fixationPoint,963.1653,963.2653,963.2653,966.3039,34.26124044,9788.925839,589.7827818,s,1,3.017,,966.3039,966.4985,,,,,,,,96,28,-215,22,117,165,23,215,74,-213,170,-170,217,-220,24,-71,-113,-80,-218,-124,-64,215,-113,71,-114,180,270,270,90,270,180,360,270,270,180,180,,,,,,,,,,,966.4986,966.4987,,0,61,61,61,1,7,repeated,,,,,,,,,,,,,,,,,,,,,,,,,,,,,,,,,,,,,,,,,,,,,,,,,
,,7,7,${e://Field/PROLIFIC_PID,F,18,2023-11-03_05h29.19.306,MouseEye_CC,2023.2.2,Win32,59.95203837,1.22361573,,,1707,960,66.373,2.94,"41.72, 85.94, 33.86, 29.91, 32.64, 25.58, 21.92",513.83,11.58545024,34.06122372,27.83653633,Passed,114.1050995,,,,,,,,,,,,,,,,,,,,training,4,15,0,left,a,,,,,966.499,966.8985,34.26124044,5.61114502,1.333343506,1,0,0,0.3994,fixationPoint,966.8985,967.0037,967.0038,970.8318,34.26124044,9788.925839,589.7827818,a,1,3.8081,,970.8319,971.0317,,,,,,,,79,175,-117,29,214,64,72,124,76,-176,168,-213,170,-26,27,-165,-215,-26,-117,-24,-71,215,-113,208,-174,270,270,360,360,180,180,90,180,90,270,270,,,,,,,,,,,971.0317,971.0318,,0,62,62,62,1,8,repeated,,,,,,,,,,,,,,,,,,,,,,,,,,,,,,,,,,,,,,,,,,,,,,,,,
,,7,7,${e://Field/PROLIFIC_PID,F,18,2023-11-03_05h29.19.306,MouseEye_CC,2023.2.2,Win32,59.95203837,1.22361573,,,1707,960,66.373,2.94,"41.72, 85.94, 33.86, 29.91, 32.64, 25.58, 21.92",513.83,11.58545024,34.06122372,27.83653633,Passed,114.1050995,,,,,,,,,,,,,,,,,,,,training,4,16,0,left,a,,,,,971.032,971.4317,34.26124044,5.61114502,1.333343506,1,0,0,0.3996,fixationPoint,971.4317,971.5317,971.5318,973.4204,34.26124044,9788.925839,589.7827818,a,1,1.867,,973.4205,973.615,,,,,,,,48,116,28,-66,160,-220,24,-79,220,-71,-113,-124,-221,-17,-162,215,-113,126,-169,175,-117,124,162,220,215,270,270,360,90,180,270,360,90,90,180,90,,,,,,,,,,,973.615,983.1892,space,0,63,63,63,1,13,novel,9.5521,,,,,,,,,,,,,,,,,,,,,,,,,,,,,,,,,,,,,,,,,,,,,,,,
,,7,7,${e://Field/PROLIFIC_PID,F,18,2023-11-03_05h29.19.306,MouseEye_CC,2023.2.2,Win32,59.95203837,1.22361573,,,1707,960,66.373,2.94,"41.72, 85.94, 33.86, 29.91, 32.64, 25.58, 21.92",513.83,11.58545024,34.06122372,27.83653633,Passed,114.1050995,,,,,,,,,,,,,,,,,,,,training,5,1,0,left,a,,,,,983.1942,984.1314,34.26124044,5.61114502,1.333343506,1,0,0,0.9372,fixationPoint,984.1315,984.2314,984.2314,988.0314,34.26124044,9788.925839,589.7827818,a,1,3.7732,,988.0315,988.2198,,,,,,,,19,165,174,-79,220,-24,73,-66,160,-172,-124,-80,-218,-17,-162,169,-32,120,-219,163,-165,116,28,160,116,270,360,180,90,360,90,270,270,180,90,270,,,,,,,,,,,988.2198,988.2206,,0,64,64,64,1,1,repeated,,,,,,,,,,,,,,,,,,,,,,,,,,,,,,,,,,,,,,,,,,,,,,,,,
,,7,7,${e://Field/PROLIFIC_PID,F,18,2023-11-03_05h29.19.306,MouseEye_CC,2023.2.2,Win32,59.95203837,1.22361573,,,1707,960,66.373,2.94,"41.72, 85.94, 33.86, 29.91, 32.64, 25.58, 21.92",513.83,11.58545024,34.06122372,27.83653633,Passed,114.1050995,,,,,,,,,,,,,,,,,,,,training,5,2,0,left,a,,,,,988.2208,988.6813,34.26124044,5.61114502,1.333343506,1,0,0,0.4605,fixationPoint,988.6814,988.7813,988.7814,993.1557,34.26124044,9788.925839,589.7827818,a,1,4.3502,,993.1557,993.3479,,,,,,,,96,28,-215,22,117,165,23,215,74,-213,170,-170,217,-220,24,-71,-113,-80,-218,-124,-64,215,-113,71,-114,90,360,270,90,360,360,180,180,270,90,90,,,,,,,,,,,993.3479,993.348,,0,65,65,65,1,7,repeated,,,,,,,,,,,,,,,,,,,,,,,,,,,,,,,,,,,,,,,,,,,,,,,,,
,,7,7,${e://Field/PROLIFIC_PID,F,18,2023-11-03_05h29.19.306,MouseEye_CC,2023.2.2,Win32,59.95203837,1.22361573,,,1707,960,66.373,2.94,"41.72, 85.94, 33.86, 29.91, 32.64, 25.58, 21.92",513.83,11.58545024,34.06122372,27.83653633,Passed,114.1050995,,,,,,,,,,,,,,,,,,,,training,5,3,180,right,s,,,,,993.3482,993.7145,34.26124044,5.61114502,1.333343506,1,0,0,0.3663,fixationPoint,993.7146,993.8144,993.8144,994.7812,34.26124044,9788.925839,589.7827818,s,1,0.9362,,994.7813,994.9812,,,,,,,,13,-126,164,120,114,221,32,64,72,-72,-80,-210,-224,-24,-71,175,-117,64,-68,17,-115,-213,170,-172,116,90,90,90,90,270,360,360,360,90,270,90,,,,,,,,,,,994.9812,994.9813,,0,66,66,66,1,4,repeated,,,,,,,,,,,,,,,,,,,,,,,,,,,,,,,,,,,,,,,,,,,,,,,,,
,,7,7,${e://Field/PROLIFIC_PID,F,18,2023-11-03_05h29.19.306,MouseEye_CC,2023.2.2,Win32,59.95203837,1.22361573,,,1707,960,66.373,2.94,"41.72, 85.94, 33.86, 29.91, 32.64, 25.58, 21.92",513.83,11.58545024,34.06122372,27.83653633,Passed,114.1050995,,,,,,,,,,,,,,,,,,,,training,5,4,180,right,s,,,,,994.9816,995.4644,34.26124044,5.61114502,1.333343506,1,0,0,0.4828,fixationPoint,995.4644,995.5645,995.5645,997.2556,34.26124044,9788.925839,589.7827818,s,1,1.6695,,997.2557,997.4478,,,,,,,,39,168,64,-75,29,-220,24,-79,220,-31,-24,-17,-162,-124,-221,64,-68,25,-164,64,-24,215,74,165,23,360,180,270,360,90,180,180,180,270,180,180,,,,,,,,,,,997.4478,997.4479,,0,67,67,67,1,14,novel,,,,,,,,,,,,,,,,,,,,,,,,,,,,,,,,,,,,,,,,,,,,,,,,,
,,7,7,${e://Field/PROLIFIC_PID,F,18,2023-11-03_05h29.19.306,MouseEye_CC,2023.2.2,Win32,59.95203837,1.22361573,,,1707,960,66.373,2.94,"41.72, 85.94, 33.86, 29.91, 32.64, 25.58, 21.92",513.83,11.58545024,34.06122372,27.83653633,Passed,114.1050995,,,,,,,,,,,,,,,,,,,,training,5,5,0,left,a,,,,,997.4482,998.1144,34.26124044,5.61114502,1.333343506,1,0,0,0.6661,fixationPoint,998.1145,998.2144,998.2144,1002.4686,34.26124044,9788.925839,589.7827818,a,1,4.2325,,1002.4688,1002.6643,,,,,,,,5,-30,218,79,208,68,127,160,116,-166,-77,-221,-163,-70,-19,64,-24,210,-16,165,-217,-213,170,-176,168,360,90,270,180,360,270,180,180,90,90,180,,,,,,,,,,,1002.6643,1002.6644,,0,68,68,68,1,15,novel,,,,,,,,,,,,,,,,,,,,,,,,,,,,,,,,,,,,,,,,,,,,,,,,,
,,7,7,${e://Field/PROLIFIC_PID,F,18,2023-11-03_05h29.19.306,MouseEye_CC,2023.2.2,Win32,59.95203837,1.22361573,,,1707,960,66.373,2.94,"41.72, 85.94, 33.86, 29.91, 32.64, 25.58, 21.92",513.83,11.58545024,34.06122372,27.83653633,Passed,114.1050995,,,,,,,,,,,,,,,,,,,,training,5,6,180,right,s,,,,,1002.6647,1003.1475,34.26124044,5.61114502,1.333343506,1,0,0,0.4828,fixationPoint,1003.1475,1003.2476,1003.2476,1005.0696,34.26124044,9788.925839,589.7827818,s,1,1.8002,,1005.0697,1005.2641,,,,,,,,22,-172,116,29,23,124,76,165,222,-208,-27,-163,-171,-24,-216,64,-24,169,-32,126,-169,-119,212,-126,164,180,360,270,360,180,90,270,360,270,90,360,,,,,,,,,,,1005.2642,1005.2643,,0,69,69,69,1,16,novel,,,,,,,,,,,,,,,,,,,,,,,,,,,,,,,,,,,,,,,,,,,,,,,,,
,,7,7,${e://Field/PROLIFIC_PID,F,18,2023-11-03_05h29.19.306,MouseEye_CC,2023.2.2,Win32,59.95203837,1.22361573,,,1707,960,66.373,2.94,"41.72, 85.94, 33.86, 29.91, 32.64, 25.58, 21.92",513.83,11.58545024,34.06122372,27.83653633,Passed,114.1050995,,,,,,,,,,,,,,,,,,,,training,5,7,0,left,a,,,,,1005.2645,1005.7475,34.26124044,5.61114502,1.333343506,1,0,0,0.4828,fixationPoint,1005.7475,1005.8475,1005.8475,1008.5864,34.26124044,9788.925839,589.7827818,a,1,2.717,,1008.5864,1008.7807,,,,,,,,82,-163,-171,160,116,221,32,29,214,-26,27,-113,19,-70,72,28,-215,64,-24,215,-113,-124,-221,-208,-27,90,90,90,270,270,360,360,360,180,270,90,,,,,,,,,,,1008.7808,1008.7809,,0,70,70,70,1,9,novel,,,,,,,,,,,,,,,,,,,,,,,,,,,,,,,,,,,,,,,,,,,,,,,,,
,,7,7,${e://Field/PROLIFIC_PID,F,18,2023-11-03_05h29.19.306,MouseEye_CC,2023.2.2,Win32,59.95203837,1.22361573,,,1707,960,66.373,2.94,"41.72, 85.94, 33.86, 29.91, 32.64, 25.58, 21.92",513.83,11.58545024,34.06122372,27.83653633,Passed,114.1050995,,,,,,,,,,,,,,,,,,,,training,5,8,0,left,a,,,,,1008.7814,1009.1475,34.26124044,5.61114502,1.333343506,1,0,0,0.366,fixationPoint,1009.1475,1009.2359,1009.2359,1011.7974,34.26124044,9788.925839,589.7827818,a,1,2.5443,,1011.7974,1011.9974,,,,,,,,53,-128,-18,27,65,168,64,165,23,-217,210,-119,212,-170,217,175,-117,64,-208,27,-74,-17,-162,-68,-176,180,360,270,360,90,90,270,90,90,270,270,,,,,,,,,,,1011.9975,1011.9976,,0,71,71,71,1,5,repeated,,,,,,,,,,,,,,,,,,,,,,,,,,,,,,,,,,,,,,,,,,,,,,,,,
,,7,7,${e://Field/PROLIFIC_PID,F,18,2023-11-03_05h29.19.306,MouseEye_CC,2023.2.2,Win32,59.95203837,1.22361573,,,1707,960,66.373,2.94,"41.72, 85.94, 33.86, 29.91, 32.64, 25.58, 21.92",513.83,11.58545024,34.06122372,27.83653633,Passed,114.1050995,,,,,,,,,,,,,,,,,,,,training,5,9,180,right,s,,,,,1011.9979,1012.5474,34.26124044,5.61114502,1.333343506,1,0,0,0.5494,fixationPoint,1012.5475,1012.6474,1012.6474,1016.284,34.26124044,9788.925839,589.7827818,s,1,3.6149,,1016.2841,1016.4859,,,,,,,,88,126,-169,224,175,168,64,165,23,-24,73,-127,116,-70,72,-68,-176,-31,-24,-24,-216,64,-24,64,-208,360,180,180,360,360,360,90,270,180,360,90,,,,,,,,,,,1016.4859,1016.486,,0,72,72,72,1,12,novel,,,,,,,,,,,,,,,,,,,,,,,,,,,,,,,,,,,,,,,,,,,,,,,,,
,,7,7,${e://Field/PROLIFIC_PID,F,18,2023-11-03_05h29.19.306,MouseEye_CC,2023.2.2,Win32,59.95203837,1.22361573,,,1707,960,66.373,2.94,"41.72, 85.94, 33.86, 29.91, 32.64, 25.58, 21.92",513.83,11.58545024,34.06122372,27.83653633,Passed,114.1050995,,,,,,,,,,,,,,,,,,,,training,5,10,180,right,s,,,,,1016.4862,1016.914,34.26124044,5.61114502,1.333343506,1,0,0,0.4276,fixationPoint,1016.914,1017.0139,1017.014,1019.6805,34.26124044,9788.925839,589.7827818,s,1,2.6327,,1019.6806,1019.8805,,,,,,,,79,175,-117,29,214,64,72,124,76,-176,168,-213,170,-26,27,-165,-215,-26,-117,-24,-71,215,-113,208,-174,360,360,90,180,360,270,90,180,90,180,180,,,,,,,,,,,1019.8805,1019.8806,,0,73,73,73,1,8,repeated,,,,,,,,,,,,,,,,,,,,,,,,,,,,,,,,,,,,,,,,,,,,,,,,,
,,7,7,${e://Field/PROLIFIC_PID,F,18,2023-11-03_05h29.19.306,MouseEye_CC,2023.2.2,Win32,59.95203837,1.22361573,,,1707,960,66.373,2.94,"41.72, 85.94, 33.86, 29.91, 32.64, 25.58, 21.92",513.83,11.58545024,34.06122372,27.83653633,Passed,114.1050995,,,,,,,,,,,,,,,,,,,,training,5,11,180,right,s,,,,,1019.881,1020.3138,34.26124044,5.61114502,1.333343506,1,0,0,0.4328,fixationPoint,1020.3138,1020.4138,1020.4139,1024.2216,34.26124044,9788.925839,589.7827818,s,1,3.8036,,1024.2216,1024.4138,,,,,,,,68,120,-78,165,222,221,32,29,23,-77,115,-162,80,-79,220,-26,-117,-80,-218,-68,-176,64,-68,64,-24,180,270,270,90,270,270,90,270,360,90,180,,,,,,,,,,,1024.4138,1024.4139,,0,74,74,74,1,11,novel,,,,,,,,,,,,,,,,,,,,,,,,,,,,,,,,,,,,,,,,,,,,,,,,,
,,7,7,${e://Field/PROLIFIC_PID,F,18,2023-11-03_05h29.19.306,MouseEye_CC,2023.2.2,Win32,59.95203837,1.22361573,,,1707,960,66.373,2.94,"41.72, 85.94, 33.86, 29.91, 32.64, 25.58, 21.92",513.83,11.58545024,34.06122372,27.83653633,Passed,114.1050995,,,,,,,,,,,,,,,,,,,,training,5,12,0,left,a,,,,,1024.4142,1024.8638,34.26124044,5.61114502,1.333343506,1,0,0,0.4495,fixationPoint,1024.8638,1024.9637,1024.9637,1029.2357,34.26124044,9788.925839,589.7827818,a,1,4.2492,,1029.2358,1029.4302,,,,,,,,33,-116,68,27,65,165,174,215,74,-71,-113,-17,-162,-166,-77,120,-78,114,-128,28,-215,-26,27,-75,29,90,180,180,360,360,360,180,90,180,360,180,,,,,,,,,,,1029.4303,1029.4304,,0,75,75,75,1,3,repeated,,,,,,,,,,,,,,,,,,,,,,,,,,,,,,,,,,,,,,,,,,,,,,,,,
,,7,7,${e://Field/PROLIFIC_PID,F,18,2023-11-03_05h29.19.306,MouseEye_CC,2023.2.2,Win32,59.95203837,1.22361573,,,1707,960,66.373,2.94,"41.72, 85.94, 33.86, 29.91, 32.64, 25.58, 21.92",513.83,11.58545024,34.06122372,27.83653633,Passed,114.1050995,,,,,,,,,,,,,,,,,,,,training,5,13,180,right,s,,,,,1029.4307,1029.8469,34.26124044,5.61114502,1.333343506,1,0,0,0.4162,fixationPoint,1029.8469,1029.9468,1029.9469,1033.8969,34.26124044,9788.925839,589.7827818,s,1,3.9239,,1033.897,1034.0968,,,,,,,,62,-166,-77,73,172,29,161,29,23,-126,164,-212,64,-75,29,210,-16,28,-215,64,-208,-208,-27,-80,-218,180,270,180,270,270,270,90,270,360,360,270,,,,,,,,,,,1034.0969,1034.097,,0,76,76,76,1,6,repeated,,,,,,,,,,,,,,,,,,,,,,,,,,,,,,,,,,,,,,,,,,,,,,,,,
,,7,7,${e://Field/PROLIFIC_PID,F,18,2023-11-03_05h29.19.306,MouseEye_CC,2023.2.2,Win32,59.95203837,1.22361573,,,1707,960,66.373,2.94,"41.72, 85.94, 33.86, 29.91, 32.64, 25.58, 21.92",513.83,11.58545024,34.06122372,27.83653633,Passed,114.1050995,,,,,,,,,,,,,,,,,,,,training,5,14,0,left,a,,,,,1034.0973,1034.4634,34.26124044,5.61114502,1.333343506,1,0,0,0.3661,fixationPoint,1034.4634,1034.5635,1034.5635,1043.5133,34.26124044,9788.925839,589.7827818,s,0,8.9156,,1043.5134,1047.5131,,,,,,,,7,79,208,-30,218,-20,120,-77,115,-172,-32,-172,-124,-68,-176,215,-220,116,-24,165,-217,29,161,220,215,90,270,180,90,180,180,90,360,270,90,360,,,,,,,,,,,1047.5131,1047.5186,,0,77,77,77,1,2,repeated,,,,,,,,,,,,,,,,,,,,,,,,,,,,,,,,,,,,,,,,,,,,,,,,,
,,7,7,${e://Field/PROLIFIC_PID,F,18,2023-11-03_05h29.19.306,MouseEye_CC,2023.2.2,Win32,59.95203837,1.22361573,,,1707,960,66.373,2.94,"41.72, 85.94, 33.86, 29.91, 32.64, 25.58, 21.92",513.83,11.58545024,34.06122372,27.83653633,Passed,114.1050995,,,,,,,,,,,,,,,,,,,,training,5,15,0,left,a,,,,,1047.5189,1048.1132,34.26124044,6.944458008,1.333343506,1,0,0,0.5943,fixationPoint,1048.1132,1048.2131,1048.2132,1052.9631,34.26124044,9788.925839,589.7827818,a,1,4.7159,,1052.9631,1053.163,,,,,,,,48,116,28,-220,24,-172,116,-217,210,-224,-68,-124,-221,-214,-118,208,-174,68,-172,71,-114,67,17,165,23,360,90,90,180,270,90,360,360,360,90,180,,,,,,,,,,,1053.163,1053.163,,0,78,78,78,1,13,novel,,,,,,,,,,,,,,,,,,,,,,,,,,,,,,,,,,,,,,,,,,,,,,,,,
,,7,7,${e://Field/PROLIFIC_PID,F,18,2023-11-03_05h29.19.306,MouseEye_CC,2023.2.2,Win32,59.95203837,1.22361573,,,1707,960,66.373,2.94,"41.72, 85.94, 33.86, 29.91, 32.64, 25.58, 21.92",513.83,11.58545024,34.06122372,27.83653633,Passed,114.1050995,,,,,,,,,,,,,,,,,,,,training,5,16,180,right,s,,,,,1053.1633,1053.5796,34.26124044,6.944458008,1.333343506,1,0,0,0.4163,fixationPoint,1053.5797,1053.6796,1053.6796,1055.7031,34.26124044,9788.925839,589.7827818,s,1,2.0017,,1055.7031,1055.8964,,,,,,,,94,-80,-218,124,76,79,208,165,222,-176,168,-20,120,-162,80,210,-16,126,-169,120,-78,-172,-124,-26,-117,270,270,90,180,270,270,270,90,360,180,270,,,,,,,,,,,1055.8964,1062.235,space,0,79,79,79,1,10,novel,6.3141,,,,,,,,,,,,,,,,,,,,,,,,,,,,,,,,,,,,,,,,,,,,,,,,
,,7,7,${e://Field/PROLIFIC_PID,F,18,2023-11-03_05h29.19.306,MouseEye_CC,2023.2.2,Win32,59.95203837,1.22361573,,,1707,960,66.373,2.94,"41.72, 85.94, 33.86, 29.91, 32.64, 25.58, 21.92",513.83,11.58545024,34.06122372,27.83653633,Passed,114.1050995,,,,,,,,,,,,,,,,,,,,training,6,1,180,right,s,,,,,1062.2399,1063.7127,34.26124044,6.944458008,1.333343506,1,0,0,1.4728,fixationPoint,1063.7127,1063.8128,1063.8128,1064.6962,34.26124044,9788.925839,589.7827818,s,1,0.8473,,1064.6962,1064.896,,,,,,,,13,-126,164,120,114,221,32,64,72,-72,-80,-210,-224,-24,-71,175,-117,64,-68,17,-115,-213,170,-172,116,270,270,270,360,90,360,270,180,360,270,180,,,,,,,,,,,1064.896,1064.8969,,0,80,80,80,1,4,repeated,,,,,,,,,,,,,,,,,,,,,,,,,,,,,,,,,,,,,,,,,,,,,,,,,
,,7,7,${e://Field/PROLIFIC_PID,F,18,2023-11-03_05h29.19.306,MouseEye_CC,2023.2.2,Win32,59.95203837,1.22361573,,,1707,960,66.373,2.94,"41.72, 85.94, 33.86, 29.91, 32.64, 25.58, 21.92",513.83,11.58545024,34.06122372,27.83653633,Passed,114.1050995,,,,,,,,,,,,,,,,,,,,training,6,2,0,left,a,,,,,1064.897,1065.4296,34.26124044,6.944458008,1.333343506,1,0,0,0.5324,fixationPoint,1065.4296,1065.5294,1065.5294,1068.6144,34.26124044,9788.925839,589.7827818,a,1,3.0632,,1068.6144,1068.8127,,,,,,,,68,120,-78,165,174,220,215,73,172,-20,120,-113,19,-127,116,-214,-118,-172,-32,-165,-215,120,-219,176,-74,90,90,360,360,360,270,90,90,90,360,180,,,,,,,,,,,1068.8128,1068.8128,,0,81,81,81,1,11,novel,,,,,,,,,,,,,,,,,,,,,,,,,,,,,,,,,,,,,,,,,,,,,,,,,
,,7,7,${e://Field/PROLIFIC_PID,F,18,2023-11-03_05h29.19.306,MouseEye_CC,2023.2.2,Win32,59.95203837,1.22361573,,,1707,960,66.373,2.94,"41.72, 85.94, 33.86, 29.91, 32.64, 25.58, 21.92",513.83,11.58545024,34.06122372,27.83653633,Passed,114.1050995,,,,,,,,,,,,,,,,,,,,training,6,3,0,left,a,,,,,1068.813,1069.2293,34.26124044,6.944458008,1.333343506,1,0,0,0.4163,fixationPoint,1069.2294,1069.3293,1069.3293,1074.8459,34.26124044,9788.925839,589.7827818,a,1,5.4895,,1074.8459,1075.0458,,,,,,,,7,79,208,-30,218,-20,120,-77,115,-172,-32,-172,-124,-68,-176,215,-220,116,-24,165,-217,29,161,220,215,360,360,270,90,180,360,360,270,180,90,180,,,,,,,,,,,1075.0458,1075.0459,,0,82,82,82,1,2,repeated,,,,,,,,,,,,,,,,,,,,,,,,,,,,,,,,,,,,,,,,,,,,,,,,,
,,7,7,${e://Field/PROLIFIC_PID,F,18,2023-11-03_05h29.19.306,MouseEye_CC,2023.2.2,Win32,59.95203837,1.22361573,,,1707,960,66.373,2.94,"41.72, 85.94, 33.86, 29.91, 32.64, 25.58, 21.92",513.83,11.58545024,34.06122372,27.83653633,Passed,114.1050995,,,,,,,,,,,,,,,,,,,,training,6,4,0,left,a,,,,,1075.0462,1075.4345,34.26124044,6.944458008,1.333343506,1,0,0,0.3883,fixationPoint,1075.4345,1075.5292,1075.5292,1078.2957,34.26124044,9788.925839,589.7827818,a,1,2.731,,1078.2958,1078.4843,,,,,,,,88,126,-169,73,172,27,65,22,117,-30,218,-162,80,-172,116,-166,-77,-165,-215,-24,-71,176,-74,27,-74,270,180,90,90,270,180,270,90,270,360,180,,,,,,,,,,,1078.4843,1078.4844,,0,83,83,83,1,12,novel,,,,,,,,,,,,,,,,,,,,,,,,,,,,,,,,,,,,,,,,,,,,,,,,,
,,7,7,${e://Field/PROLIFIC_PID,F,18,2023-11-03_05h29.19.306,MouseEye_CC,2023.2.2,Win32,59.95203837,1.22361573,,,1707,960,66.373,2.94,"41.72, 85.94, 33.86, 29.91, 32.64, 25.58, 21.92",513.83,11.58545024,34.06122372,27.83653633,Passed,114.1050995,,,,,,,,,,,,,,,,,,,,training,6,5,180,right,s,,,,,1078.4846,1078.8957,34.26124044,6.944458008,1.333343506,1,0,0,0.4111,fixationPoint,1078.8958,1078.9957,1078.9958,1080.9457,34.26124044,9788.925839,589.7827818,s,1,1.9211,,1080.9457,1081.1457,,,,,,,,19,165,174,-79,220,-24,73,-66,160,-172,-124,-80,-218,-17,-162,169,-32,120,-219,163,-165,116,28,160,116,90,180,90,180,360,90,180,270,360,180,90,,,,,,,,,,,1081.1457,1081.1459,,0,84,84,84,1,1,repeated,,,,,,,,,,,,,,,,,,,,,,,,,,,,,,,,,,,,,,,,,,,,,,,,,
,,7,7,${e://Field/PROLIFIC_PID,F,18,2023-11-03_05h29.19.306,MouseEye_CC,2023.2.2,Win32,59.95203837,1.22361573,,,1707,960,66.373,2.94,"41.72, 85.94, 33.86, 29.91, 32.64, 25.58, 21.92",513.83,11.58545024,34.06122372,27.83653633,Passed,114.1050995,,,,,,,,,,,,,,,,,,,,training,6,6,0,left,a,,,,,1081.146,1081.5624,34.26124044,6.944458008,1.333343506,1,0,0,0.4163,fixationPoint,1081.5624,1081.6624,1081.6625,1087.8676,34.26124044,9788.925839,589.7827818,a,1,6.181,,1087.8677,1088.0622,,,,,,,,39,168,64,-77,115,-213,124,-176,168,-172,-32,-124,-64,-31,-24,120,-219,17,-115,120,-78,22,117,165,174,180,360,270,90,360,90,360,90,270,90,90,,,,,,,,,,,1088.0622,1088.0623,,0,85,85,85,1,14,novel,,,,,,,,,,,,,,,,,,,,,,,,,,,,,,,,,,,,,,,,,,,,,,,,,
,,7,7,${e://Field/PROLIFIC_PID,F,18,2023-11-03_05h29.19.306,MouseEye_CC,2023.2.2,Win32,59.95203837,1.22361573,,,1707,960,66.373,2.94,"41.72, 85.94, 33.86, 29.91, 32.64, 25.58, 21.92",513.83,11.58545024,34.06122372,27.83653633,Passed,114.1050995,,,,,,,,,,,,,,,,,,,,training,6,7,0,left,a,,,,,1088.0626,1088.4122,34.26124044,6.944458008,1.333343506,1,0,0,0.3494,fixationPoint,1088.4122,1088.5122,1088.5123,1092.8121,34.26124044,9788.925839,589.7827818,a,1,4.2708,,1092.8121,1093.012,,,,,,,,96,28,-215,22,117,165,23,215,74,-213,170,-170,217,-220,24,-71,-113,-80,-218,-124,-64,215,-113,71,-114,90,180,360,270,270,270,270,360,270,90,90,,,,,,,,,,,1093.0121,1093.0122,,0,86,86,86,1,7,repeated,,,,,,,,,,,,,,,,,,,,,,,,,,,,,,,,,,,,,,,,,,,,,,,,,
,,7,7,${e://Field/PROLIFIC_PID,F,18,2023-11-03_05h29.19.306,MouseEye_CC,2023.2.2,Win32,59.95203837,1.22361573,,,1707,960,66.373,2.94,"41.72, 85.94, 33.86, 29.91, 32.64, 25.58, 21.92",513.83,11.58545024,34.06122372,27.83653633,Passed,114.1050995,,,,,,,,,,,,,,,,,,,,training,6,8,180,right,s,,,,,1093.0124,1093.4287,34.26124044,6.944458008,1.333343506,1,0,0,0.4162,fixationPoint,1093.4288,1093.5287,1093.5287,1096.6526,34.26124044,9788.925839,589.7827818,s,1,3.1022,,1096.6527,1096.8453,,,,,,,,48,116,28,-220,24,-75,29,-113,19,-68,-176,-172,-32,-124,-64,215,-220,210,-16,64,-208,124,162,165,23,360,180,180,360,270,180,90,360,270,360,90,,,,,,,,,,,1096.8453,1096.8455,,0,87,87,87,1,13,novel,,,,,,,,,,,,,,,,,,,,,,,,,,,,,,,,,,,,,,,,,,,,,,,,,
,,7,7,${e://Field/PROLIFIC_PID,F,18,2023-11-03_05h29.19.306,MouseEye_CC,2023.2.2,Win32,59.95203837,1.22361573,,,1707,960,66.373,2.94,"41.72, 85.94, 33.86, 29.91, 32.64, 25.58, 21.92",513.83,11.58545024,34.06122372,27.83653633,Passed,114.1050995,,,,,,,,,,,,,,,,,,,,training,6,9,180,right,s,,,,,1096.8457,1097.2174,34.26124044,6.944458008,1.333343506,1,0,0,0.3715,fixationPoint,1097.2175,1097.3119,1097.3119,1101.3506,34.26124044,9788.925839,589.7827818,s,1,4.0169,,1101.3506,1101.5451,,,,,,,,79,175,-117,29,214,64,72,124,76,-176,168,-213,170,-26,27,-165,-215,-26,-117,-24,-71,215,-113,208,-174,180,180,270,180,360,360,360,180,360,90,90,,,,,,,,,,,1101.5451,1101.5453,,0,88,88,88,1,8,repeated,,,,,,,,,,,,,,,,,,,,,,,,,,,,,,,,,,,,,,,,,,,,,,,,,
,,7,7,${e://Field/PROLIFIC_PID,F,18,2023-11-03_05h29.19.306,MouseEye_CC,2023.2.2,Win32,59.95203837,1.22361573,,,1707,960,66.373,2.94,"41.72, 85.94, 33.86, 29.91, 32.64, 25.58, 21.92",513.83,11.58545024,34.06122372,27.83653633,Passed,114.1050995,,,,,,,,,,,,,,,,,,,,training,6,10,0,left,a,,,,,1101.5455,1101.9285,34.26124044,6.944458008,1.333343506,1,0,0,0.383,fixationPoint,1101.9286,1102.0285,1102.0285,1104.8697,34.26124044,9788.925839,589.7827818,a,1,2.8194,,1104.8697,1105.0616,,,,,,,,53,-128,-18,27,65,168,64,165,23,-217,210,-119,212,-170,217,175,-117,64,-208,27,-74,-17,-162,-68,-176,180,270,180,180,180,360,90,360,270,90,360,,,,,,,,,,,1105.0617,1105.0618,,0,89,89,89,1,5,repeated,,,,,,,,,,,,,,,,,,,,,,,,,,,,,,,,,,,,,,,,,,,,,,,,,
,,7,7,${e://Field/PROLIFIC_PID,F,18,2023-11-03_05h29.19.306,MouseEye_CC,2023.2.2,Win32,59.95203837,1.22361573,,,1707,960,66.373,2.94,"41.72, 85.94, 33.86, 29.91, 32.64, 25.58, 21.92",513.83,11.58545024,34.06122372,27.83653633,Passed,114.1050995,,,,,,,,,,,,,,,,,,,,training,6,11,0,left,a,,,,,1105.062,1105.4451,34.26124044,6.944458008,1.333343506,1,0,0,0.3831,fixationPoint,1105.4451,1105.5451,1105.5451,1106.7338,34.26124044,9788.925839,589.7827818,a,1,1.1669,,1106.7338,1106.9336,,,,,,,,5,-30,218,160,116,27,65,29,214,-124,-221,-124,-64,-165,-215,215,-113,176,-74,120,-219,-20,120,-213,124,270,270,360,180,90,90,360,270,90,90,180,,,,,,,,,,,1106.9337,1106.9338,,0,90,90,90,1,15,novel,,,,,,,,,,,,,,,,,,,,,,,,,,,,,,,,,,,,,,,,,,,,,,,,,
,,7,7,${e://Field/PROLIFIC_PID,F,18,2023-11-03_05h29.19.306,MouseEye_CC,2023.2.2,Win32,59.95203837,1.22361573,,,1707,960,66.373,2.94,"41.72, 85.94, 33.86, 29.91, 32.64, 25.58, 21.92",513.83,11.58545024,34.06122372,27.83653633,Passed,114.1050995,,,,,,,,,,,,,,,,,,,,training,6,12,180,right,s,,,,,1106.934,1107.4616,34.26124044,6.944458008,1.333343506,1,0,0,0.5276,fixationPoint,1107.4616,1107.5617,1107.5617,1113.7503,34.26124044,9788.925839,589.7827818,s,1,6.1667,,1113.7503,1113.9449,,,,,,,,22,-172,116,64,72,116,28,220,215,-24,-71,-210,-224,-68,-176,175,-117,126,-169,163,-165,-75,29,-213,124,270,360,360,360,180,270,180,90,180,360,90,,,,,,,,,,,1113.9449,1113.945,,0,91,91,91,1,16,novel,,,,,,,,,,,,,,,,,,,,,,,,,,,,,,,,,,,,,,,,,,,,,,,,,
,,7,7,${e://Field/PROLIFIC_PID,F,18,2023-11-03_05h29.19.306,MouseEye_CC,2023.2.2,Win32,59.95203837,1.22361573,,,1707,960,66.373,2.94,"41.72, 85.94, 33.86, 29.91, 32.64, 25.58, 21.92",513.83,11.58545024,34.06122372,27.83653633,Passed,114.1050995,,,,,,,,,,,,,,,,,,,,training,6,13,180,right,s,,,,,1113.9453,1114.3781,34.26124044,6.944458008,1.333343506,1,0,0,0.4328,fixationPoint,1114.3782,1114.4782,1114.4782,1118.6785,34.26124044,9788.925839,589.7827818,s,1,4.1684,,1118.6786,1118.8781,,,,,,,,62,-166,-77,73,172,29,161,29,23,-126,164,-212,64,-75,29,210,-16,28,-215,64,-208,-208,-27,-80,-218,90,90,270,360,90,180,90,270,270,90,360,,,,,,,,,,,1118.8782,1118.8783,,0,92,92,92,1,6,repeated,,,,,,,,,,,,,,,,,,,,,,,,,,,,,,,,,,,,,,,,,,,,,,,,,
,,7,7,${e://Field/PROLIFIC_PID,F,18,2023-11-03_05h29.19.306,MouseEye_CC,2023.2.2,Win32,59.95203837,1.22361573,,,1707,960,66.373,2.94,"41.72, 85.94, 33.86, 29.91, 32.64, 25.58, 21.92",513.83,11.58545024,34.06122372,27.83653633,Passed,114.1050995,,,,,,,,,,,,,,,,,,,,training,6,14,180,right,s,,,,,1118.8786,1119.3613,34.26124044,6.944458008,1.333343506,1,0,0,0.4827,fixationPoint,1119.3614,1119.4614,1119.4615,1120.4614,34.26124044,9788.925839,589.7827818,s,1,0.9953,,1120.4614,1120.6614,,,,,,,,33,-116,68,27,65,165,174,215,74,-71,-113,-17,-162,-166,-77,120,-78,114,-128,28,-215,-26,27,-75,29,270,270,270,360,90,180,270,270,360,90,180,,,,,,,,,,,1120.6614,1120.6614,,0,93,93,93,1,3,repeated,,,,,,,,,,,,,,,,,,,,,,,,,,,,,,,,,,,,,,,,,,,,,,,,,
,,7,7,${e://Field/PROLIFIC_PID,F,18,2023-11-03_05h29.19.306,MouseEye_CC,2023.2.2,Win32,59.95203837,1.22361573,,,1707,960,66.373,2.94,"41.72, 85.94, 33.86, 29.91, 32.64, 25.58, 21.92",513.83,11.58545024,34.06122372,27.83653633,Passed,114.1050995,,,,,,,,,,,,,,,,,,,,training,6,15,0,left,a,,,,,1120.6616,1121.1447,34.26124044,6.944458008,1.333343506,1,0,0,0.483,fixationPoint,1121.1447,1121.2447,1121.2447,1124.878,34.26124044,9788.925839,589.7827818,a,1,3.6173,,1124.878,1125.0779,,,,,,,,82,-163,-171,224,175,124,76,160,116,-66,160,-213,124,-20,120,64,-24,169,-32,116,-24,-172,-124,-24,-71,180,180,180,90,270,360,90,360,90,360,270,,,,,,,,,,,1125.0779,1125.078,,0,94,94,94,1,9,novel,,,,,,,,,,,,,,,,,,,,,,,,,,,,,,,,,,,,,,,,,,,,,,,,,
,,7,7,${e://Field/PROLIFIC_PID,F,18,2023-11-03_05h29.19.306,MouseEye_CC,2023.2.2,Win32,59.95203837,1.22361573,,,1707,960,66.373,2.94,"41.72, 85.94, 33.86, 29.91, 32.64, 25.58, 21.92",513.83,11.58545024,34.06122372,27.83653633,Passed,114.1050995,,,,,,,,,,,,,,,,,,,,training,6,16,180,right,s,,,,,1125.0783,1125.4612,34.26124044,6.944458008,1.333343506,1,0,0,0.3828,fixationPoint,1125.4612,1125.5612,1125.5612,1128.5832,34.26124044,9788.925839,589.7827818,s,1,3.0177,,1128.5832,1128.7779,,,,,,,,94,-80,-218,79,208,27,65,127,220,-116,68,-176,168,-126,164,210,-16,120,-78,32,-29,-68,-176,-221,-163,180,270,270,90,90,180,180,90,270,360,270,,,,,,,,,,,1128.7779,1134.3164,space,0,95,95,95,1,10,novel,5.5166,,,,,,,,,,,,,,,,,,,,,,,,,,,,,,,,,,,,,,,,,,,,,,,,
,,7,7,${e://Field/PROLIFIC_PID,F,18,2023-11-03_05h29.19.306,MouseEye_CC,2023.2.2,Win32,59.95203837,1.22361573,,,1707,960,66.373,2.94,"41.72, 85.94, 33.86, 29.91, 32.64, 25.58, 21.92",513.83,11.58545024,34.06122372,27.83653633,Passed,114.1050995,,,,,,,,,,,,,,,,,,,,training,7,1,0,left,a,,,,,1134.3213,1135.2444,34.26124044,6.944458008,1.333343506,1,0,0,0.9229,fixationPoint,1135.2444,1135.3443,1135.3443,1137.361,34.26124044,9788.925839,589.7827818,a,1,1.9904,,1137.3611,1137.5494,,,,,,,,19,165,174,-79,220,-24,73,-66,160,-172,-124,-80,-218,-17,-162,169,-32,120,-219,163,-165,116,28,160,116,360,180,360,270,270,360,180,270,180,360,270,,,,,,,,,,,1137.5495,1137.5501,,0,96,96,96,1,1,repeated,,,,,,,,,,,,,,,,,,,,,,,,,,,,,,,,,,,,,,,,,,,,,,,,,
,,7,7,${e://Field/PROLIFIC_PID,F,18,2023-11-03_05h29.19.306,MouseEye_CC,2023.2.2,Win32,59.95203837,1.22361573,,,1707,960,66.373,2.94,"41.72, 85.94, 33.86, 29.91, 32.64, 25.58, 21.92",513.83,11.58545024,34.06122372,27.83653633,Passed,114.1050995,,,,,,,,,,,,,,,,,,,,training,7,2,180,right,s,,,,,1137.5503,1138.1109,34.26124044,6.944458008,1.333343506,1,0,0,0.5605,fixationPoint,1138.1109,1138.2109,1138.2109,1141.0608,34.26124044,9788.925839,589.7827818,s,1,2.8315,,1141.0608,1141.2608,,,,,,,,79,175,-117,29,214,64,72,124,76,-176,168,-213,170,-26,27,-165,-215,-26,-117,-24,-71,215,-113,208,-174,360,90,360,270,360,90,360,360,180,270,270,,,,,,,,,,,1141.2608,1141.261,,0,97,97,97,1,8,repeated,,,,,,,,,,,,,,,,,,,,,,,,,,,,,,,,,,,,,,,,,,,,,,,,,
,,7,7,${e://Field/PROLIFIC_PID,F,18,2023-11-03_05h29.19.306,MouseEye_CC,2023.2.2,Win32,59.95203837,1.22361573,,,1707,960,66.373,2.94,"41.72, 85.94, 33.86, 29.91, 32.64, 25.58, 21.92",513.83,11.58545024,34.06122372,27.83653633,Passed,114.1050995,,,,,,,,,,,,,,,,,,,,training,7,3,0,left,a,,,,,1141.2612,1141.7442,34.26124044,6.944458008,1.333343506,1,0,0,0.4827,fixationPoint,1141.7442,1141.8441,1141.8441,1145.5328,34.26124044,9788.925839,589.7827818,a,1,3.6667,,1145.5328,1145.7273,,,,,,,,82,-163,-171,64,72,221,32,27,65,-126,164,-220,24,-30,218,114,-128,28,-215,68,-172,-24,-216,-210,-224,90,90,270,180,180,90,270,180,360,180,90,,,,,,,,,,,1145.7274,1145.7274,,0,98,98,98,1,9,novel,,,,,,,,,,,,,,,,,,,,,,,,,,,,,,,,,,,,,,,,,,,,,,,,,
,,7,7,${e://Field/PROLIFIC_PID,F,18,2023-11-03_05h29.19.306,MouseEye_CC,2023.2.2,Win32,59.95203837,1.22361573,,,1707,960,66.373,2.94,"41.72, 85.94, 33.86, 29.91, 32.64, 25.58, 21.92",513.83,11.58545024,34.06122372,27.83653633,Passed,114.1050995,,,,,,,,,,,,,,,,,,,,training,7,4,0,left,a,,,,,1145.7276,1146.1274,34.26124044,6.944458008,1.333343506,1,0,0,0.3997,fixationPoint,1146.1275,1146.2273,1146.2274,1149.418,34.26124044,9788.925839,589.7827818,a,1,3.1689,,1149.4181,1149.6106,,,,,,,,68,120,-78,165,23,124,162,73,172,-213,124,-70,72,-30,218,-17,-162,-24,-71,-128,-18,165,-217,126,-169,180,270,360,360,180,270,90,360,270,90,180,,,,,,,,,,,1149.6106,1149.6107,,0,99,99,99,1,11,novel,,,,,,,,,,,,,,,,,,,,,,,,,,,,,,,,,,,,,,,,,,,,,,,,,
,,7,7,${e://Field/PROLIFIC_PID,F,18,2023-11-03_05h29.19.306,MouseEye_CC,2023.2.2,Win32,59.95203837,1.22361573,,,1707,960,66.373,2.94,"41.72, 85.94, 33.86, 29.91, 32.64, 25.58, 21.92",513.83,11.58545024,34.06122372,27.83653633,Passed,114.1050995,,,,,,,,,,,,,,,,,,,,training,7,5,180,right,s,,,,,1149.6109,1150.0273,34.26124044,6.944458008,1.333343506,1,0,0,0.4164,fixationPoint,1150.0274,1150.1273,1150.1273,1152.2274,34.26124044,9788.925839,589.7827818,s,1,2.0699,,1152.2274,1152.4273,,,,,,,,48,116,28,-170,217,-30,218,-66,160,-26,-117,-24,-71,-124,-221,17,-115,163,-165,68,-172,127,220,124,76,90,360,180,360,90,90,360,180,180,180,360,,,,,,,,,,,1152.4273,1152.4274,,0,100,100,100,1,13,novel,,,,,,,,,,,,,,,,,,,,,,,,,,,,,,,,,,,,,,,,,,,,,,,,,
,,7,7,${e://Field/PROLIFIC_PID,F,18,2023-11-03_05h29.19.306,MouseEye_CC,2023.2.2,Win32,59.95203837,1.22361573,,,1707,960,66.373,2.94,"41.72, 85.94, 33.86, 29.91, 32.64, 25.58, 21.92",513.83,11.58545024,34.06122372,27.83653633,Passed,114.1050995,,,,,,,,,,,,,,,,,,,,training,7,6,180,right,s,,,,,1152.4276,1152.8438,34.26124044,6.944458008,1.333343506,1,0,0,0.4162,fixationPoint,1152.8439,1152.9439,1152.944,1156.5849,34.26124044,9788.925839,589.7827818,s,1,3.6169,,1156.5849,1156.7825,,,,,,,,94,-80,-218,224,175,168,64,221,32,-172,116,-212,64,-20,120,215,-113,120,-219,64,-24,-166,-77,-210,-224,270,360,360,360,270,360,180,360,180,360,360,,,,,,,,,,,1156.7825,1156.7826,,0,101,101,101,1,10,novel,,,,,,,,,,,,,,,,,,,,,,,,,,,,,,,,,,,,,,,,,,,,,,,,,
,,7,7,${e://Field/PROLIFIC_PID,F,18,2023-11-03_05h29.19.306,MouseEye_CC,2023.2.2,Win32,59.95203837,1.22361573,,,1707,960,66.373,2.94,"41.72, 85.94, 33.86, 29.91, 32.64, 25.58, 21.92",513.83,11.58545024,34.06122372,27.83653633,Passed,114.1050995,,,,,,,,,,,,,,,,,,,,training,7,7,180,right,s,,,,,1156.7828,1157.1772,34.26124044,6.944458008,1.333343506,1,0,0,0.3943,fixationPoint,1157.1772,1157.2771,1157.2771,1160.8938,34.26124044,9788.925839,589.7827818,s,1,3.5854,,1160.8938,1161.0936,,,,,,,,88,126,-169,124,76,160,116,127,220,-79,220,-162,80,-26,27,-165,-215,-80,-218,-124,-64,32,-29,214,-74,360,90,180,270,180,180,90,90,90,90,360,,,,,,,,,,,1161.0937,1161.0938,,0,102,102,102,1,12,novel,,,,,,,,,,,,,,,,,,,,,,,,,,,,,,,,,,,,,,,,,,,,,,,,,
,,7,7,${e://Field/PROLIFIC_PID,F,18,2023-11-03_05h29.19.306,MouseEye_CC,2023.2.2,Win32,59.95203837,1.22361573,,,1707,960,66.373,2.94,"41.72, 85.94, 33.86, 29.91, 32.64, 25.58, 21.92",513.83,11.58545024,34.06122372,27.83653633,Passed,114.1050995,,,,,,,,,,,,,,,,,,,,training,7,8,0,left,a,,,,,1161.094,1161.5104,34.26124044,6.944458008,1.333343506,1,0,0,0.4162,fixationPoint,1161.5104,1161.6103,1161.6104,1166.0603,34.26124044,9788.925839,589.7827818,a,1,4.4282,,1166.0603,1166.2602,,,,,,,,7,79,208,-30,218,-20,120,-77,115,-172,-32,-172,-124,-68,-176,215,-220,116,-24,165,-217,29,161,220,215,90,360,270,360,270,360,360,90,180,270,180,,,,,,,,,,,1166.2603,1166.2604,,0,103,103,103,1,2,repeated,,,,,,,,,,,,,,,,,,,,,,,,,,,,,,,,,,,,,,,,,,,,,,,,,
,,7,7,${e://Field/PROLIFIC_PID,F,18,2023-11-03_05h29.19.306,MouseEye_CC,2023.2.2,Win32,59.95203837,1.22361573,,,1707,960,66.373,2.94,"41.72, 85.94, 33.86, 29.91, 32.64, 25.58, 21.92",513.83,11.58545024,34.06122372,27.83653633,Passed,114.1050995,,,,,,,,,,,,,,,,,,,,training,7,9,180,right,s,,,,,1166.2607,1166.6935,34.26124044,6.944458008,1.333343506,1,0,0,0.4328,fixationPoint,1166.6936,1166.7821,1166.7821,1170.7436,34.26124044,9788.925839,589.7827818,s,1,3.933,,1170.7436,1170.9435,,,,,,,,96,28,-215,22,117,165,23,215,74,-213,170,-170,217,-220,24,-71,-113,-80,-218,-124,-64,215,-113,71,-114,90,90,90,270,180,90,360,180,180,360,90,,,,,,,,,,,1170.9435,1170.9436,,0,104,104,104,1,7,repeated,,,,,,,,,,,,,,,,,,,,,,,,,,,,,,,,,,,,,,,,,,,,,,,,,
,,7,7,${e://Field/PROLIFIC_PID,F,18,2023-11-03_05h29.19.306,MouseEye_CC,2023.2.2,Win32,59.95203837,1.22361573,,,1707,960,66.373,2.94,"41.72, 85.94, 33.86, 29.91, 32.64, 25.58, 21.92",513.83,11.58545024,34.06122372,27.83653633,Passed,114.1050995,,,,,,,,,,,,,,,,,,,,training,7,10,180,right,s,,,,,1170.9439,1171.3602,34.26124044,6.944458008,1.333343506,1,0,0,0.4162,fixationPoint,1171.3603,1171.4602,1171.4602,1179.8932,34.26124044,9788.925839,589.7827818,a,0,8.4276,,1179.8933,1183.893,,,,,,,,5,-30,218,29,23,73,172,124,76,-214,-118,-26,-117,-24,-216,120,-78,68,-172,215,-113,-176,168,-77,115,180,90,270,90,90,90,270,360,180,180,90,,,,,,,,,,,1183.8931,1183.8984,,0,105,105,105,1,15,novel,,,,,,,,,,,,,,,,,,,,,,,,,,,,,,,,,,,,,,,,,,,,,,,,,
,,7,7,${e://Field/PROLIFIC_PID,F,18,2023-11-03_05h29.19.306,MouseEye_CC,2023.2.2,Win32,59.95203837,1.22361573,,,1707,960,66.373,2.94,"41.72, 85.94, 33.86, 29.91, 32.64, 25.58, 21.92",513.83,11.58545024,34.06122372,27.83653633,Passed,114.1050995,,,,,,,,,,,,,,,,,,,,training,7,11,0,left,a,,,,,1183.8986,1185.1765,34.26124044,9.61114502,7.111114502,1,0,0,1.2778,fixationPoint,1185.1765,1185.2765,1185.2765,1187.1122,34.26124044,9788.925839,589.7827818,a,1,1.8121,,1187.1124,1187.3106,,,,,,,,22,-172,116,165,174,220,127,215,74,-224,-68,-172,-124,-72,-80,64,-68,71,-114,215,-113,-164,29,-30,218,270,90,270,180,360,360,90,180,270,360,90,,,,,,,,,,,1187.3107,1187.3108,,0,106,106,106,1,16,novel,,,,,,,,,,,,,,,,,,,,,,,,,,,,,,,,,,,,,,,,,,,,,,,,,
,,7,7,${e://Field/PROLIFIC_PID,F,18,2023-11-03_05h29.19.306,MouseEye_CC,2023.2.2,Win32,59.95203837,1.22361573,,,1707,960,66.373,2.94,"41.72, 85.94, 33.86, 29.91, 32.64, 25.58, 21.92",513.83,11.58545024,34.06122372,27.83653633,Passed,114.1050995,,,,,,,,,,,,,,,,,,,,training,7,12,0,left,a,,,,,1187.3112,1187.7265,34.26124044,9.61114502,7.111114502,1,0,0,0.4151,fixationPoint,1187.7265,1187.8264,1187.8264,1188.9124,34.26124044,9788.925839,589.7827818,a,1,1.0673,,1188.9124,1189.1096,,,,,,,,33,-116,68,27,65,165,174,215,74,-71,-113,-17,-162,-166,-77,120,-78,114,-128,28,-215,-26,27,-75,29,360,180,360,270,90,180,270,90,180,270,270,,,,,,,,,,,1189.1096,1189.1097,,0,107,107,107,1,3,repeated,,,,,,,,,,,,,,,,,,,,,,,,,,,,,,,,,,,,,,,,,,,,,,,,,
,,7,7,${e://Field/PROLIFIC_PID,F,18,2023-11-03_05h29.19.306,MouseEye_CC,2023.2.2,Win32,59.95203837,1.22361573,,,1707,960,66.373,2.94,"41.72, 85.94, 33.86, 29.91, 32.64, 25.58, 21.92",513.83,11.58545024,34.06122372,27.83653633,Passed,114.1050995,,,,,,,,,,,,,,,,,,,,training,7,13,0,left,a,,,,,1189.11,1189.543,34.26124044,9.61114502,7.111114502,1,0,0,0.4329,fixationPoint,1189.543,1189.6429,1189.6429,1192.2286,34.26124044,9788.925839,589.7827818,a,1,2.5621,,1192.2286,1192.4263,,,,,,,,62,-166,-77,73,172,29,161,29,23,-126,164,-212,64,-75,29,210,-16,28,-215,64,-208,-208,-27,-80,-218,270,270,360,360,360,360,90,90,360,270,270,,,,,,,,,,,1192.4264,1192.4264,,0,108,108,108,1,6,repeated,,,,,,,,,,,,,,,,,,,,,,,,,,,,,,,,,,,,,,,,,,,,,,,,,
,,7,7,${e://Field/PROLIFIC_PID,F,18,2023-11-03_05h29.19.306,MouseEye_CC,2023.2.2,Win32,59.95203837,1.22361573,,,1707,960,66.373,2.94,"41.72, 85.94, 33.86, 29.91, 32.64, 25.58, 21.92",513.83,11.58545024,34.06122372,27.83653633,Passed,114.1050995,,,,,,,,,,,,,,,,,,,,training,7,14,180,right,s,,,,,1192.4267,1192.8429,34.26124044,9.61114502,7.111114502,1,0,0,0.416,fixationPoint,1192.8429,1192.9429,1192.943,1200.2761,34.26124044,9788.925839,589.7827818,s,1,7.2993,,1200.2761,1200.4761,,,,,,,,39,168,64,-20,120,-220,24,-16,170,-24,-71,-172,-124,-166,-77,17,-115,175,-117,64,-68,124,76,220,127,360,90,270,90,270,90,180,90,90,270,90,,,,,,,,,,,1200.4761,1200.4763,,0,109,109,109,1,14,novel,,,,,,,,,,,,,,,,,,,,,,,,,,,,,,,,,,,,,,,,,,,,,,,,,
,,7,7,${e://Field/PROLIFIC_PID,F,18,2023-11-03_05h29.19.306,MouseEye_CC,2023.2.2,Win32,59.95203837,1.22361573,,,1707,960,66.373,2.94,"41.72, 85.94, 33.86, 29.91, 32.64, 25.58, 21.92",513.83,11.58545024,34.06122372,27.83653633,Passed,114.1050995,,,,,,,,,,,,,,,,,,,,training,7,15,180,right,s,,,,,1200.4766,1201.2447,34.26124044,9.166687012,1.777770996,1,0,0,0.7681,fixationPoint,1201.2447,1201.3478,1201.348,1205.9927,34.26124044,9788.925839,589.7827818,s,1,4.6162,,1205.9927,1206.1926,,,,,,,,53,-128,-18,27,65,168,64,165,23,-217,210,-119,212,-170,217,175,-117,64,-208,27,-74,-17,-162,-68,-176,90,270,270,90,90,270,180,180,270,180,90,,,,,,,,,,,1206.1926,1206.1927,,0,110,110,110,1,5,repeated,,,,,,,,,,,,,,,,,,,,,,,,,,,,,,,,,,,,,,,,,,,,,,,,,
