InstrStartPage.started,InstrStartPage.stopped,participant,designid,prolificid,Gender,Age,date,expName,psychopyVersion,OS,frameRate,ratio_monitor2CRT,VirtualChinrest.started,VirtualChinrest.stopped,xRes,yRes,viewingdistance_cm,pixeldensity_px2mm,BallPos,squarePos,mm2degree,px2degree,CRT_px2degree,PassVirtualChinrest,foveaRadius_inPixel,InstrRedo.started,InstrRedo.stopped,VirtualChinrest_Redo.started,VirtualChinrest_Redo.stopped,Instruction1.started,Instruction1.stopped,keyPractice.started,keyPractice.stopped,key_keyprac.keys,key_keyprac.corr,key_keyprac.rt,key_keyprac.duration,keyPracFeedback.started,keyPracFeedback.stopped,keyPracLoop.thisRepN,keyPracLoop.thisTrialN,keyPracLoop.thisN,keyPracLoop.thisIndex,keyPracLoop.ran,phase,block,trial,targOrientdeg,targOrient,corrAnswer,Instruction2.started,Instruction2.stopped,Instruction3.started,Instruction3.stopped,fixation.started,fixation.stopped,fixationSize,mouseintial.x,mouseintial.y,mouseintial.leftButton,mouseintial.midButton,mouseintial.rightButton,mouseintial.time,mouseintial.clicked_name,greenFixation.started,greenFixation.stopped,trial.started,trial.stopped,letterSize,apertureSize,searchsize,key_respMain.keys,key_respMain.corr,key_respMain.rt,key_respMain.duration,trialFeedback.started,trialFeedback.stopped,trialsPractice.thisRepN,trialsPractice.thisTrialN,trialsPractice.thisN,trialsPractice.thisIndex,trialsPractice.ran,targetQuad,Tcondition,targcell,tlocx,tlocy,d1x,d1y,d2x,d2y,d3x,d3y,d4x,d4y,d5x,d5y,d6x,d6y,d7x,d7y,d8x,d8y,d9x,d9y,d10x,d10y,d11x,d11y,d1Orient,d2Orient,d3Orient,d4Orient,d5Orient,d6Orient,d7Orient,d8Orient,d9Orient,d10Orient,d11Orient,CheckInstr.started,CheckInstr.stopped,key_checkInstr.keys,key_checkInstr.corr,key_checkInstr.rt,key_checkInstr.duration,CheckInstr_FB.started,CheckInstr_FB.stopped,Instruction_MainExp.started,Instruction_MainExp.stopped,TakeABreak.started,TakeABreak.stopped,key_respBreak.keys,trials.thisRepN,trials.thisTrialN,trials.thisN,trials.thisIndex,trials.ran,configurationNumber,CCCondition,key_respBreak.rt,key_respBreak.duration,displayTestingPhase.started,displayTestingPhase.stopped,key_respTesting.keys,key_respTesting.corr,key_respTesting.rt,key_respTesting.duration,TakeABreak2.started,TakeABreak2.stopped,key_RespBreak.keys,Testingtrials.thisRepN,Testingtrials.thisTrialN,Testingtrials.thisN,Testingtrials.thisIndex,Testingtrials.ran,key_RespBreak.rt,key_RespBreak.duration,RecogQuestion.started,RecogQuestion.stopped,key_AnswerQues.keys,key_AnswerQues.rt,key_AnswerQues.duration,Disclose.started,Disclose.stopped,InstrRT.started,InstrRT.stopped,fixation_RT.started,fixation_RT.stopped,mouseInitial.x,mouseInitial.y,mouseInitial.leftButton,mouseInitial.midButton,mouseInitial.rightButton,mouseInitial.time,mouseInitial.clicked_name,displayRT.started,displayRT.stopped,key_respRT.keys,key_respRT.corr,key_respRT.rt,key_respRT.duration,RTtrials.thisRepN,RTtrials.thisTrialN,RTtrials.thisN,RTtrials.thisIndex,RTtrials.ran,EndOfExperiment.started,EndOfExperiment.stopped
0.0002,4.4446,8,5,${e://Field/PROLIFIC_PID,M,18,2023-11-03_06h16.18.278,MouseEye_CC,2023.2.2,Win32,143.6781609,1,,,,,,,,,,,,,,,,,,,,,,,,,,,,,,,,,,,,,,,,,,,,,,,,,,,,,,,,,,,,,,,,,,,,,,,,,,,,,,,,,,,,,,,,,,,,,,,,,,,,,,,,,,,,,,,,,,,,,,,,,,,,,,,,,,,,,,,,,,,,,,,,,,,,,,,,,,,,,,,,,,,,,,,,,,,,,,,,,
,,8,5,${e://Field/PROLIFIC_PID,M,18,2023-11-03_06h16.18.278,MouseEye_CC,2023.2.2,Win32,143.6781609,1.20952547,4.4448,113.0746,1920,1080,45.817,4.21,"242.43, 268.32, 271.17, 247.49, 262.15, 245.48, 332.36",722.01,7.997387098,33.66899968,27.83653633,Passed,112.7911489,,,,,,,,,,,,,,,,,,,,,,,,,,,,,,,,,,,,,,,,,,,,,,,,,,,,,,,,,,,,,,,,,,,,,,,,,,,,,,,,,,,,,,,,,,,,,,,,,,,,,,,,,,,,,,,,,,,,,,,,,,,,,,,,,,,,,,,,,,,,,,,,,,,,,,,,,,,,,,,,,,,,
,,8,5,${e://Field/PROLIFIC_PID,M,18,2023-11-03_06h16.18.278,MouseEye_CC,2023.2.2,Win32,143.6781609,1.20952547,,,1920,1080,45.817,4.21,"242.43, 268.32, 271.17, 247.49, 262.15, 245.48, 332.36",722.01,7.997387098,33.66899968,27.83653633,Passed,112.7911489,113.0749,113.0765,,,,,,,,,,,,,,,,,,,,,,,,,,,,,,,,,,,,,,,,,,,,,,,,,,,,,,,,,,,,,,,,,,,,,,,,,,,,,,,,,,,,,,,,,,,,,,,,,,,,,,,,,,,,,,,,,,,,,,,,,,,,,,,,,,,,,,,,,,,,,,,,,,,,,,,,,,,,,,,,,,
,,8,5,${e://Field/PROLIFIC_PID,M,18,2023-11-03_06h16.18.278,MouseEye_CC,2023.2.2,Win32,143.6781609,1.067224095,,,1920,1080,42.549,4,"242.43, 268.32, 271.17, 247.49, 262.15, 245.48, 332.36",722.01,7.426955576,29.70782231,27.83653633,Passed,99.52120472,,,113.0767,208.7798,,,,,,,,,,,,,,,,,,,,,,,,,,,,,,,,,,,,,,,,,,,,,,,,,,,,,,,,,,,,,,,,,,,,,,,,,,,,,,,,,,,,,,,,,,,,,,,,,,,,,,,,,,,,,,,,,,,,,,,,,,,,,,,,,,,,,,,,,,,,,,,,,,,,,,,,,,,,,,,,
,,8,5,${e://Field/PROLIFIC_PID,M,18,2023-11-03_06h16.18.278,MouseEye_CC,2023.2.2,Win32,143.6781609,1.067224095,,,1920,1080,42.549,4,"242.43, 268.32, 271.17, 247.49, 262.15, 245.48, 332.36",722.01,7.426955576,29.70782231,27.83653633,Passed,99.52120472,,,,,208.78,215.827,,,,,,,,,,,,,,,,,,,,,,,,,,,,,,,,,,,,,,,,,,,,,,,,,,,,,,,,,,,,,,,,,,,,,,,,,,,,,,,,,,,,,,,,,,,,,,,,,,,,,,,,,,,,,,,,,,,,,,,,,,,,,,,,,,,,,,,,,,,,,,,,,,,,,,,,,,,,,,
,,8,5,${e://Field/PROLIFIC_PID,M,18,2023-11-03_06h16.18.278,MouseEye_CC,2023.2.2,Win32,143.6781609,1.067224095,,,1920,1080,42.549,4,"242.43, 268.32, 271.17, 247.49, 262.15, 245.48, 332.36",722.01,7.426955576,29.70782231,27.83653633,Passed,99.52120472,,,,,,,215.8387,217.0607,a,1,0.7047,,217.0608,217.5607,0,0,0,0,1,practice,1,1,0,left,a,,,,,,,,,,,,,,,,,,,,,,,,,,,,,,,,,,,,,,,,,,,,,,,,,,,,,,,,,,,,,,,,,,,,,,,,,,,,,,,,,,,,,,,,,,,,,,,,,,,,,,,,,,,,,,,,,,,,,,,,,,,,,,,,,,,,,,,,,,,
,,8,5,${e://Field/PROLIFIC_PID,M,18,2023-11-03_06h16.18.278,MouseEye_CC,2023.2.2,Win32,143.6781609,1.067224095,,,1920,1080,42.549,4,"242.43, 268.32, 271.17, 247.49, 262.15, 245.48, 332.36",722.01,7.426955576,29.70782231,27.83653633,Passed,99.52120472,,,,,,,217.5611,218.491,a,1,0.4188,,218.4911,218.991,0,1,1,1,1,practice,1,2,0,left,a,,,,,,,,,,,,,,,,,,,,,,,,,,,,,,,,,,,,,,,,,,,,,,,,,,,,,,,,,,,,,,,,,,,,,,,,,,,,,,,,,,,,,,,,,,,,,,,,,,,,,,,,,,,,,,,,,,,,,,,,,,,,,,,,,,,,,,,,,,,
,,8,5,${e://Field/PROLIFIC_PID,M,18,2023-11-03_06h16.18.278,MouseEye_CC,2023.2.2,Win32,143.6781609,1.067224095,,,1920,1080,42.549,4,"242.43, 268.32, 271.17, 247.49, 262.15, 245.48, 332.36",722.01,7.426955576,29.70782231,27.83653633,Passed,99.52120472,,,,,,,218.9912,220.276,a,1,0.7764,,220.276,220.7757,0,2,2,2,1,practice,1,3,0,left,a,,,,,,,,,,,,,,,,,,,,,,,,,,,,,,,,,,,,,,,,,,,,,,,,,,,,,,,,,,,,,,,,,,,,,,,,,,,,,,,,,,,,,,,,,,,,,,,,,,,,,,,,,,,,,,,,,,,,,,,,,,,,,,,,,,,,,,,,,,,
,,8,5,${e://Field/PROLIFIC_PID,M,18,2023-11-03_06h16.18.278,MouseEye_CC,2023.2.2,Win32,143.6781609,1.067224095,,,1920,1080,42.549,4,"242.43, 268.32, 271.17, 247.49, 262.15, 245.48, 332.36",722.01,7.426955576,29.70782231,27.83653633,Passed,99.52120472,,,,,,,220.7759,221.7272,s,1,0.4378,,221.7272,222.2271,0,3,3,3,1,practice,1,4,180,right,s,,,,,,,,,,,,,,,,,,,,,,,,,,,,,,,,,,,,,,,,,,,,,,,,,,,,,,,,,,,,,,,,,,,,,,,,,,,,,,,,,,,,,,,,,,,,,,,,,,,,,,,,,,,,,,,,,,,,,,,,,,,,,,,,,,,,,,,,,,,
,,8,5,${e://Field/PROLIFIC_PID,M,18,2023-11-03_06h16.18.278,MouseEye_CC,2023.2.2,Win32,143.6781609,1.067224095,,,1920,1080,42.549,4,"242.43, 268.32, 271.17, 247.49, 262.15, 245.48, 332.36",722.01,7.426955576,29.70782231,27.83653633,Passed,99.52120472,,,,,,,222.2274,223.1022,s,1,0.3623,,223.1022,223.6021,0,4,4,4,1,practice,1,5,180,right,s,,,,,,,,,,,,,,,,,,,,,,,,,,,,,,,,,,,,,,,,,,,,,,,,,,,,,,,,,,,,,,,,,,,,,,,,,,,,,,,,,,,,,,,,,,,,,,,,,,,,,,,,,,,,,,,,,,,,,,,,,,,,,,,,,,,,,,,,,,,
,,8,5,${e://Field/PROLIFIC_PID,M,18,2023-11-03_06h16.18.278,MouseEye_CC,2023.2.2,Win32,143.6781609,1.067224095,,,1920,1080,42.549,4,"242.43, 268.32, 271.17, 247.49, 262.15, 245.48, 332.36",722.01,7.426955576,29.70782231,27.83653633,Passed,99.52120472,,,,,,,223.6023,224.5673,a,1,0.4552,,224.5673,225.0674,0,5,5,5,1,practice,1,6,0,left,a,,,,,,,,,,,,,,,,,,,,,,,,,,,,,,,,,,,,,,,,,,,,,,,,,,,,,,,,,,,,,,,,,,,,,,,,,,,,,,,,,,,,,,,,,,,,,,,,,,,,,,,,,,,,,,,,,,,,,,,,,,,,,,,,,,,,,,,,,,,
,,8,5,${e://Field/PROLIFIC_PID,M,18,2023-11-03_06h16.18.278,MouseEye_CC,2023.2.2,Win32,143.6781609,1.067224095,,,1920,1080,42.549,4,"242.43, 268.32, 271.17, 247.49, 262.15, 245.48, 332.36",722.01,7.426955576,29.70782231,27.83653633,Passed,99.52120472,,,,,,,,,,,,,,,,,,,,,,,,,,225.0678,250.7134,,,,,,,,,,,,,,,,,,,,,,,,,,,,,,,,,,,,,,,,,,,,,,,,,,,,,,,,,,,,,,,,,,,,,,,,,,,,,,,,,,,,,,,,,,,,,,,,,,,,,,,,,,,,,,,,,,,,,,,,,,,,,,,,,,,,,,,,,
,,8,5,${e://Field/PROLIFIC_PID,M,18,2023-11-03_06h16.18.278,MouseEye_CC,2023.2.2,Win32,143.6781609,1.067224095,,,1920,1080,42.549,4,"242.43, 268.32, 271.17, 247.49, 262.15, 245.48, 332.36",722.01,7.426955576,29.70782231,27.83653633,Passed,99.52120472,,,,,,,,,,,,,,,,,,,,,,,,,,,,250.7135,255.7898,,,,,,,,,,,,,,,,,,,,,,,,,,,,,,,,,,,,,,,,,,,,,,,,,,,,,,,,,,,,,,,,,,,,,,,,,,,,,,,,,,,,,,,,,,,,,,,,,,,,,,,,,,,,,,,,,,,,,,,,,,,,,,,,,,,,,,,
,,8,5,${e://Field/PROLIFIC_PID,M,18,2023-11-03_06h16.18.278,MouseEye_CC,2023.2.2,Win32,143.6781609,1.067224095,,,1920,1080,42.549,4,"242.43, 268.32, 271.17, 247.49, 262.15, 245.48, 332.36",722.01,7.426955576,29.70782231,27.83653633,Passed,99.52120472,,,,,,,,,,,,,,,,,,,,practice,0,1,0,left,a,,,,,255.8026,256.505,29.88227467,-1,-2.5,1,0,0,0.7022,fixationPoint,256.5051,256.6019,256.6022,257.9076,29.88227467,8537.792763,514.402014,s,0,1.2883,,257.9077,261.9076,0,0,0,0,1,4,sparse,90,217,-164,68,123,222,26,214,216,-218,159,-120,223,-110,82,-115,-130,-224,-120,-68,-219,79,-175,19,-128,90,270,360,90,270,270,180,90,90,90,270,,,,,,,,,,,,,,,,,,,,,,,,,,,,,,,,,,,,,,,,,,,,,,,,,,,,,,,,,,,,,,,,,,,,,
,,8,5,${e://Field/PROLIFIC_PID,M,18,2023-11-03_06h16.18.278,MouseEye_CC,2023.2.2,Win32,143.6781609,1.067224095,,,1920,1080,42.549,4,"242.43, 268.32, 271.17, 247.49, 262.15, 245.48, 332.36",722.01,7.426955576,29.70782231,27.83653633,Passed,99.52120472,,,,,,,,,,,,,,,,,,,,practice,0,2,0,left,a,,,,,261.9132,262.4283,29.88227467,-1,-2.5,1,0,0,0.5148,fixationPoint,262.4283,262.5254,262.5255,265.5116,29.88227467,8537.792763,514.402014,a,1,2.9794,,265.5116,265.7128,0,1,1,1,1,1,rich,39,169,66,-126,125,-169,169,-130,19,-169,-116,-125,-167,-224,-216,218,-129,171,-218,18,-208,166,26,17,170,180,90,360,270,90,90,90,270,180,180,270,,,,,,,,,,,,,,,,,,,,,,,,,,,,,,,,,,,,,,,,,,,,,,,,,,,,,,,,,,,,,,,,,,,,,
,,8,5,${e://Field/PROLIFIC_PID,M,18,2023-11-03_06h16.18.278,MouseEye_CC,2023.2.2,Win32,143.6781609,1.067224095,,,1920,1080,42.549,4,"242.43, 268.32, 271.17, 247.49, 262.15, 245.48, 332.36",722.01,7.426955576,29.70782231,27.83653633,Passed,99.52120472,,,,,,,,,,,,,,,,,,,,practice,0,3,0,left,a,,,,,265.7131,266.1226,29.88227467,-1,-2.5,1,0,0,0.4095,fixationPoint,266.1227,266.2198,266.2198,273.081,29.88227467,8537.792763,514.402014,a,1,6.8588,,273.081,273.2823,0,2,2,2,1,2,sparse,22,-162,126,222,26,17,170,126,172,-25,-117,-175,-206,-224,-216,116,-19,130,-174,217,-164,-218,159,-21,162,90,90,180,360,360,270,360,360,360,360,180,,,,,,,,,,,,,,,,,,,,,,,,,,,,,,,,,,,,,,,,,,,,,,,,,,,,,,,,,,,,,,,,,,,,,
,,8,5,${e://Field/PROLIFIC_PID,M,18,2023-11-03_06h16.18.278,MouseEye_CC,2023.2.2,Win32,143.6781609,1.067224095,,,1920,1080,42.549,4,"242.43, 268.32, 271.17, 247.49, 262.15, 245.48, 332.36",722.01,7.426955576,29.70782231,27.83653633,Passed,99.52120472,,,,,,,,,,,,,,,,,,,,practice,0,4,180,right,s,,,,,273.2826,274.2199,29.88227467,-17,-5.5,1,0,0,0.7219,fixationPoint,274.22,274.3171,274.3171,277.8171,29.88227467,8537.792763,514.402014,s,1,3.4962,,277.8171,278.0183,0,3,3,3,1,4,sparse,76,19,-128,159,121,214,216,219,165,-218,159,-162,126,-219,119,-169,-116,-111,-31,-175,-206,18,-208,81,-114,90,270,180,180,270,180,360,360,360,270,360,,,,,,,,,,,,,,,,,,,,,,,,,,,,,,,,,,,,,,,,,,,,,,,,,,,,,,,,,,,,,,,,,,,,,
,,8,5,${e://Field/PROLIFIC_PID,M,18,2023-11-03_06h16.18.278,MouseEye_CC,2023.2.2,Win32,143.6781609,1.067224095,,,1920,1080,42.549,4,"242.43, 268.32, 271.17, 247.49, 262.15, 245.48, 332.36",722.01,7.426955576,29.70782231,27.83653633,Passed,99.52120472,,,,,,,,,,,,,,,,,,,,practice,0,5,180,right,s,,,,,278.0186,278.4421,29.88227467,-5,-0.5,0,0,1,0.4234,fixationPoint,278.4422,278.5392,278.5392,282.4072,29.88227467,8537.792763,514.402014,s,1,3.8659,,282.4073,282.6087,0,4,4,4,1,3,sparse,85,-19,-173,219,165,68,123,214,216,-160,68,-64,120,-226,34,162,-21,224,-216,167,-163,-167,-74,-224,-216,360,360,360,90,180,270,90,360,270,270,360,,,,,,,,,,,,,,,,,,,,,,,,,,,,,,,,,,,,,,,,,,,,,,,,,,,,,,,,,,,,,,,,,,,,,
,,8,5,${e://Field/PROLIFIC_PID,M,18,2023-11-03_06h16.18.278,MouseEye_CC,2023.2.2,Win32,143.6781609,1.067224095,,,1920,1080,42.549,4,"242.43, 268.32, 271.17, 247.49, 262.15, 245.48, 332.36",722.01,7.426955576,29.70782231,27.83653633,Passed,99.52120472,,,,,,,,,,,,,,,,,,,,practice,0,6,180,right,s,,,,,282.609,283.1016,29.88227467,-8,12.5,1,0,0,0.4925,fixationPoint,283.1017,283.199,283.199,286.1086,29.88227467,8537.792763,514.402014,s,1,2.9028,,286.1087,286.3099,0,5,5,5,1,3,sparse,95,-21,-224,126,172,219,165,166,26,-166,207,-223,206,-219,119,169,-75,18,-208,224,-216,-72,-121,-115,-130,180,180,360,180,360,180,270,180,90,180,360,,,,,,,,,,,,,,,,,,,,,,,,,,,,,,,,,,,,,,,,,,,,,,,,,,,,,,,,,,,,,,,,,,,,,
,,8,5,${e://Field/PROLIFIC_PID,M,18,2023-11-03_06h16.18.278,MouseEye_CC,2023.2.2,Win32,143.6781609,1.067224095,,,1920,1080,42.549,4,"242.43, 268.32, 271.17, 247.49, 262.15, 245.48, 332.36",722.01,7.426955576,29.70782231,27.83653633,Passed,99.52120472,,,,,,,,,,,,,,,,,,,,practice,0,7,0,left,a,,,,,286.3102,286.8794,29.88227467,-7,7.5,1,0,0,0.5691,fixationPoint,286.8795,286.977,286.977,290.2405,29.88227467,8537.792763,514.402014,a,1,3.2584,,290.2406,290.4418,0,6,6,6,1,1,rich,7,62,223,-166,207,-226,34,-162,126,-169,-116,-168,-160,-161,-27,15,-162,162,-21,79,-175,219,165,219,129,180,180,360,180,270,360,180,360,270,180,360,,,,,,,,,,,,,,,,,,,,,,,,,,,,,,,,,,,,,,,,,,,,,,,,,,,,,,,,,,,,,,,,,,,,,
,,8,5,${e://Field/PROLIFIC_PID,M,18,2023-11-03_06h16.18.278,MouseEye_CC,2023.2.2,Win32,143.6781609,1.067224095,,,1920,1080,42.549,4,"242.43, 268.32, 271.17, 247.49, 262.15, 245.48, 332.36",722.01,7.426955576,29.70782231,27.83653633,Passed,99.52120472,,,,,,,,,,,,,,,,,,,,practice,0,8,180,right,s,,,,,290.4421,290.9835,29.88227467,-11,-4.5,1,0,0,0.5414,fixationPoint,290.9836,291.081,291.081,295.0879,29.88227467,8537.792763,514.402014,s,1,4.0051,,295.088,295.289,0,7,7,7,1,2,sparse,24,-64,120,18,215,126,172,33,121,-206,-170,-64,-162,-218,-78,130,-174,211,-74,168,-130,-164,32,-21,162,90,180,270,360,180,90,180,180,180,360,270,,,,,,,,,,,,,,,,,,,,,,,,,,,,,,,,,,,,,,,,,,,,,,,,,,,,,,,,,,,,,,,,,,,,,
,,8,5,${e://Field/PROLIFIC_PID,M,18,2023-11-03_06h16.18.278,MouseEye_CC,2023.2.2,Win32,143.6781609,1.067224095,,,1920,1080,42.549,4,"242.43, 268.32, 271.17, 247.49, 262.15, 245.48, 332.36",722.01,7.426955576,29.70782231,27.83653633,Passed,99.52120472,,,,,,,,,,,,,,,,,,,,practice,0,9,180,right,s,,,,,295.2892,295.9696,29.88227467,11,-8.5,1,0,0,0.6802,fixationPoint,295.9697,296.0668,296.0668,298.289,29.88227467,8537.792763,514.402014,s,1,2.2184,,298.2891,298.4904,0,8,8,8,1,3,sparse,85,-19,-173,127,30,62,223,217,67,-110,82,-21,162,-80,218,167,-163,126,-79,130,-174,-125,-167,-68,-219,360,360,360,180,360,360,180,270,90,360,180,,,,,,,,,,,,,,,,,,,,,,,,,,,,,,,,,,,,,,,,,,,,,,,,,,,,,,,,,,,,,,,,,,,,,
,,8,5,${e://Field/PROLIFIC_PID,M,18,2023-11-03_06h16.18.278,MouseEye_CC,2023.2.2,Win32,143.6781609,1.067224095,,,1920,1080,42.549,4,"242.43, 268.32, 271.17, 247.49, 262.15, 245.48, 332.36",722.01,7.426955576,29.70782231,27.83653633,Passed,99.52120472,,,,,,,,,,,,,,,,,,,,practice,0,10,180,right,s,,,,,298.4907,298.9071,29.88227467,-5,-0.5,1,0,0,0.4162,fixationPoint,298.9071,299.0042,299.0043,302.3307,29.88227467,8537.792763,514.402014,s,1,3.3189,,302.3308,302.532,0,9,9,9,1,1,rich,9,160,209,-166,207,-226,34,-120,223,-224,-120,-118,-217,-218,-78,112,-209,126,-113,169,-75,178,160,110,129,180,90,90,270,360,270,360,180,360,180,360,,,,,,,,,,,,,,,,,,,,,,,,,,,,,,,,,,,,,,,,,,,,,,,,,,,,,,,,,,,,,,,,,,,,,
,,8,5,${e://Field/PROLIFIC_PID,M,18,2023-11-03_06h16.18.278,MouseEye_CC,2023.2.2,Win32,143.6781609,1.067224095,,,1920,1080,42.549,4,"242.43, 268.32, 271.17, 247.49, 262.15, 245.48, 332.36",722.01,7.426955576,29.70782231,27.83653633,Passed,99.52120472,,,,,,,,,,,,,,,,,,,,practice,0,11,180,right,s,,,,,302.5322,303.3792,29.88227467,-18,-3.5,1,0,0,0.3817,fixationPoint,303.3792,303.4764,303.4765,309.6015,29.88227467,8537.792763,514.402014,a,0,6.1187,,309.6015,313.6014,0,10,10,10,1,4,sparse,80,218,-129,62,223,159,121,110,129,-218,159,-223,206,-75,173,-169,-116,-118,-217,-125,-167,217,-164,169,-75,360,270,360,180,360,180,180,270,360,180,90,,,,,,,,,,,,,,,,,,,,,,,,,,,,,,,,,,,,,,,,,,,,,,,,,,,,,,,,,,,,,,,,,,,,,
,,8,5,${e://Field/PROLIFIC_PID,M,18,2023-11-03_06h16.18.278,MouseEye_CC,2023.2.2,Win32,143.6781609,1.067224095,,,1920,1080,42.549,4,"242.43, 268.32, 271.17, 247.49, 262.15, 245.48, 332.36",722.01,7.426955576,29.70782231,27.83653633,Passed,99.52120472,,,,,,,,,,,,,,,,,,,,practice,0,12,0,left,a,,,,,313.6017,314.1431,29.88227467,-15,1.5,1,0,0,0.0413,fixationPoint,314.1431,314.2402,314.2402,317.3652,29.88227467,8537.792763,514.402014,s,0,3.1183,,317.3653,321.3651,0,11,11,11,1,3,sparse,75,-25,-117,110,129,125,63,214,216,-164,32,-27,117,-126,125,171,-218,126,-113,167,-163,-21,-224,-212,-21,270,180,180,360,180,270,360,270,360,180,270,,,,,,,,,,,,,,,,,,,,,,,,,,,,,,,,,,,,,,,,,,,,,,,,,,,,,,,,,,,,,,,,,,,,,
,,8,5,${e://Field/PROLIFIC_PID,M,18,2023-11-03_06h16.18.278,MouseEye_CC,2023.2.2,Win32,143.6781609,1.067224095,,,1920,1080,42.549,4,"242.43, 268.32, 271.17, 247.49, 262.15, 245.48, 332.36",722.01,7.426955576,29.70782231,27.83653633,Passed,99.52120472,,,,,,,,,,,,,,,,,,,,,,,,,,,,,,,,,,,,,,,,,,,,,,,,,,,,,,,,,,,,,,,,,,,,,,,,,,,,,,,,,,,,,,,,,,,,,,,,321.3657,349.4488,a,1,28.074,,,,,,,,,,,,,,,,,,,,,,,,,,,,,,,,,,,,,,,,,,,,,,,,,,,,,,,,,,,,,,,,
,,8,5,${e://Field/PROLIFIC_PID,M,18,2023-11-03_06h16.18.278,MouseEye_CC,2023.2.2,Win32,143.6781609,1.067224095,,,1920,1080,42.549,4,"242.43, 268.32, 271.17, 247.49, 262.15, 245.48, 332.36",722.01,7.426955576,29.70782231,27.83653633,Passed,99.52120472,,,,,,,,,,,,,,,,,,,,,,,,,,,,,,,,,,,,,,,,,,,,,,,,,,,,,,,,,,,,,,,,,,,,,,,,,,,,,,,,,,,,,,,,,,,,,,,,,,,,,,349.4489,351.8859,,,,,,,,,,,,,,,,,,,,,,,,,,,,,,,,,,,,,,,,,,,,,,,,,,,,,,,,,,,,,
,,8,5,${e://Field/PROLIFIC_PID,M,18,2023-11-03_06h16.18.278,MouseEye_CC,2023.2.2,Win32,143.6781609,1.067224095,,,1920,1080,42.549,4,"242.43, 268.32, 271.17, 247.49, 262.15, 245.48, 332.36",722.01,7.426955576,29.70782231,27.83653633,Passed,99.52120472,,,,,,,,,,,,,,,,,,,,,,,,,,,,,,,,,,,,,,,,,,,,,,,,,,,,,,,,,,,,,,,,,,,,,,,,,,,,,,,,,,,,,,,,,,,,,,,,,,,,,,,,351.8861,356.1501,,,,,,,,,,,,,,,,,,,,,,,,,,,,,,,,,,,,,,,,,,,,,,,,,,,,,,,,,,,
,,8,5,${e://Field/PROLIFIC_PID,M,18,2023-11-03_06h16.18.278,MouseEye_CC,2023.2.2,Win32,143.6781609,1.067224095,,,1920,1080,42.549,4,"242.43, 268.32, 271.17, 247.49, 262.15, 245.48, 332.36",722.01,7.426955576,29.70782231,27.83653633,Passed,99.52120472,,,,,,,,,,,,,,,,,,,,training,1,1,0,left,a,,,,,356.22,357.7262,29.88227467,-1,7.5,1,0,0,1.5061,fixationPoint,357.7262,357.8232,357.8232,361.5316,29.88227467,8537.792763,514.402014,a,1,3.698,,361.5316,361.7329,,,,,,,,33,-112,66,214,212,124,172,167,117,-124,-161,-71,-122,-216,-75,118,-212,212,-172,168,-77,-171,16,-216,68,360,180,270,270,90,270,360,90,180,270,180,,,,,,,,,,,361.7333,361.7346,,0,0,0,0,1,15,novel,,,,,,,,,,,,,,,,,,,,,,,,,,,,,,,,,,,,,,,,,,,,,,,,,
,,8,5,${e://Field/PROLIFIC_PID,M,18,2023-11-03_06h16.18.278,MouseEye_CC,2023.2.2,Win32,143.6781609,1.067224095,,,1920,1080,42.549,4,"242.43, 268.32, 271.17, 247.49, 262.15, 245.48, 332.36",722.01,7.426955576,29.70782231,27.83653633,Passed,99.52120472,,,,,,,,,,,,,,,,,,,,training,1,2,180,right,s,,,,,361.7349,364.2815,29.88227467,0,-0.5,1,0,0,2.5466,fixationPoint,364.2815,364.3787,364.3788,365.7122,29.88227467,8537.792763,514.402014,s,1,1.3267,,365.7122,365.9134,,,,,,,,17,64,160,-24,128,-167,171,-114,26,-74,-66,-216,-75,-224,-167,66,-26,28,-168,24,-210,64,219,25,218,90,270,90,270,270,90,180,360,360,360,180,,,,,,,,,,,365.9135,365.9136,,0,1,1,1,1,2,repeated,,,,,,,,,,,,,,,,,,,,,,,,,,,,,,,,,,,,,,,,,,,,,,,,,
,,8,5,${e://Field/PROLIFIC_PID,M,18,2023-11-03_06h16.18.278,MouseEye_CC,2023.2.2,Win32,143.6781609,1.067224095,,,1920,1080,42.549,4,"242.43, 268.32, 271.17, 247.49, 262.15, 245.48, 332.36",722.01,7.426955576,29.70782231,27.83653633,Passed,99.52120472,,,,,,,,,,,,,,,,,,,,training,1,3,180,right,s,,,,,365.9139,366.2537,29.88227467,2,3.5,1,0,0,0.3398,fixationPoint,366.2537,366.351,366.351,367.2191,29.88227467,8537.792763,514.402014,s,1,0.8661,,367.2191,367.4204,,,,,,,,40,213,65,-71,116,-18,16,-213,22,-28,-171,-16,-220,-165,-124,72,-67,74,-116,223,-119,123,127,26,16,270,90,90,180,360,270,270,360,180,270,90,,,,,,,,,,,367.4204,367.4205,,0,2,2,2,1,1,repeated,,,,,,,,,,,,,,,,,,,,,,,,,,,,,,,,,,,,,,,,,,,,,,,,,
,,8,5,${e://Field/PROLIFIC_PID,M,18,2023-11-03_06h16.18.278,MouseEye_CC,2023.2.2,Win32,143.6781609,1.067224095,,,1920,1080,42.549,4,"242.43, 268.32, 271.17, 247.49, 262.15, 245.48, 332.36",722.01,7.426955576,29.70782231,27.83653633,Passed,99.52120472,,,,,,,,,,,,,,,,,,,,training,1,4,180,right,s,,,,,367.4208,367.6288,29.88227467,2,3.5,1,0,0,0.2078,fixationPoint,367.6288,367.7259,367.7259,371.2745,29.88227467,8537.792763,514.402014,a,0,3.5424,,371.2745,375.2745,,,,,,,,24,-71,116,64,219,163,28,160,73,-17,-28,-124,-161,-215,-115,74,-116,208,-68,164,-213,-28,211,-114,26,180,270,270,90,270,360,90,360,270,270,180,,,,,,,,,,,375.2745,375.2801,,0,3,3,3,1,3,repeated,,,,,,,,,,,,,,,,,,,,,,,,,,,,,,,,,,,,,,,,,,,,,,,,,
,,8,5,${e://Field/PROLIFIC_PID,M,18,2023-11-03_06h16.18.278,MouseEye_CC,2023.2.2,Win32,143.6781609,1.067224095,,,1920,1080,42.549,4,"242.43, 268.32, 271.17, 247.49, 262.15, 245.48, 332.36",722.01,7.426955576,29.70782231,27.83653633,Passed,99.52120472,,,,,,,,,,,,,,,,,,,,training,1,5,0,left,a,,,,,375.2803,375.58,29.88227467,1,-1.5,1,0,0,0.2996,fixationPoint,375.5801,375.6773,375.6773,377.8717,29.88227467,8537.792763,514.402014,a,1,2.188,,377.8718,378.0731,,,,,,,,27,76,113,-24,128,-120,122,-176,72,-124,-25,-215,-115,-16,-220,163,-122,211,-30,74,-116,213,65,71,22,270,360,90,270,270,90,360,270,90,90,360,,,,,,,,,,,378.0731,378.0732,,0,4,4,4,1,14,novel,,,,,,,,,,,,,,,,,,,,,,,,,,,,,,,,,,,,,,,,,,,,,,,,,
,,8,5,${e://Field/PROLIFIC_PID,M,18,2023-11-03_06h16.18.278,MouseEye_CC,2023.2.2,Win32,143.6781609,1.067224095,,,1920,1080,42.549,4,"242.43, 268.32, 271.17, 247.49, 262.15, 245.48, 332.36",722.01,7.426955576,29.70782231,27.83653633,Passed,99.52120472,,,,,,,,,,,,,,,,,,,,training,1,6,180,right,s,,,,,378.0735,378.3092,29.88227467,0,-3.5,1,0,0,0.2357,fixationPoint,378.3093,378.4063,378.4065,381.705,29.88227467,8537.792763,514.402014,s,1,3.2918,,381.705,381.9063,,,,,,,,3,-115,210,123,24,124,172,210,32,-17,-118,-71,-122,-68,-24,114,-64,167,-168,210,-210,-222,209,-28,211,180,90,180,270,360,90,180,360,360,180,180,,,,,,,,,,,381.9064,381.9066,,0,5,5,5,1,4,repeated,,,,,,,,,,,,,,,,,,,,,,,,,,,,,,,,,,,,,,,,,,,,,,,,,
,,8,5,${e://Field/PROLIFIC_PID,M,18,2023-11-03_06h16.18.278,MouseEye_CC,2023.2.2,Win32,143.6781609,1.067224095,,,1920,1080,42.549,4,"242.43, 268.32, 271.17, 247.49, 262.15, 245.48, 332.36",722.01,7.426955576,29.70782231,27.83653633,Passed,99.52120472,,,,,,,,,,,,,,,,,,,,training,1,7,0,left,a,,,,,381.9067,381.955,29.88227467,0,-3.5,1,0,0,0.048,fixationPoint,381.955,382.0523,382.0523,383.0592,29.88227467,8537.792763,514.402014,a,1,1.0002,,383.0592,383.2605,,,,,,,,68,114,-64,220,176,174,216,19,160,-171,16,-167,171,-176,72,-215,-115,-216,-75,-218,-212,116,-171,28,-168,270,360,90,360,180,90,360,90,270,90,90,,,,,,,,,,,383.2605,383.2606,,0,6,6,6,1,7,repeated,,,,,,,,,,,,,,,,,,,,,,,,,,,,,,,,,,,,,,,,,,,,,,,,,
,,8,5,${e://Field/PROLIFIC_PID,M,18,2023-11-03_06h16.18.278,MouseEye_CC,2023.2.2,Win32,143.6781609,1.067224095,,,1920,1080,42.549,4,"242.43, 268.32, 271.17, 247.49, 262.15, 245.48, 332.36",722.01,7.426955576,29.70782231,27.83653633,Passed,99.52120472,,,,,,,,,,,,,,,,,,,,training,1,8,180,right,s,,,,,383.2609,383.4758,29.88227467,0,-3.5,1,0,0,0.2148,fixationPoint,383.4758,383.573,383.5731,387.2467,29.88227467,8537.792763,514.402014,s,1,3.67,,387.2467,387.448,,,,,,,,84,-67,-176,160,73,19,160,123,24,-213,22,-28,71,-176,72,28,-168,72,-67,23,-30,-68,-24,-31,-66,270,360,360,90,90,270,90,180,270,270,270,,,,,,,,,,,387.448,387.4481,,0,7,7,7,1,10,novel,,,,,,,,,,,,,,,,,,,,,,,,,,,,,,,,,,,,,,,,,,,,,,,,,
,,8,5,${e://Field/PROLIFIC_PID,M,18,2023-11-03_06h16.18.278,MouseEye_CC,2023.2.2,Win32,143.6781609,1.067224095,,,1920,1080,42.549,4,"242.43, 268.32, 271.17, 247.49, 262.15, 245.48, 332.36",722.01,7.426955576,29.70782231,27.83653633,Passed,99.52120472,,,,,,,,,,,,,,,,,,,,training,1,9,0,left,a,,,,,387.4483,387.6285,29.88227467,0,-3.5,1,0,0,0.1802,fixationPoint,387.6286,387.7258,387.7259,389.6911,29.88227467,8537.792763,514.402014,a,1,1.962,,389.6911,389.8923,,,,,,,,74,-71,-122,210,32,30,117,76,113,-211,116,-24,128,-80,173,116,-171,163,-122,212,-172,-218,-212,-215,-115,270,90,270,180,360,180,90,270,270,90,360,,,,,,,,,,,389.8924,389.8926,,0,8,8,8,1,6,repeated,,,,,,,,,,,,,,,,,,,,,,,,,,,,,,,,,,,,,,,,,,,,,,,,,
,,8,5,${e://Field/PROLIFIC_PID,M,18,2023-11-03_06h16.18.278,MouseEye_CC,2023.2.2,Win32,143.6781609,1.067224095,,,1920,1080,42.549,4,"242.43, 268.32, 271.17, 247.49, 262.15, 245.48, 332.36",722.01,7.426955576,29.70782231,27.83653633,Passed,99.52120472,,,,,,,,,,,,,,,,,,,,training,1,10,180,right,s,,,,,389.8927,390.1285,29.88227467,0,-3.5,1,0,0,0.2357,fixationPoint,390.1285,390.2258,390.2258,394.5244,29.88227467,8537.792763,514.402014,s,1,4.2944,,394.5244,394.7257,,,,,,,,61,-216,-75,26,16,30,117,122,64,-120,122,-166,209,-222,209,72,-67,28,-168,68,-211,-113,-212,-68,-24,180,360,90,270,90,360,180,180,270,270,90,,,,,,,,,,,394.7257,394.7259,,0,9,9,9,1,9,novel,,,,,,,,,,,,,,,,,,,,,,,,,,,,,,,,,,,,,,,,,,,,,,,,,
,,8,5,${e://Field/PROLIFIC_PID,M,18,2023-11-03_06h16.18.278,MouseEye_CC,2023.2.2,Win32,143.6781609,1.067224095,,,1920,1080,42.549,4,"242.43, 268.32, 271.17, 247.49, 262.15, 245.48, 332.36",722.01,7.426955576,29.70782231,27.83653633,Passed,99.52120472,,,,,,,,,,,,,,,,,,,,training,1,11,0,left,a,,,,,394.7261,394.9063,29.88227467,-1,-3.5,1,0,0,0.1801,fixationPoint,394.9063,395.0035,395.0036,397.9272,29.88227467,8537.792763,514.402014,a,1,2.9167,,397.9272,398.1284,,,,,,,,5,-28,211,124,172,122,64,64,160,-121,-80,-68,-24,-224,-167,23,-30,66,-26,21,-124,-68,211,-115,210,360,270,90,90,270,180,360,180,270,180,180,,,,,,,,,,,398.1284,398.1286,,0,10,10,10,1,16,novel,,,,,,,,,,,,,,,,,,,,,,,,,,,,,,,,,,,,,,,,,,,,,,,,,
,,8,5,${e://Field/PROLIFIC_PID,M,18,2023-11-03_06h16.18.278,MouseEye_CC,2023.2.2,Win32,143.6781609,1.067224095,,,1920,1080,42.549,4,"242.43, 268.32, 271.17, 247.49, 262.15, 245.48, 332.36",722.01,7.426955576,29.70782231,27.83653633,Passed,99.52120472,,,,,,,,,,,,,,,,,,,,training,1,12,0,left,a,,,,,398.1288,398.6701,29.88227467,-8,19.5,1,0,0,0.0622,fixationPoint,398.6701,398.7673,398.7674,402.6215,29.88227467,8537.792763,514.402014,a,1,3.8472,,402.6216,402.8229,,,,,,,,98,118,-212,71,22,213,65,214,212,-167,171,-120,122,-112,66,-31,-66,-165,-124,-17,-118,113,-25,28,-168,90,90,180,90,180,360,360,180,270,360,360,,,,,,,,,,,402.8229,402.8231,,0,11,11,11,1,12,novel,,,,,,,,,,,,,,,,,,,,,,,,,,,,,,,,,,,,,,,,,,,,,,,,,
,,8,5,${e://Field/PROLIFIC_PID,M,18,2023-11-03_06h16.18.278,MouseEye_CC,2023.2.2,Win32,143.6781609,1.067224095,,,1920,1080,42.549,4,"242.43, 268.32, 271.17, 247.49, 262.15, 245.48, 332.36",722.01,7.426955576,29.70782231,27.83653633,Passed,99.52120472,,,,,,,,,,,,,,,,,,,,training,1,13,180,right,s,,,,,402.8232,403.0661,29.88227467,-5,6.5,1,0,0,0.2427,fixationPoint,403.0661,403.1631,403.1631,405.7395,29.88227467,8537.792763,514.402014,s,1,2.5702,,405.7395,405.941,,,,,,,,50,210,32,-213,22,-171,16,-120,122,-216,-75,-176,-169,-17,-118,164,-213,127,-113,21,-124,64,219,76,113,360,270,90,270,270,180,270,180,180,270,360,,,,,,,,,,,405.941,405.941,,0,12,12,12,1,13,novel,,,,,,,,,,,,,,,,,,,,,,,,,,,,,,,,,,,,,,,,,,,,,,,,,
,,8,5,${e://Field/PROLIFIC_PID,M,18,2023-11-03_06h16.18.278,MouseEye_CC,2023.2.2,Win32,143.6781609,1.067224095,,,1920,1080,42.549,4,"242.43, 268.32, 271.17, 247.49, 262.15, 245.48, 332.36",722.01,7.426955576,29.70782231,27.83653633,Passed,99.52120472,,,,,,,,,,,,,,,,,,,,training,1,14,0,left,a,,,,,405.9413,408.1561,29.88227467,-5,6.5,1,0,0,2.2148,fixationPoint,408.1561,408.2533,408.2534,411.6632,29.88227467,8537.792763,514.402014,s,0,3.4027,,411.6632,415.663,,,,,,,,77,74,-116,220,176,174,216,71,22,-167,171,-120,122,-176,72,-17,-28,-165,-124,-218,-212,32,-79,113,-25,90,180,360,270,180,270,180,180,180,360,90,,,,,,,,,,,415.6631,415.6685,,0,13,13,13,1,11,novel,,,,,,,,,,,,,,,,,,,,,,,,,,,,,,,,,,,,,,,,,,,,,,,,,
,,8,5,${e://Field/PROLIFIC_PID,M,18,2023-11-03_06h16.18.278,MouseEye_CC,2023.2.2,Win32,143.6781609,1.067224095,,,1920,1080,42.549,4,"242.43, 268.32, 271.17, 247.49, 262.15, 245.48, 332.36",722.01,7.426955576,29.70782231,27.83653633,Passed,99.52120472,,,,,,,,,,,,,,,,,,,,training,1,15,0,left,a,,,,,415.6688,416.2603,29.88227467,-5,4.5,1,0,0,0.5914,fixationPoint,416.2603,416.3574,416.3574,418.545,29.88227467,8537.792763,514.402014,a,1,2.1812,,418.545,418.7464,,,,,,,,96,24,-210,76,113,30,117,163,28,-68,211,-114,26,-171,16,-165,-124,-124,-25,-74,-66,212,-172,23,-30,270,360,270,90,180,360,270,180,360,360,180,,,,,,,,,,,418.7464,418.7465,,0,14,14,14,1,8,repeated,,,,,,,,,,,,,,,,,,,,,,,,,,,,,,,,,,,,,,,,,,,,,,,,,
,,8,5,${e://Field/PROLIFIC_PID,M,18,2023-11-03_06h16.18.278,MouseEye_CC,2023.2.2,Win32,143.6781609,1.067224095,,,1920,1080,42.549,4,"242.43, 268.32, 271.17, 247.49, 262.15, 245.48, 332.36",722.01,7.426955576,29.70782231,27.83653633,Passed,99.52120472,,,,,,,,,,,,,,,,,,,,training,1,16,180,right,s,,,,,418.7467,418.9616,29.88227467,-5,4.5,1,0,0,0.2149,fixationPoint,418.9616,419.0589,419.0589,423.9616,29.88227467,8537.792763,514.402014,s,1,4.8959,,423.9617,424.1632,,,,,,,,51,-216,-20,160,73,123,127,210,32,-176,72,-71,116,-68,211,208,-68,113,-25,118,-212,-67,-176,-16,-220,180,270,180,360,360,180,180,270,180,180,270,,,,,,,,,,,424.1632,463.2808,space,0,15,15,15,1,5,repeated,39.1056,,,,,,,,,,,,,,,,,,,,,,,,,,,,,,,,,,,,,,,,,,,,,,,,
,,8,5,${e://Field/PROLIFIC_PID,M,18,2023-11-03_06h16.18.278,MouseEye_CC,2023.2.2,Win32,143.6781609,1.067224095,,,1920,1080,42.549,4,"242.43, 268.32, 271.17, 247.49, 262.15, 245.48, 332.36",722.01,7.426955576,29.70782231,27.83653633,Passed,99.52120472,,,,,,,,,,,,,,,,,,,,training,2,1,180,right,s,,,,,463.287,466.3154,29.88227467,4,-8.5,1,0,0,3.0284,fixationPoint,466.3154,466.4126,466.4126,470.1904,29.88227467,8537.792763,514.402014,a,0,3.765,,470.1904,474.1903,,,,,,,,84,-67,-176,64,160,123,127,26,16,-171,16,-28,211,-120,122,118,-212,163,-122,114,-64,-168,-19,-121,-80,90,90,360,90,360,270,180,270,270,180,270,,,,,,,,,,,474.1903,474.1966,,0,16,16,16,1,10,novel,,,,,,,,,,,,,,,,,,,,,,,,,,,,,,,,,,,,,,,,,,,,,,,,,
,,8,5,${e://Field/PROLIFIC_PID,M,18,2023-11-03_06h16.18.278,MouseEye_CC,2023.2.2,Win32,143.6781609,1.067224095,,,1920,1080,42.549,4,"242.43, 268.32, 271.17, 247.49, 262.15, 245.48, 332.36",722.01,7.426955576,29.70782231,27.83653633,Passed,99.52120472,,,,,,,,,,,,,,,,,,,,training,2,2,180,right,s,,,,,474.1968,474.4821,29.88227467,-2,3.5,1,0,0,0.2853,fixationPoint,474.4821,474.5792,474.5793,476.7875,29.88227467,8537.792763,514.402014,s,1,2.2036,,476.7875,476.989,,,,,,,,98,118,-212,80,73,25,218,124,219,-28,211,-69,66,-167,171,-165,-124,-28,-171,-68,-24,161,-16,28,-168,270,360,180,360,90,90,270,360,90,180,90,,,,,,,,,,,476.989,476.9891,,0,17,17,17,1,12,novel,,,,,,,,,,,,,,,,,,,,,,,,,,,,,,,,,,,,,,,,,,,,,,,,,
,,8,5,${e://Field/PROLIFIC_PID,M,18,2023-11-03_06h16.18.278,MouseEye_CC,2023.2.2,Win32,143.6781609,1.067224095,,,1920,1080,42.549,4,"242.43, 268.32, 271.17, 247.49, 262.15, 245.48, 332.36",722.01,7.426955576,29.70782231,27.83653633,Passed,99.52120472,,,,,,,,,,,,,,,,,,,,training,2,3,180,right,s,,,,,476.9893,477.6,29.88227467,2,3.5,1,0,0,0.6105,fixationPoint,477.6,477.6972,477.6972,479.6209,29.88227467,8537.792763,514.402014,s,1,1.9188,,479.6209,479.8222,,,,,,,,24,-71,116,64,219,163,28,160,73,-17,-28,-124,-161,-215,-115,74,-116,208,-68,164,-213,-28,211,-114,26,90,90,90,270,360,90,270,90,270,360,180,,,,,,,,,,,479.8222,479.8223,,0,18,18,18,1,3,repeated,,,,,,,,,,,,,,,,,,,,,,,,,,,,,,,,,,,,,,,,,,,,,,,,,
,,8,5,${e://Field/PROLIFIC_PID,M,18,2023-11-03_06h16.18.278,MouseEye_CC,2023.2.2,Win32,143.6781609,1.067224095,,,1920,1080,42.549,4,"242.43, 268.32, 271.17, 247.49, 262.15, 245.48, 332.36",722.01,7.426955576,29.70782231,27.83653633,Passed,99.52120472,,,,,,,,,,,,,,,,,,,,training,2,4,0,left,a,,,,,479.8225,479.9819,29.88227467,-8,4.5,1,0,0,0.1593,fixationPoint,479.982,480.0791,480.0792,481.8917,29.88227467,8537.792763,514.402014,a,1,1.8058,,481.8917,482.093,,,,,,,,3,-115,210,123,24,124,172,210,32,-17,-118,-71,-122,-68,-24,114,-64,167,-168,210,-210,-222,209,-28,211,270,90,180,270,360,360,90,360,180,360,180,,,,,,,,,,,482.0931,482.0931,,0,19,19,19,1,4,repeated,,,,,,,,,,,,,,,,,,,,,,,,,,,,,,,,,,,,,,,,,,,,,,,,,
,,8,5,${e://Field/PROLIFIC_PID,M,18,2023-11-03_06h16.18.278,MouseEye_CC,2023.2.2,Win32,143.6781609,1.067224095,,,1920,1080,42.549,4,"242.43, 268.32, 271.17, 247.49, 262.15, 245.48, 332.36",722.01,7.426955576,29.70782231,27.83653633,Passed,99.52120472,,,,,,,,,,,,,,,,,,,,training,2,5,0,left,a,,,,,482.0934,482.225,29.88227467,-8,4.5,1,0,0,0.1316,fixationPoint,482.225,482.3222,482.3222,484.4266,29.88227467,8537.792763,514.402014,a,1,2.1028,,484.4266,484.6278,,,,,,,,27,76,113,-166,209,-18,16,-176,115,-118,-128,-124,-25,-67,-176,127,-113,211,-30,21,-124,124,172,160,73,180,270,90,360,360,270,270,90,360,360,360,,,,,,,,,,,484.6278,484.6279,,0,20,20,20,1,14,novel,,,,,,,,,,,,,,,,,,,,,,,,,,,,,,,,,,,,,,,,,,,,,,,,,
,,8,5,${e://Field/PROLIFIC_PID,M,18,2023-11-03_06h16.18.278,MouseEye_CC,2023.2.2,Win32,143.6781609,1.067224095,,,1920,1080,42.549,4,"242.43, 268.32, 271.17, 247.49, 262.15, 245.48, 332.36",722.01,7.426955576,29.70782231,27.83653633,Passed,99.52120472,,,,,,,,,,,,,,,,,,,,training,2,6,180,right,s,,,,,484.6281,484.7458,29.88227467,-8,4.5,1,0,0,0.1176,fixationPoint,484.7458,484.843,484.843,485.6834,29.88227467,8537.792763,514.402014,s,1,0.8388,,485.6834,485.8846,,,,,,,,33,-112,66,64,219,25,218,220,176,-176,-169,-16,-220,-28,-171,68,-211,32,-79,208,-68,-28,211,-222,209,180,180,360,360,180,270,270,90,180,270,90,,,,,,,,,,,485.8846,485.8848,,0,21,21,21,1,15,novel,,,,,,,,,,,,,,,,,,,,,,,,,,,,,,,,,,,,,,,,,,,,,,,,,
,,8,5,${e://Field/PROLIFIC_PID,M,18,2023-11-03_06h16.18.278,MouseEye_CC,2023.2.2,Win32,143.6781609,1.067224095,,,1920,1080,42.549,4,"242.43, 268.32, 271.17, 247.49, 262.15, 245.48, 332.36",722.01,7.426955576,29.70782231,27.83653633,Passed,99.52120472,,,,,,,,,,,,,,,,,,,,training,2,7,0,left,a,,,,,485.885,486.0791,29.88227467,-8,4.5,1,0,0,0.1941,fixationPoint,486.0791,486.1763,486.1764,489.4472,29.88227467,8537.792763,514.402014,s,0,3.264,,489.4472,493.4472,,,,,,,,68,114,-64,220,176,174,216,19,160,-171,16,-167,171,-176,72,-215,-115,-216,-75,-218,-212,116,-171,28,-168,180,270,360,180,90,360,90,270,180,270,360,,,,,,,,,,,493.4472,493.4526,,0,22,22,22,1,7,repeated,,,,,,,,,,,,,,,,,,,,,,,,,,,,,,,,,,,,,,,,,,,,,,,,,
,,8,5,${e://Field/PROLIFIC_PID,M,18,2023-11-03_06h16.18.278,MouseEye_CC,2023.2.2,Win32,143.6781609,1.067224095,,,1920,1080,42.549,4,"242.43, 268.32, 271.17, 247.49, 262.15, 245.48, 332.36",722.01,7.426955576,29.70782231,27.83653633,Passed,99.52120472,,,,,,,,,,,,,,,,,,,,training,2,8,0,left,a,,,,,493.4529,493.7873,29.88227467,1,-8.5,1,0,0,0.3344,fixationPoint,493.7874,493.8847,493.8848,497.6068,29.88227467,8537.792763,514.402014,a,1,3.7175,,497.6069,497.8083,,,,,,,,40,213,65,-71,116,-18,16,-213,22,-28,-171,-16,-220,-165,-124,72,-67,74,-116,223,-119,123,127,26,16,360,180,180,270,270,270,270,90,360,270,270,,,,,,,,,,,497.8084,497.8086,,0,23,23,23,1,1,repeated,,,,,,,,,,,,,,,,,,,,,,,,,,,,,,,,,,,,,,,,,,,,,,,,,
,,8,5,${e://Field/PROLIFIC_PID,M,18,2023-11-03_06h16.18.278,MouseEye_CC,2023.2.2,Win32,143.6781609,1.067224095,,,1920,1080,42.549,4,"242.43, 268.32, 271.17, 247.49, 262.15, 245.48, 332.36",722.01,7.426955576,29.70782231,27.83653633,Passed,99.52120472,,,,,,,,,,,,,,,,,,,,training,2,9,0,left,a,,,,,497.8089,498.0165,29.88227467,5,1.5,1,0,0,0.2076,fixationPoint,498.0165,498.1137,498.1137,501.3915,29.88227467,8537.792763,514.402014,a,1,3.2756,,501.3916,501.5928,,,,,,,,74,-71,-122,210,32,30,117,76,113,-211,116,-24,128,-80,173,116,-171,163,-122,212,-172,-218,-212,-215,-115,270,180,270,360,360,180,360,270,270,360,270,,,,,,,,,,,501.5929,501.5929,,0,24,24,24,1,6,repeated,,,,,,,,,,,,,,,,,,,,,,,,,,,,,,,,,,,,,,,,,,,,,,,,,
,,8,5,${e://Field/PROLIFIC_PID,M,18,2023-11-03_06h16.18.278,MouseEye_CC,2023.2.2,Win32,143.6781609,1.067224095,,,1920,1080,42.549,4,"242.43, 268.32, 271.17, 247.49, 262.15, 245.48, 332.36",722.01,7.426955576,29.70782231,27.83653633,Passed,99.52120472,,,,,,,,,,,,,,,,,,,,training,2,10,0,left,a,,,,,501.5931,501.8848,29.88227467,-7,6.5,1,0,0,0.2915,fixationPoint,501.8848,501.982,501.982,504.447,29.88227467,8537.792763,514.402014,s,0,2.458,,504.4471,508.4471,,,,,,,,17,64,160,-24,128,-167,171,-114,26,-74,-66,-216,-75,-224,-167,66,-26,28,-168,24,-210,64,219,25,218,360,180,90,360,90,90,90,180,360,90,90,,,,,,,,,,,508.4472,508.4534,,0,25,25,25,1,2,repeated,,,,,,,,,,,,,,,,,,,,,,,,,,,,,,,,,,,,,,,,,,,,,,,,,
,,8,5,${e://Field/PROLIFIC_PID,M,18,2023-11-03_06h16.18.278,MouseEye_CC,2023.2.2,Win32,143.6781609,1.067224095,,,1920,1080,42.549,4,"242.43, 268.32, 271.17, 247.49, 262.15, 245.48, 332.36",722.01,7.426955576,29.70782231,27.83653633,Passed,99.52120472,,,,,,,,,,,,,,,,,,,,training,2,11,180,right,s,,,,,508.4536,508.7803,29.88227467,-8,0.5,1,0,0,0.3265,fixationPoint,508.7804,508.8775,508.8775,512.7872,29.88227467,8537.792763,514.402014,s,1,3.9064,,512.7872,512.9886,,,,,,,,77,74,-116,172,164,30,117,26,16,-115,210,-167,171,-127,167,-16,-220,-176,-169,-124,-25,28,-168,210,-210,180,360,270,90,90,90,360,90,180,270,270,,,,,,,,,,,512.9886,512.9887,,0,26,26,26,1,11,novel,,,,,,,,,,,,,,,,,,,,,,,,,,,,,,,,,,,,,,,,,,,,,,,,,
,,8,5,${e://Field/PROLIFIC_PID,M,18,2023-11-03_06h16.18.278,MouseEye_CC,2023.2.2,Win32,143.6781609,1.067224095,,,1920,1080,42.549,4,"242.43, 268.32, 271.17, 247.49, 262.15, 245.48, 332.36",722.01,7.426955576,29.70782231,27.83653633,Passed,99.52120472,,,,,,,,,,,,,,,,,,,,training,2,12,180,right,s,,,,,512.989,513.0789,29.88227467,-9,0.5,1,0,0,0.0899,fixationPoint,513.079,513.1761,513.1761,516.2595,29.88227467,8537.792763,514.402014,s,1,3.0808,,516.2595,516.461,,,,,,,,50,210,32,-176,72,-176,115,-166,209,-224,-167,-67,-176,-216,-20,127,-113,210,-210,66,-26,160,73,71,22,180,360,90,270,180,90,360,270,90,180,360,,,,,,,,,,,516.461,516.4612,,0,27,27,27,1,13,novel,,,,,,,,,,,,,,,,,,,,,,,,,,,,,,,,,,,,,,,,,,,,,,,,,
,,8,5,${e://Field/PROLIFIC_PID,M,18,2023-11-03_06h16.18.278,MouseEye_CC,2023.2.2,Win32,143.6781609,1.067224095,,,1920,1080,42.549,4,"242.43, 268.32, 271.17, 247.49, 262.15, 245.48, 332.36",722.01,7.426955576,29.70782231,27.83653633,Passed,99.52120472,,,,,,,,,,,,,,,,,,,,training,2,13,180,right,s,,,,,516.4615,516.8497,29.88227467,-17,-3.5,1,0,0,0.1312,fixationPoint,516.8498,516.9469,516.9469,519.2802,29.88227467,8537.792763,514.402014,s,1,2.3265,,519.2803,519.4817,,,,,,,,96,24,-210,76,113,30,117,163,28,-68,211,-114,26,-171,16,-165,-124,-124,-25,-74,-66,212,-172,23,-30,270,90,360,90,270,90,180,90,180,90,90,,,,,,,,,,,519.4817,519.4819,,0,28,28,28,1,8,repeated,,,,,,,,,,,,,,,,,,,,,,,,,,,,,,,,,,,,,,,,,,,,,,,,,
,,8,5,${e://Field/PROLIFIC_PID,M,18,2023-11-03_06h16.18.278,MouseEye_CC,2023.2.2,Win32,143.6781609,1.067224095,,,1920,1080,42.549,4,"242.43, 268.32, 271.17, 247.49, 262.15, 245.48, 332.36",722.01,7.426955576,29.70782231,27.83653633,Passed,99.52120472,,,,,,,,,,,,,,,,,,,,training,2,14,0,left,a,,,,,519.4821,519.9748,29.88227467,-24,1.5,1,0,0,0.1591,fixationPoint,519.9748,520.0718,520.0719,523.94,29.88227467,8537.792763,514.402014,a,1,3.8622,,523.94,524.1414,,,,,,,,51,-216,-20,160,73,123,127,210,32,-176,72,-71,116,-68,211,208,-68,113,-25,118,-212,-67,-176,-16,-220,360,180,270,90,180,180,180,180,180,90,90,,,,,,,,,,,524.1414,524.1415,,0,29,29,29,1,5,repeated,,,,,,,,,,,,,,,,,,,,,,,,,,,,,,,,,,,,,,,,,,,,,,,,,
,,8,5,${e://Field/PROLIFIC_PID,M,18,2023-11-03_06h16.18.278,MouseEye_CC,2023.2.2,Win32,143.6781609,1.067224095,,,1920,1080,42.549,4,"242.43, 268.32, 271.17, 247.49, 262.15, 245.48, 332.36",722.01,7.426955576,29.70782231,27.83653633,Passed,99.52120472,,,,,,,,,,,,,,,,,,,,training,2,15,180,right,s,,,,,524.1418,524.2871,29.88227467,-14,2.5,1,0,0,0.1452,fixationPoint,524.2872,524.3843,524.3844,528.2524,29.88227467,8537.792763,514.402014,s,1,3.8623,,528.2525,528.4538,,,,,,,,5,-28,211,122,64,174,216,167,117,-67,-176,-216,-20,-74,-66,118,-212,76,-161,163,-122,-171,16,-28,71,180,90,180,180,180,270,180,360,180,270,90,,,,,,,,,,,528.4538,528.454,,0,30,30,30,1,16,novel,,,,,,,,,,,,,,,,,,,,,,,,,,,,,,,,,,,,,,,,,,,,,,,,,
,,8,5,${e://Field/PROLIFIC_PID,M,18,2023-11-03_06h16.18.278,MouseEye_CC,2023.2.2,Win32,143.6781609,1.067224095,,,1920,1080,42.549,4,"242.43, 268.32, 271.17, 247.49, 262.15, 245.48, 332.36",722.01,7.426955576,29.70782231,27.83653633,Passed,99.52120472,,,,,,,,,,,,,,,,,,,,training,2,16,0,left,a,,,,,528.4542,528.8843,29.88227467,-11,-7.5,1,0,0,0.4301,fixationPoint,528.8843,528.9815,528.9816,530.7732,29.88227467,8537.792763,514.402014,a,1,1.7848,,530.7733,530.9745,,,,,,,,61,-216,-75,122,64,220,176,64,219,-213,22,-223,160,-222,209,210,-210,164,-213,68,-211,-218,-212,-121,-80,270,90,270,90,180,180,90,270,360,360,90,,,,,,,,,,,530.9746,532.3357,space,0,31,31,31,1,9,novel,1.3524,,,,,,,,,,,,,,,,,,,,,,,,,,,,,,,,,,,,,,,,,,,,,,,,
,,8,5,${e://Field/PROLIFIC_PID,M,18,2023-11-03_06h16.18.278,MouseEye_CC,2023.2.2,Win32,143.6781609,1.067224095,,,1920,1080,42.549,4,"242.43, 268.32, 271.17, 247.49, 262.15, 245.48, 332.36",722.01,7.426955576,29.70782231,27.83653633,Passed,99.52120472,,,,,,,,,,,,,,,,,,,,training,3,1,0,left,a,,,,,532.336,532.7454,29.88227467,-3,-3.5,1,0,0,0.4093,fixationPoint,532.7454,532.8426,532.8426,534.4467,29.88227467,8537.792763,514.402014,a,1,1.5974,,534.4468,534.6481,,,,,,,,51,-216,-20,160,73,123,127,210,32,-176,72,-71,116,-68,211,208,-68,113,-25,118,-212,-67,-176,-16,-220,90,180,360,360,180,180,90,90,360,270,270,,,,,,,,,,,534.6482,534.6487,,0,32,32,32,1,5,repeated,,,,,,,,,,,,,,,,,,,,,,,,,,,,,,,,,,,,,,,,,,,,,,,,,
,,8,5,${e://Field/PROLIFIC_PID,M,18,2023-11-03_06h16.18.278,MouseEye_CC,2023.2.2,Win32,143.6781609,1.067224095,,,1920,1080,42.549,4,"242.43, 268.32, 271.17, 247.49, 262.15, 245.48, 332.36",722.01,7.426955576,29.70782231,27.83653633,Passed,99.52120472,,,,,,,,,,,,,,,,,,,,training,3,2,180,right,s,,,,,534.649,534.8149,29.88227467,-2,-2.5,1,0,0,0.1658,fixationPoint,534.8149,534.9119,534.912,536.1204,29.88227467,8537.792763,514.402014,s,1,1.2059,,536.1204,536.3218,,,,,,,,27,76,113,-115,210,-28,211,-127,167,-224,-167,-71,-122,-216,-75,208,-68,21,-124,167,-168,160,73,174,216,360,270,270,270,180,180,180,90,360,90,90,,,,,,,,,,,536.3218,536.3218,,0,33,33,33,1,14,novel,,,,,,,,,,,,,,,,,,,,,,,,,,,,,,,,,,,,,,,,,,,,,,,,,
,,8,5,${e://Field/PROLIFIC_PID,M,18,2023-11-03_06h16.18.278,MouseEye_CC,2023.2.2,Win32,143.6781609,1.067224095,,,1920,1080,42.549,4,"242.43, 268.32, 271.17, 247.49, 262.15, 245.48, 332.36",722.01,7.426955576,29.70782231,27.83653633,Passed,99.52120472,,,,,,,,,,,,,,,,,,,,training,3,3,0,left,a,,,,,536.3221,536.4886,29.88227467,-10,-0.5,1,0,0,0.1665,fixationPoint,536.4887,536.5856,536.5856,540.1411,29.88227467,8537.792763,514.402014,a,1,3.549,,540.1412,540.3426,,,,,,,,84,-67,-176,64,219,25,218,124,172,-176,115,-18,16,-166,209,28,-168,210,-210,118,-212,-74,-66,-118,-128,270,270,90,90,270,180,360,180,180,90,270,,,,,,,,,,,540.3427,540.3428,,0,34,34,34,1,10,novel,,,,,,,,,,,,,,,,,,,,,,,,,,,,,,,,,,,,,,,,,,,,,,,,,
,,8,5,${e://Field/PROLIFIC_PID,M,18,2023-11-03_06h16.18.278,MouseEye_CC,2023.2.2,Win32,143.6781609,1.067224095,,,1920,1080,42.549,4,"242.43, 268.32, 271.17, 247.49, 262.15, 245.48, 332.36",722.01,7.426955576,29.70782231,27.83653633,Passed,99.52120472,,,,,,,,,,,,,,,,,,,,training,3,4,180,right,s,,,,,540.3431,540.4884,29.88227467,-11,-2.5,1,0,0,0.1453,fixationPoint,540.4884,540.5856,540.5856,542.8774,29.88227467,8537.792763,514.402014,s,1,2.2852,,542.8774,543.0787,,,,,,,,68,114,-64,220,176,174,216,19,160,-171,16,-167,171,-176,72,-215,-115,-216,-75,-218,-212,116,-171,28,-168,270,360,360,180,360,270,360,90,360,90,360,,,,,,,,,,,543.0787,543.0787,,0,35,35,35,1,7,repeated,,,,,,,,,,,,,,,,,,,,,,,,,,,,,,,,,,,,,,,,,,,,,,,,,
,,8,5,${e://Field/PROLIFIC_PID,M,18,2023-11-03_06h16.18.278,MouseEye_CC,2023.2.2,Win32,143.6781609,1.067224095,,,1920,1080,42.549,4,"242.43, 268.32, 271.17, 247.49, 262.15, 245.48, 332.36",722.01,7.426955576,29.70782231,27.83653633,Passed,99.52120472,,,,,,,,,,,,,,,,,,,,training,3,5,180,right,s,,,,,543.079,543.1551,29.88227467,-4,3.5,1,0,0,0.076,fixationPoint,543.1551,543.2522,543.2522,544.6134,29.88227467,8537.792763,514.402014,s,1,1.3547,,544.6134,544.8147,,,,,,,,33,-112,66,123,24,124,219,64,219,-74,-66,-168,-213,-224,-167,118,-212,210,-210,72,-67,-114,26,-26,175,90,360,90,360,180,360,90,180,360,270,360,,,,,,,,,,,544.8147,544.8148,,0,36,36,36,1,15,novel,,,,,,,,,,,,,,,,,,,,,,,,,,,,,,,,,,,,,,,,,,,,,,,,,
,,8,5,${e://Field/PROLIFIC_PID,M,18,2023-11-03_06h16.18.278,MouseEye_CC,2023.2.2,Win32,143.6781609,1.067224095,,,1920,1080,42.549,4,"242.43, 268.32, 271.17, 247.49, 262.15, 245.48, 332.36",722.01,7.426955576,29.70782231,27.83653633,Passed,99.52120472,,,,,,,,,,,,,,,,,,,,training,3,6,180,right,s,,,,,544.8151,544.8773,29.88227467,1,-0.5,1,0,0,0.0622,fixationPoint,544.8773,544.9745,544.9745,546.2384,29.88227467,8537.792763,514.402014,s,1,1.2593,,546.2384,546.4397,,,,,,,,61,-216,-75,76,113,163,28,30,117,-167,171,-69,66,-171,16,116,-171,118,-212,210,-210,-218,-212,-74,-66,270,360,180,270,90,180,180,180,90,90,360,,,,,,,,,,,546.4397,546.4398,,0,37,37,37,1,9,novel,,,,,,,,,,,,,,,,,,,,,,,,,,,,,,,,,,,,,,,,,,,,,,,,,
,,8,5,${e://Field/PROLIFIC_PID,M,18,2023-11-03_06h16.18.278,MouseEye_CC,2023.2.2,Win32,143.6781609,1.067224095,,,1920,1080,42.549,4,"242.43, 268.32, 271.17, 247.49, 262.15, 245.48, 332.36",722.01,7.426955576,29.70782231,27.83653633,Passed,99.52120472,,,,,,,,,,,,,,,,,,,,training,3,7,0,left,a,,,,,546.44,546.5716,29.88227467,-3,-0.5,1,0,0,0.1315,fixationPoint,546.5717,546.6688,546.6688,548.3425,29.88227467,8537.792763,514.402014,a,1,1.672,,548.3425,548.5439,,,,,,,,17,64,160,-24,128,-167,171,-114,26,-74,-66,-216,-75,-224,-167,66,-26,28,-168,24,-210,64,219,25,218,90,360,90,90,90,270,360,180,180,360,180,,,,,,,,,,,548.544,548.5442,,0,38,38,38,1,2,repeated,,,,,,,,,,,,,,,,,,,,,,,,,,,,,,,,,,,,,,,,,,,,,,,,,
,,8,5,${e://Field/PROLIFIC_PID,M,18,2023-11-03_06h16.18.278,MouseEye_CC,2023.2.2,Win32,143.6781609,1.067224095,,,1920,1080,42.549,4,"242.43, 268.32, 271.17, 247.49, 262.15, 245.48, 332.36",722.01,7.426955576,29.70782231,27.83653633,Passed,99.52120472,,,,,,,,,,,,,,,,,,,,training,3,8,180,right,s,,,,,548.5444,548.5856,29.88227467,-4,-0.5,1,0,0,0.0411,fixationPoint,548.5856,548.6827,548.6828,550.0717,29.88227467,8537.792763,514.402014,s,1,1.3832,,550.0717,550.273,,,,,,,,77,74,-116,210,32,80,73,220,176,-222,209,-114,26,-176,72,-113,-212,-67,-176,-218,-212,168,-77,32,-79,360,270,90,180,180,180,90,90,180,180,180,,,,,,,,,,,550.273,550.2731,,0,39,39,39,1,11,novel,,,,,,,,,,,,,,,,,,,,,,,,,,,,,,,,,,,,,,,,,,,,,,,,,
,,8,5,${e://Field/PROLIFIC_PID,M,18,2023-11-03_06h16.18.278,MouseEye_CC,2023.2.2,Win32,143.6781609,1.067224095,,,1920,1080,42.549,4,"242.43, 268.32, 271.17, 247.49, 262.15, 245.48, 332.36",722.01,7.426955576,29.70782231,27.83653633,Passed,99.52120472,,,,,,,,,,,,,,,,,,,,training,3,9,0,left,a,,,,,550.2734,550.405,29.88227467,-7,-0.5,1,0,0,0.1315,fixationPoint,550.405,550.5022,550.5022,553.5508,29.88227467,8537.792763,514.402014,a,1,3.0427,,553.5508,553.7521,,,,,,,,96,24,-210,76,113,30,117,163,28,-68,211,-114,26,-171,16,-165,-124,-124,-25,-74,-66,212,-172,23,-30,270,180,180,270,180,180,180,90,270,90,180,,,,,,,,,,,553.7522,553.7522,,0,40,40,40,1,8,repeated,,,,,,,,,,,,,,,,,,,,,,,,,,,,,,,,,,,,,,,,,,,,,,,,,
,,8,5,${e://Field/PROLIFIC_PID,M,18,2023-11-03_06h16.18.278,MouseEye_CC,2023.2.2,Win32,143.6781609,1.067224095,,,1920,1080,42.549,4,"242.43, 268.32, 271.17, 247.49, 262.15, 245.48, 332.36",722.01,7.426955576,29.70782231,27.83653633,Passed,99.52120472,,,,,,,,,,,,,,,,,,,,training,3,10,0,left,a,,,,,553.7525,554.0994,29.88227467,16,-7.5,1,0,0,0.0832,fixationPoint,554.0994,554.1965,554.1966,558.926,29.88227467,8537.792763,514.402014,s,0,4.7237,,558.926,562.9258,,,,,,,,3,-115,210,123,24,124,172,210,32,-17,-118,-71,-122,-68,-24,114,-64,167,-168,210,-210,-222,209,-28,211,360,360,360,360,270,270,360,180,360,360,270,,,,,,,,,,,562.9258,562.9313,,0,41,41,41,1,4,repeated,,,,,,,,,,,,,,,,,,,,,,,,,,,,,,,,,,,,,,,,,,,,,,,,,
,,8,5,${e://Field/PROLIFIC_PID,M,18,2023-11-03_06h16.18.278,MouseEye_CC,2023.2.2,Win32,143.6781609,1.067224095,,,1920,1080,42.549,4,"242.43, 268.32, 271.17, 247.49, 262.15, 245.48, 332.36",722.01,7.426955576,29.70782231,27.83653633,Passed,99.52120472,,,,,,,,,,,,,,,,,,,,training,3,11,0,left,a,,,,,562.9316,563.3632,29.88227467,-5,-9.5,1,0,0,0.4316,fixationPoint,563.3633,563.4604,563.4605,566.0168,29.88227467,8537.792763,514.402014,s,0,2.5546,,566.0169,570.0159,,,,,,,,5,-28,211,172,164,124,172,210,32,-28,-171,-224,-167,-216,-20,76,-161,113,-25,23,-30,-67,24,-176,115,90,360,90,270,90,270,180,180,270,180,90,,,,,,,,,,,570.0159,570.0216,,0,42,42,42,1,16,novel,,,,,,,,,,,,,,,,,,,,,,,,,,,,,,,,,,,,,,,,,,,,,,,,,
,,8,5,${e://Field/PROLIFIC_PID,M,18,2023-11-03_06h16.18.278,MouseEye_CC,2023.2.2,Win32,143.6781609,1.067224095,,,1920,1080,42.549,4,"242.43, 268.32, 271.17, 247.49, 262.15, 245.48, 332.36",722.01,7.426955576,29.70782231,27.83653633,Passed,99.52120472,,,,,,,,,,,,,,,,,,,,training,3,12,180,right,s,,,,,570.0218,570.5228,29.88227467,-5,-10.5,1,0,0,0.5009,fixationPoint,570.5228,570.6201,570.6201,572.002,29.88227467,8537.792763,514.402014,s,1,1.3752,,572.002,572.2035,,,,,,,,40,213,65,-71,116,-18,16,-213,22,-28,-171,-16,-220,-165,-124,72,-67,74,-116,223,-119,123,127,26,16,180,90,360,90,90,180,90,180,270,90,270,,,,,,,,,,,572.2035,572.2037,,0,43,43,43,1,1,repeated,,,,,,,,,,,,,,,,,,,,,,,,,,,,,,,,,,,,,,,,,,,,,,,,,
,,8,5,${e://Field/PROLIFIC_PID,M,18,2023-11-03_06h16.18.278,MouseEye_CC,2023.2.2,Win32,143.6781609,1.067224095,,,1920,1080,42.549,4,"242.43, 268.32, 271.17, 247.49, 262.15, 245.48, 332.36",722.01,7.426955576,29.70782231,27.83653633,Passed,99.52120472,,,,,,,,,,,,,,,,,,,,training,3,13,0,left,a,,,,,572.2039,572.4535,29.88227467,1,-6.5,1,0,0,0.2496,fixationPoint,572.4537,572.5507,572.5508,576.2452,29.88227467,8537.792763,514.402014,s,0,3.688,,576.2452,580.245,,,,,,,,74,-71,-122,210,32,30,117,76,113,-211,116,-24,128,-80,173,116,-171,163,-122,212,-172,-218,-212,-215,-115,180,270,90,90,180,270,270,270,270,270,180,,,,,,,,,,,580.245,580.2504,,0,44,44,44,1,6,repeated,,,,,,,,,,,,,,,,,,,,,,,,,,,,,,,,,,,,,,,,,,,,,,,,,
,,8,5,${e://Field/PROLIFIC_PID,M,18,2023-11-03_06h16.18.278,MouseEye_CC,2023.2.2,Win32,143.6781609,1.067224095,,,1920,1080,42.549,4,"242.43, 268.32, 271.17, 247.49, 262.15, 245.48, 332.36",722.01,7.426955576,29.70782231,27.83653633,Passed,99.52120472,,,,,,,,,,,,,,,,,,,,training,3,14,0,left,a,,,,,580.2507,580.5366,29.88227467,-3,-5.5,1,0,0,0.2859,fixationPoint,580.5367,580.6338,580.6338,583.8008,29.88227467,8537.792763,514.402014,a,1,3.162,,583.8008,584.002,,,,,,,,98,118,-212,25,218,160,73,123,127,-120,122,-166,209,-18,16,-118,-128,-71,-122,-16,-220,211,-30,21,-124,90,270,90,270,90,360,360,360,360,360,180,,,,,,,,,,,584.002,584.0021,,0,45,45,45,1,12,novel,,,,,,,,,,,,,,,,,,,,,,,,,,,,,,,,,,,,,,,,,,,,,,,,,
,,8,5,${e://Field/PROLIFIC_PID,M,18,2023-11-03_06h16.18.278,MouseEye_CC,2023.2.2,Win32,143.6781609,1.067224095,,,1920,1080,42.549,4,"242.43, 268.32, 271.17, 247.49, 262.15, 245.48, 332.36",722.01,7.426955576,29.70782231,27.83653633,Passed,99.52120472,,,,,,,,,,,,,,,,,,,,training,3,15,180,right,s,,,,,584.0024,584.6272,29.88227467,15,-6.5,1,0,0,0.4369,fixationPoint,584.6272,584.7245,584.7246,586.6131,29.88227467,8537.792763,514.402014,s,1,1.8818,,586.6131,586.8143,,,,,,,,24,-71,116,64,219,163,28,160,73,-17,-28,-124,-161,-215,-115,74,-116,208,-68,164,-213,-28,211,-114,26,180,270,180,90,90,270,90,360,270,180,360,,,,,,,,,,,586.8144,586.8146,,0,46,46,46,1,3,repeated,,,,,,,,,,,,,,,,,,,,,,,,,,,,,,,,,,,,,,,,,,,,,,,,,
,,8,5,${e://Field/PROLIFIC_PID,M,18,2023-11-03_06h16.18.278,MouseEye_CC,2023.2.2,Win32,143.6781609,1.067224095,,,1920,1080,42.549,4,"242.43, 268.32, 271.17, 247.49, 262.15, 245.48, 332.36",722.01,7.426955576,29.70782231,27.83653633,Passed,99.52120472,,,,,,,,,,,,,,,,,,,,training,3,16,180,right,s,,,,,586.8148,587.0436,29.88227467,-5,-0.5,1,0,0,0.2286,fixationPoint,587.0436,587.1407,587.1408,591.1131,29.88227467,8537.792763,514.402014,s,1,3.9659,,591.1132,591.3143,,,,,,,,50,210,32,-68,211,-167,171,-28,71,-216,-20,-168,-19,-74,-66,23,-30,66,-26,76,-161,167,117,122,64,360,270,270,270,270,90,270,270,360,270,360,,,,,,,,,,,591.3143,620.5086,space,0,47,47,47,1,13,novel,29.1893,,,,,,,,,,,,,,,,,,,,,,,,,,,,,,,,,,,,,,,,,,,,,,,,
,,8,5,${e://Field/PROLIFIC_PID,M,18,2023-11-03_06h16.18.278,MouseEye_CC,2023.2.2,Win32,143.6781609,1.067224095,,,1920,1080,42.549,4,"242.43, 268.32, 271.17, 247.49, 262.15, 245.48, 332.36",722.01,7.426955576,29.70782231,27.83653633,Passed,99.52120472,,,,,,,,,,,,,,,,,,,,training,4,1,180,right,s,,,,,620.5145,621.3698,29.88227467,-6,7.5,1,0,0,0.8551,fixationPoint,621.3698,621.4669,621.4669,623.842,29.88227467,8537.792763,514.402014,s,1,2.364,,623.842,624.0432,,,,,,,,77,74,-116,167,117,76,113,124,219,-18,16,-71,116,-211,116,-118,-128,-121,-80,-165,-124,113,-25,223,-119,270,270,270,180,360,90,180,270,180,90,360,,,,,,,,,,,624.0432,624.0439,,0,48,48,48,1,11,novel,,,,,,,,,,,,,,,,,,,,,,,,,,,,,,,,,,,,,,,,,,,,,,,,,
,,8,5,${e://Field/PROLIFIC_PID,M,18,2023-11-03_06h16.18.278,MouseEye_CC,2023.2.2,Win32,143.6781609,1.067224095,,,1920,1080,42.549,4,"242.43, 268.32, 271.17, 247.49, 262.15, 245.48, 332.36",722.01,7.426955576,29.70782231,27.83653633,Passed,99.52120472,,,,,,,,,,,,,,,,,,,,training,4,2,0,left,a,,,,,624.0442,624.2724,29.88227467,-7,1.5,1,0,0,0.2282,fixationPoint,624.2724,624.3696,624.3696,625.6405,29.88227467,8537.792763,514.402014,a,1,1.2664,,625.6406,625.8419,,,,,,,,27,76,113,-211,116,-127,167,-68,211,-171,-72,-68,-24,-17,-28,161,-16,208,-68,118,-212,172,164,163,28,270,90,270,270,90,180,90,180,360,180,90,,,,,,,,,,,625.8419,625.842,,0,49,49,49,1,14,novel,,,,,,,,,,,,,,,,,,,,,,,,,,,,,,,,,,,,,,,,,,,,,,,,,
,,8,5,${e://Field/PROLIFIC_PID,M,18,2023-11-03_06h16.18.278,MouseEye_CC,2023.2.2,Win32,143.6781609,1.067224095,,,1920,1080,42.549,4,"242.43, 268.32, 271.17, 247.49, 262.15, 245.48, 332.36",722.01,7.426955576,29.70782231,27.83653633,Passed,99.52120472,,,,,,,,,,,,,,,,,,,,training,4,3,0,left,a,,,,,625.8422,625.9463,29.88227467,-7,0.5,1,0,0,0.1041,fixationPoint,625.9463,626.0433,626.0434,630.8002,29.88227467,8537.792763,514.402014,a,1,4.7495,,630.8004,631.0015,,,,,,,,50,210,32,-223,160,-114,26,-115,210,-168,-213,-171,-72,-71,-122,211,-30,23,-30,114,-64,25,218,123,24,270,180,270,360,90,180,180,180,360,360,90,,,,,,,,,,,631.0015,631.0016,,0,50,50,50,1,13,novel,,,,,,,,,,,,,,,,,,,,,,,,,,,,,,,,,,,,,,,,,,,,,,,,,
,,8,5,${e://Field/PROLIFIC_PID,M,18,2023-11-03_06h16.18.278,MouseEye_CC,2023.2.2,Win32,143.6781609,1.067224095,,,1920,1080,42.549,4,"242.43, 268.32, 271.17, 247.49, 262.15, 245.48, 332.36",722.01,7.426955576,29.70782231,27.83653633,Passed,99.52120472,,,,,,,,,,,,,,,,,,,,training,4,4,180,right,s,,,,,631.0019,631.2447,29.88227467,-3,-0.5,1,0,0,0.2426,fixationPoint,631.2447,631.3417,631.3418,632.9808,29.88227467,8537.792763,514.402014,s,1,1.6329,,632.9808,633.182,,,,,,,,3,-115,210,123,24,124,172,210,32,-17,-118,-71,-122,-68,-24,114,-64,167,-168,210,-210,-222,209,-28,211,360,90,360,180,90,90,180,270,270,270,360,,,,,,,,,,,633.182,633.1821,,0,51,51,51,1,4,repeated,,,,,,,,,,,,,,,,,,,,,,,,,,,,,,,,,,,,,,,,,,,,,,,,,
,,8,5,${e://Field/PROLIFIC_PID,M,18,2023-11-03_06h16.18.278,MouseEye_CC,2023.2.2,Win32,143.6781609,1.067224095,,,1920,1080,42.549,4,"242.43, 268.32, 271.17, 247.49, 262.15, 245.48, 332.36",722.01,7.426955576,29.70782231,27.83653633,Passed,99.52120472,,,,,,,,,,,,,,,,,,,,training,4,5,180,right,s,,,,,633.1824,633.4252,29.88227467,6,9.5,1,0,0,0.2426,fixationPoint,633.4252,633.5224,633.5224,635.828,29.88227467,8537.792763,514.402014,s,1,2.2989,,635.8281,636.0293,,,,,,,,68,114,-64,220,176,174,216,19,160,-171,16,-167,171,-176,72,-215,-115,-216,-75,-218,-212,116,-171,28,-168,360,180,90,360,180,90,270,270,360,180,180,,,,,,,,,,,636.0294,636.0295,,0,52,52,52,1,7,repeated,,,,,,,,,,,,,,,,,,,,,,,,,,,,,,,,,,,,,,,,,,,,,,,,,
,,8,5,${e://Field/PROLIFIC_PID,M,18,2023-11-03_06h16.18.278,MouseEye_CC,2023.2.2,Win32,143.6781609,1.067224095,,,1920,1080,42.549,4,"242.43, 268.32, 271.17, 247.49, 262.15, 245.48, 332.36",722.01,7.426955576,29.70782231,27.83653633,Passed,99.52120472,,,,,,,,,,,,,,,,,,,,training,4,6,0,left,a,,,,,636.0298,636.4043,29.88227467,16,-11.5,1,0,0,0.2286,fixationPoint,636.4043,636.5015,636.5015,637.5364,29.88227467,8537.792763,514.402014,a,1,1.0317,,637.5364,637.7376,,,,,,,,74,-71,-122,210,32,30,117,76,113,-211,116,-24,128,-80,173,116,-171,163,-122,212,-172,-218,-212,-215,-115,90,360,180,180,270,180,90,360,90,360,90,,,,,,,,,,,637.7376,637.7377,,0,53,53,53,1,6,repeated,,,,,,,,,,,,,,,,,,,,,,,,,,,,,,,,,,,,,,,,,,,,,,,,,
,,8,5,${e://Field/PROLIFIC_PID,M,18,2023-11-03_06h16.18.278,MouseEye_CC,2023.2.2,Win32,143.6781609,1.067224095,,,1920,1080,42.549,4,"242.43, 268.32, 271.17, 247.49, 262.15, 245.48, 332.36",722.01,7.426955576,29.70782231,27.83653633,Passed,99.52120472,,,,,,,,,,,,,,,,,,,,training,4,7,180,right,s,,,,,637.738,638.1126,29.88227467,2,1.5,1,0,0,0.3746,fixationPoint,638.1127,638.2097,638.2098,640.6822,29.88227467,8537.792763,514.402014,a,0,2.466,,640.6823,644.682,,,,,,,,5,-28,211,167,117,172,164,160,73,-216,-20,-171,-72,-31,-66,167,-168,210,-210,211,-30,-69,66,-166,209,90,180,90,270,270,270,90,360,180,270,360,,,,,,,,,,,644.682,644.6874,,0,54,54,54,1,16,novel,,,,,,,,,,,,,,,,,,,,,,,,,,,,,,,,,,,,,,,,,,,,,,,,,
,,8,5,${e://Field/PROLIFIC_PID,M,18,2023-11-03_06h16.18.278,MouseEye_CC,2023.2.2,Win32,143.6781609,1.067224095,,,1920,1080,42.549,4,"242.43, 268.32, 271.17, 247.49, 262.15, 245.48, 332.36",722.01,7.426955576,29.70782231,27.83653633,Passed,99.52120472,,,,,,,,,,,,,,,,,,,,training,4,8,180,right,s,,,,,644.6877,645.0362,29.88227467,-4,10.5,1,0,0,0.3484,fixationPoint,645.0362,645.1334,645.1335,649.1403,29.88227467,8537.792763,514.402014,s,1,3.9992,,649.1404,649.3416,,,,,,,,51,-216,-20,160,73,123,127,210,32,-176,72,-71,116,-68,211,208,-68,113,-25,118,-212,-67,-176,-16,-220,180,180,180,360,180,180,270,360,360,360,270,,,,,,,,,,,649.3416,649.3417,,0,55,55,55,1,5,repeated,,,,,,,,,,,,,,,,,,,,,,,,,,,,,,,,,,,,,,,,,,,,,,,,,
,,8,5,${e://Field/PROLIFIC_PID,M,18,2023-11-03_06h16.18.278,MouseEye_CC,2023.2.2,Win32,143.6781609,1.067224095,,,1920,1080,42.549,4,"242.43, 268.32, 271.17, 247.49, 262.15, 245.48, 332.36",722.01,7.426955576,29.70782231,27.83653633,Passed,99.52120472,,,,,,,,,,,,,,,,,,,,training,4,9,180,right,s,,,,,649.342,649.5986,29.88227467,1,3.5,1,0,0,0.2566,fixationPoint,649.5986,649.6958,649.6958,651.4319,29.88227467,8537.792763,514.402014,s,1,1.7293,,651.432,651.6332,,,,,,,,33,-112,66,30,117,167,117,220,176,-224,-167,-74,-66,-68,-24,167,-168,210,-210,168,-77,-71,116,-166,209,180,180,90,270,360,90,90,360,360,360,180,,,,,,,,,,,651.6333,651.6334,,0,56,56,56,1,15,novel,,,,,,,,,,,,,,,,,,,,,,,,,,,,,,,,,,,,,,,,,,,,,,,,,
,,8,5,${e://Field/PROLIFIC_PID,M,18,2023-11-03_06h16.18.278,MouseEye_CC,2023.2.2,Win32,143.6781609,1.067224095,,,1920,1080,42.549,4,"242.43, 268.32, 271.17, 247.49, 262.15, 245.48, 332.36",722.01,7.426955576,29.70782231,27.83653633,Passed,99.52120472,,,,,,,,,,,,,,,,,,,,training,4,10,0,left,a,,,,,651.6337,651.8486,29.88227467,1,3.5,1,0,0,0.2149,fixationPoint,651.8486,651.9457,651.9457,653.7931,29.88227467,8537.792763,514.402014,a,1,1.8428,,653.7931,653.9944,,,,,,,,96,24,-210,76,113,30,117,163,28,-68,211,-114,26,-171,16,-165,-124,-124,-25,-74,-66,212,-172,23,-30,180,270,360,90,90,180,360,360,90,270,180,,,,,,,,,,,653.9944,653.9945,,0,57,57,57,1,8,repeated,,,,,,,,,,,,,,,,,,,,,,,,,,,,,,,,,,,,,,,,,,,,,,,,,
,,8,5,${e://Field/PROLIFIC_PID,M,18,2023-11-03_06h16.18.278,MouseEye_CC,2023.2.2,Win32,143.6781609,1.067224095,,,1920,1080,42.549,4,"242.43, 268.32, 271.17, 247.49, 262.15, 245.48, 332.36",722.01,7.426955576,29.70782231,27.83653633,Passed,99.52120472,,,,,,,,,,,,,,,,,,,,training,4,11,180,right,s,,,,,653.9947,654.1333,29.88227467,1,3.5,1,0,0,0.1385,fixationPoint,654.1333,654.2305,654.2305,655.2028,29.88227467,8537.792763,514.402014,s,1,0.9682,,655.2028,655.4041,,,,,,,,98,118,-212,172,164,80,73,210,32,-114,26,-28,211,-68,211,-28,-171,-17,-28,-168,-213,66,-26,127,-113,180,270,90,90,360,360,90,360,270,180,180,,,,,,,,,,,655.4042,655.4043,,0,58,58,58,1,12,novel,,,,,,,,,,,,,,,,,,,,,,,,,,,,,,,,,,,,,,,,,,,,,,,,,
,,8,5,${e://Field/PROLIFIC_PID,M,18,2023-11-03_06h16.18.278,MouseEye_CC,2023.2.2,Win32,143.6781609,1.067224095,,,1920,1080,42.549,4,"242.43, 268.32, 271.17, 247.49, 262.15, 245.48, 332.36",722.01,7.426955576,29.70782231,27.83653633,Passed,99.52120472,,,,,,,,,,,,,,,,,,,,training,4,12,0,left,a,,,,,655.4045,655.4458,29.88227467,1,3.5,1,0,0,0.0412,fixationPoint,655.4458,655.543,655.543,658.4528,29.88227467,8537.792763,514.402014,s,0,2.9056,,658.4528,662.4527,,,,,,,,84,-67,-176,19,160,210,32,160,73,-26,175,-112,66,-216,68,21,-124,212,-172,208,-68,-168,-213,-121,-80,180,180,270,180,360,180,360,90,180,270,90,,,,,,,,,,,662.4528,662.4581,,0,59,59,59,1,10,novel,,,,,,,,,,,,,,,,,,,,,,,,,,,,,,,,,,,,,,,,,,,,,,,,,
,,8,5,${e://Field/PROLIFIC_PID,M,18,2023-11-03_06h16.18.278,MouseEye_CC,2023.2.2,Win32,143.6781609,1.067224095,,,1920,1080,42.549,4,"242.43, 268.32, 271.17, 247.49, 262.15, 245.48, 332.36",722.01,7.426955576,29.70782231,27.83653633,Passed,99.52120472,,,,,,,,,,,,,,,,,,,,training,4,13,0,left,a,,,,,662.4584,663.1471,29.88227467,4,1.5,1,0,0,0.6886,fixationPoint,663.1471,663.2443,663.2444,666.8624,29.88227467,8537.792763,514.402014,a,1,3.6124,,666.8624,667.0637,,,,,,,,40,213,65,-71,116,-18,16,-213,22,-28,-171,-16,-220,-165,-124,72,-67,74,-116,223,-119,123,127,26,16,360,270,180,90,360,270,360,360,270,360,90,,,,,,,,,,,667.0637,667.0638,,0,60,60,60,1,1,repeated,,,,,,,,,,,,,,,,,,,,,,,,,,,,,,,,,,,,,,,,,,,,,,,,,
,,8,5,${e://Field/PROLIFIC_PID,M,18,2023-11-03_06h16.18.278,MouseEye_CC,2023.2.2,Win32,143.6781609,1.067224095,,,1920,1080,42.549,4,"242.43, 268.32, 271.17, 247.49, 262.15, 245.48, 332.36",722.01,7.426955576,29.70782231,27.83653633,Passed,99.52120472,,,,,,,,,,,,,,,,,,,,training,4,14,0,left,a,,,,,667.064,667.1471,29.88227467,0,-1.5,1,0,0,0.0829,fixationPoint,667.1471,667.2443,667.2444,669.5776,29.88227467,8537.792763,514.402014,a,1,2.3312,,669.5776,669.779,,,,,,,,17,64,160,-24,128,-167,171,-114,26,-74,-66,-216,-75,-224,-167,66,-26,28,-168,24,-210,64,219,25,218,90,90,360,270,360,270,90,360,270,90,180,,,,,,,,,,,669.779,669.7791,,0,61,61,61,1,2,repeated,,,,,,,,,,,,,,,,,,,,,,,,,,,,,,,,,,,,,,,,,,,,,,,,,
,,8,5,${e://Field/PROLIFIC_PID,M,18,2023-11-03_06h16.18.278,MouseEye_CC,2023.2.2,Win32,143.6781609,1.067224095,,,1920,1080,42.549,4,"242.43, 268.32, 271.17, 247.49, 262.15, 245.48, 332.36",722.01,7.426955576,29.70782231,27.83653633,Passed,99.52120472,,,,,,,,,,,,,,,,,,,,training,4,15,180,right,s,,,,,669.7794,669.9874,29.88227467,0,-3.5,1,0,0,0.2079,fixationPoint,669.9874,670.0845,670.0845,672.0637,29.88227467,8537.792763,514.402014,a,0,1.9726,,672.0638,676.0636,,,,,,,,61,-216,-75,123,127,167,117,172,164,-120,122,-223,160,-213,22,114,-64,66,-26,113,-25,-121,-80,-74,-66,90,270,360,90,360,90,90,270,360,360,180,,,,,,,,,,,676.0637,676.069,,0,62,62,62,1,9,novel,,,,,,,,,,,,,,,,,,,,,,,,,,,,,,,,,,,,,,,,,,,,,,,,,
,,8,5,${e://Field/PROLIFIC_PID,M,18,2023-11-03_06h16.18.278,MouseEye_CC,2023.2.2,Win32,143.6781609,1.067224095,,,1920,1080,42.549,4,"242.43, 268.32, 271.17, 247.49, 262.15, 245.48, 332.36",722.01,7.426955576,29.70782231,27.83653633,Passed,99.52120472,,,,,,,,,,,,,,,,,,,,training,4,16,0,left,a,,,,,676.0693,676.4387,29.88227467,-4,0.5,1,0,0,0.3694,fixationPoint,676.4387,676.5358,676.5359,679.8206,29.88227467,8537.792763,514.402014,s,0,3.2783,,679.8207,683.8205,,,,,,,,24,-71,116,64,219,163,28,160,73,-17,-28,-124,-161,-215,-115,74,-116,208,-68,164,-213,-28,211,-114,26,270,180,360,90,270,270,360,90,360,270,360,,,,,,,,,,,683.8205,688.0914,space,0,63,63,63,1,3,repeated,4.2552,,,,,,,,,,,,,,,,,,,,,,,,,,,,,,,,,,,,,,,,,,,,,,,,
,,8,5,${e://Field/PROLIFIC_PID,M,18,2023-11-03_06h16.18.278,MouseEye_CC,2023.2.2,Win32,143.6781609,1.067224095,,,1920,1080,42.549,4,"242.43, 268.32, 271.17, 247.49, 262.15, 245.48, 332.36",722.01,7.426955576,29.70782231,27.83653633,Passed,99.52120472,,,,,,,,,,,,,,,,,,,,training,5,1,180,right,s,,,,,688.0971,688.6746,29.88227467,3,5.5,1,0,0,0.5774,fixationPoint,688.6747,688.7719,688.7719,691.2441,29.88227467,8537.792763,514.402014,s,1,2.47,,691.2441,691.4456,,,,,,,,17,64,160,-24,128,-167,171,-114,26,-74,-66,-216,-75,-224,-167,66,-26,28,-168,24,-210,64,219,25,218,90,360,90,90,180,270,270,360,180,360,360,,,,,,,,,,,691.4457,691.4465,,0,64,64,64,1,2,repeated,,,,,,,,,,,,,,,,,,,,,,,,,,,,,,,,,,,,,,,,,,,,,,,,,
,,8,5,${e://Field/PROLIFIC_PID,M,18,2023-11-03_06h16.18.278,MouseEye_CC,2023.2.2,Win32,143.6781609,1.067224095,,,1920,1080,42.549,4,"242.43, 268.32, 271.17, 247.49, 262.15, 245.48, 332.36",722.01,7.426955576,29.70782231,27.83653633,Passed,99.52120472,,,,,,,,,,,,,,,,,,,,training,5,2,180,right,s,,,,,691.4466,691.7789,29.88227467,0,8.5,1,0,0,0.3323,fixationPoint,691.7789,691.8761,691.8761,694.0428,29.88227467,8537.792763,514.402014,s,1,2.1599,,694.0428,694.244,,,,,,,,33,-112,66,174,216,19,160,160,73,-74,-66,-171,-72,-215,-115,167,-168,208,-68,114,-64,-115,210,-223,160,360,360,90,90,360,360,270,270,90,270,360,,,,,,,,,,,694.244,694.2442,,0,65,65,65,1,15,novel,,,,,,,,,,,,,,,,,,,,,,,,,,,,,,,,,,,,,,,,,,,,,,,,,
,,8,5,${e://Field/PROLIFIC_PID,M,18,2023-11-03_06h16.18.278,MouseEye_CC,2023.2.2,Win32,143.6781609,1.067224095,,,1920,1080,42.549,4,"242.43, 268.32, 271.17, 247.49, 262.15, 245.48, 332.36",722.01,7.426955576,29.70782231,27.83653633,Passed,99.52120472,,,,,,,,,,,,,,,,,,,,training,5,3,180,right,s,,,,,694.2444,695.244,29.88227467,0,-18.5,1,0,0,0.2079,fixationPoint,695.244,695.3412,695.3413,697.39,29.88227467,8537.792763,514.402014,s,1,2.0422,,697.3901,697.5914,,,,,,,,61,-216,-75,16,78,19,160,25,218,-69,66,-216,68,-80,173,116,-171,28,-168,164,-213,-71,-122,-124,-161,90,270,270,270,360,180,270,360,360,270,90,,,,,,,,,,,697.5914,697.5915,,0,66,66,66,1,9,novel,,,,,,,,,,,,,,,,,,,,,,,,,,,,,,,,,,,,,,,,,,,,,,,,,
,,8,5,${e://Field/PROLIFIC_PID,M,18,2023-11-03_06h16.18.278,MouseEye_CC,2023.2.2,Win32,143.6781609,1.067224095,,,1920,1080,42.549,4,"242.43, 268.32, 271.17, 247.49, 262.15, 245.48, 332.36",722.01,7.426955576,29.70782231,27.83653633,Passed,99.52120472,,,,,,,,,,,,,,,,,,,,training,5,4,180,right,s,,,,,697.5918,697.8482,29.88227467,-5,2.5,1,0,0,0.2562,fixationPoint,697.8482,697.9454,697.9454,699.5497,29.88227467,8537.792763,514.402014,s,1,1.6014,,699.5497,699.7511,,,,,,,,96,24,-210,76,113,30,117,163,28,-68,211,-114,26,-171,16,-165,-124,-124,-25,-74,-66,212,-172,23,-30,360,90,180,90,360,90,360,360,360,360,90,,,,,,,,,,,699.7511,699.7512,,0,67,67,67,1,8,repeated,,,,,,,,,,,,,,,,,,,,,,,,,,,,,,,,,,,,,,,,,,,,,,,,,
,,8,5,${e://Field/PROLIFIC_PID,M,18,2023-11-03_06h16.18.278,MouseEye_CC,2023.2.2,Win32,143.6781609,1.067224095,,,1920,1080,42.549,4,"242.43, 268.32, 271.17, 247.49, 262.15, 245.48, 332.36",722.01,7.426955576,29.70782231,27.83653633,Passed,99.52120472,,,,,,,,,,,,,,,,,,,,training,5,5,180,right,s,,,,,699.7514,699.9732,29.88227467,6,-2.5,1,0,0,0.2216,fixationPoint,699.9732,700.0704,700.0704,702.2997,29.88227467,8537.792763,514.402014,s,1,2.2237,,702.2997,702.5009,,,,,,,,40,213,65,-71,116,-18,16,-213,22,-28,-171,-16,-220,-165,-124,72,-67,74,-116,223,-119,123,127,26,16,90,90,90,180,180,270,360,90,90,360,270,,,,,,,,,,,702.5009,702.5011,,0,68,68,68,1,1,repeated,,,,,,,,,,,,,,,,,,,,,,,,,,,,,,,,,,,,,,,,,,,,,,,,,
,,8,5,${e://Field/PROLIFIC_PID,M,18,2023-11-03_06h16.18.278,MouseEye_CC,2023.2.2,Win32,143.6781609,1.067224095,,,1920,1080,42.549,4,"242.43, 268.32, 271.17, 247.49, 262.15, 245.48, 332.36",722.01,7.426955576,29.70782231,27.83653633,Passed,99.52120472,,,,,,,,,,,,,,,,,,,,training,5,6,0,left,a,,,,,702.5013,702.7093,29.88227467,3,11.5,1,0,0,0.2079,fixationPoint,702.7093,702.8065,702.8065,708.7509,29.88227467,8537.792763,514.402014,a,1,5.9412,,708.751,708.9523,,,,,,,,84,-67,-176,123,127,163,28,122,64,-71,116,-223,160,-171,16,118,-212,164,-213,74,-116,-124,-161,-16,-220,90,180,270,90,180,360,270,180,90,90,360,,,,,,,,,,,708.9523,708.9524,,0,69,69,69,1,10,novel,,,,,,,,,,,,,,,,,,,,,,,,,,,,,,,,,,,,,,,,,,,,,,,,,
,,8,5,${e://Field/PROLIFIC_PID,M,18,2023-11-03_06h16.18.278,MouseEye_CC,2023.2.2,Win32,143.6781609,1.067224095,,,1920,1080,42.549,4,"242.43, 268.32, 271.17, 247.49, 262.15, 245.48, 332.36",722.01,7.426955576,29.70782231,27.83653633,Passed,99.52120472,,,,,,,,,,,,,,,,,,,,training,5,7,0,left,a,,,,,708.9527,709.3203,29.88227467,13,-5.5,1,0,0,0.3675,fixationPoint,709.3204,709.4175,709.4176,711.994,29.88227467,8537.792763,514.402014,a,1,2.5699,,711.9941,712.1952,,,,,,,,74,-71,-122,210,32,30,117,76,113,-211,116,-24,128,-80,173,116,-171,163,-122,212,-172,-218,-212,-215,-115,360,360,360,360,90,90,360,270,360,270,180,,,,,,,,,,,712.1952,712.1954,,0,70,70,70,1,6,repeated,,,,,,,,,,,,,,,,,,,,,,,,,,,,,,,,,,,,,,,,,,,,,,,,,
,,8,5,${e://Field/PROLIFIC_PID,M,18,2023-11-03_06h16.18.278,MouseEye_CC,2023.2.2,Win32,143.6781609,1.067224095,,,1920,1080,42.549,4,"242.43, 268.32, 271.17, 247.49, 262.15, 245.48, 332.36",722.01,7.426955576,29.70782231,27.83653633,Passed,99.52120472,,,,,,,,,,,,,,,,,,,,training,5,8,0,left,a,,,,,712.1956,712.3967,29.88227467,-6,-5.5,1,0,0,0.2011,fixationPoint,712.3967,712.4938,712.4939,713.8205,29.88227467,8537.792763,514.402014,a,1,1.32,,713.8206,714.0218,,,,,,,,50,210,32,-166,209,-26,175,-80,173,-224,-167,-16,-220,-67,-176,127,-113,167,-168,28,-168,174,216,123,24,90,360,180,270,270,270,360,360,180,270,270,,,,,,,,,,,714.0218,714.0218,,0,71,71,71,1,13,novel,,,,,,,,,,,,,,,,,,,,,,,,,,,,,,,,,,,,,,,,,,,,,,,,,
,,8,5,${e://Field/PROLIFIC_PID,M,18,2023-11-03_06h16.18.278,MouseEye_CC,2023.2.2,Win32,143.6781609,1.067224095,,,1920,1080,42.549,4,"242.43, 268.32, 271.17, 247.49, 262.15, 245.48, 332.36",722.01,7.426955576,29.70782231,27.83653633,Passed,99.52120472,,,,,,,,,,,,,,,,,,,,training,5,9,0,left,a,,,,,714.0221,714.2022,29.88227467,-4,3.5,1,0,0,0.1801,fixationPoint,714.2022,714.2994,714.2994,717.2787,29.88227467,8537.792763,514.402014,a,1,2.9762,,717.2787,717.4801,,,,,,,,98,118,-212,213,65,123,24,64,219,-114,26,-80,173,-112,66,-168,-213,-113,-212,-124,-25,212,-172,116,-171,270,360,270,180,180,360,180,270,90,90,270,,,,,,,,,,,717.4802,717.4803,,0,72,72,72,1,12,novel,,,,,,,,,,,,,,,,,,,,,,,,,,,,,,,,,,,,,,,,,,,,,,,,,
,,8,5,${e://Field/PROLIFIC_PID,M,18,2023-11-03_06h16.18.278,MouseEye_CC,2023.2.2,Win32,143.6781609,1.067224095,,,1920,1080,42.549,4,"242.43, 268.32, 271.17, 247.49, 262.15, 245.48, 332.36",722.01,7.426955576,29.70782231,27.83653633,Passed,99.52120472,,,,,,,,,,,,,,,,,,,,training,5,10,180,right,s,,,,,717.4806,717.8898,29.88227467,22,4.5,1,0,0,0.2217,fixationPoint,717.8898,717.987,717.987,719.2649,29.88227467,8537.792763,514.402014,s,1,1.2715,,719.2649,719.4662,,,,,,,,77,74,-116,123,24,64,219,122,64,-71,116,-222,209,-171,16,-165,-124,-71,-122,-28,-171,223,-119,21,-124,180,90,270,180,90,180,90,360,360,90,180,,,,,,,,,,,719.4663,719.4664,,0,73,73,73,1,11,novel,,,,,,,,,,,,,,,,,,,,,,,,,,,,,,,,,,,,,,,,,,,,,,,,,
,,8,5,${e://Field/PROLIFIC_PID,M,18,2023-11-03_06h16.18.278,MouseEye_CC,2023.2.2,Win32,143.6781609,1.067224095,,,1920,1080,42.549,4,"242.43, 268.32, 271.17, 247.49, 262.15, 245.48, 332.36",722.01,7.426955576,29.70782231,27.83653633,Passed,99.52120472,,,,,,,,,,,,,,,,,,,,training,5,11,180,right,s,,,,,719.4666,719.6674,29.88227467,-3,4.5,1,0,0,0.2008,fixationPoint,719.6675,719.7646,719.7647,721.1953,29.88227467,8537.792763,514.402014,s,1,1.424,,721.1953,721.3968,,,,,,,,5,-28,211,213,124,30,117,220,176,-71,-122,-17,-118,-224,-167,127,-113,21,-124,32,-79,-167,171,-166,209,270,360,360,90,180,180,270,90,360,180,90,,,,,,,,,,,721.3969,721.3969,,0,74,74,74,1,16,novel,,,,,,,,,,,,,,,,,,,,,,,,,,,,,,,,,,,,,,,,,,,,,,,,,
,,8,5,${e://Field/PROLIFIC_PID,M,18,2023-11-03_06h16.18.278,MouseEye_CC,2023.2.2,Win32,143.6781609,1.067224095,,,1920,1080,42.549,4,"242.43, 268.32, 271.17, 247.49, 262.15, 245.48, 332.36",722.01,7.426955576,29.70782231,27.83653633,Passed,99.52120472,,,,,,,,,,,,,,,,,,,,training,5,12,0,left,a,,,,,721.3972,721.6535,29.88227467,-14,1.5,1,0,0,0.2563,fixationPoint,721.6536,721.7508,721.7508,724.4731,29.88227467,8537.792763,514.402014,a,1,2.7165,,724.4731,724.6745,,,,,,,,24,-71,116,64,219,163,28,160,73,-17,-28,-124,-161,-215,-115,74,-116,208,-68,164,-213,-28,211,-114,26,270,90,180,270,270,270,90,270,270,270,90,,,,,,,,,,,724.6745,724.6746,,0,75,75,75,1,3,repeated,,,,,,,,,,,,,,,,,,,,,,,,,,,,,,,,,,,,,,,,,,,,,,,,,
,,8,5,${e://Field/PROLIFIC_PID,M,18,2023-11-03_06h16.18.278,MouseEye_CC,2023.2.2,Win32,143.6781609,1.067224095,,,1920,1080,42.549,4,"242.43, 268.32, 271.17, 247.49, 262.15, 245.48, 332.36",722.01,7.426955576,29.70782231,27.83653633,Passed,99.52120472,,,,,,,,,,,,,,,,,,,,training,5,13,0,left,a,,,,,724.6748,725.0494,29.88227467,2,3.5,1,0,0,0.3746,fixationPoint,725.0494,725.1465,725.1465,726.0494,29.88227467,8537.792763,514.402014,a,1,0.8962,,726.0496,726.2508,,,,,,,,68,114,-64,220,176,174,216,19,160,-171,16,-167,171,-176,72,-215,-115,-216,-75,-218,-212,116,-171,28,-168,90,90,180,90,90,270,180,180,270,270,90,,,,,,,,,,,726.2509,726.2509,,0,76,76,76,1,7,repeated,,,,,,,,,,,,,,,,,,,,,,,,,,,,,,,,,,,,,,,,,,,,,,,,,
,,8,5,${e://Field/PROLIFIC_PID,M,18,2023-11-03_06h16.18.278,MouseEye_CC,2023.2.2,Win32,143.6781609,1.067224095,,,1920,1080,42.549,4,"242.43, 268.32, 271.17, 247.49, 262.15, 245.48, 332.36",722.01,7.426955576,29.70782231,27.83653633,Passed,99.52120472,,,,,,,,,,,,,,,,,,,,training,5,14,0,left,a,,,,,726.2516,726.5007,29.88227467,2,-3.5,1,0,0,0.2491,fixationPoint,726.5008,726.5979,726.598,728.4731,29.88227467,8537.792763,514.402014,a,1,1.8727,,728.4731,728.6743,,,,,,,,3,-115,210,123,24,124,172,210,32,-17,-118,-71,-122,-68,-24,114,-64,167,-168,210,-210,-222,209,-28,211,180,360,180,270,270,180,270,360,270,360,360,,,,,,,,,,,728.6743,728.6744,,0,77,77,77,1,4,repeated,,,,,,,,,,,,,,,,,,,,,,,,,,,,,,,,,,,,,,,,,,,,,,,,,
,,8,5,${e://Field/PROLIFIC_PID,M,18,2023-11-03_06h16.18.278,MouseEye_CC,2023.2.2,Win32,143.6781609,1.067224095,,,1920,1080,42.549,4,"242.43, 268.32, 271.17, 247.49, 262.15, 245.48, 332.36",722.01,7.426955576,29.70782231,27.83653633,Passed,99.52120472,,,,,,,,,,,,,,,,,,,,training,5,15,180,right,s,,,,,728.6747,729.3202,29.88227467,-9,21.5,1,0,0,0.2288,fixationPoint,729.3202,729.4174,729.4174,730.2369,29.88227467,8537.792763,514.402014,s,1,0.8174,,730.2369,730.4383,,,,,,,,27,76,113,-171,16,-114,26,-211,116,-176,-169,-68,-24,-216,-75,23,-30,161,-16,21,-124,163,28,124,172,360,180,90,270,270,270,90,180,270,270,180,,,,,,,,,,,730.4383,730.4385,,0,78,78,78,1,14,novel,,,,,,,,,,,,,,,,,,,,,,,,,,,,,,,,,,,,,,,,,,,,,,,,,
,,8,5,${e://Field/PROLIFIC_PID,M,18,2023-11-03_06h16.18.278,MouseEye_CC,2023.2.2,Win32,143.6781609,1.067224095,,,1920,1080,42.549,4,"242.43, 268.32, 271.17, 247.49, 262.15, 245.48, 332.36",722.01,7.426955576,29.70782231,27.83653633,Passed,99.52120472,,,,,,,,,,,,,,,,,,,,training,5,16,0,left,a,,,,,730.4387,730.6396,29.88227467,-11,-9.5,1,0,0,0.2007,fixationPoint,730.6397,730.7369,730.737,736.6121,29.88227467,8537.792763,514.402014,a,1,5.8736,,736.6121,736.8131,,,,,,,,51,-216,-20,160,73,123,127,210,32,-176,72,-71,116,-68,211,208,-68,113,-25,118,-212,-67,-176,-16,-220,180,360,360,360,270,180,270,270,180,360,180,,,,,,,,,,,736.8131,738.9104,space,0,79,79,79,1,5,repeated,2.0877,,,,,,,,,,,,,,,,,,,,,,,,,,,,,,,,,,,,,,,,,,,,,,,,
,,8,5,${e://Field/PROLIFIC_PID,M,18,2023-11-03_06h16.18.278,MouseEye_CC,2023.2.2,Win32,143.6781609,1.067224095,,,1920,1080,42.549,4,"242.43, 268.32, 271.17, 247.49, 262.15, 245.48, 332.36",722.01,7.426955576,29.70782231,27.83653633,Passed,99.52120472,,,,,,,,,,,,,,,,,,,,training,6,1,0,left,a,,,,,738.9107,739.9382,29.88227467,9,14.5,1,0,0,1.0275,fixationPoint,739.9382,740.0355,740.0355,741.7229,29.88227467,8537.792763,514.402014,s,0,1.6808,,741.7229,745.7228,,,,,,,,61,-216,-75,172,164,64,219,124,219,-28,71,-171,16,-69,66,127,-113,74,-116,66,-26,-124,-25,-218,-212,270,90,180,360,180,180,90,270,270,360,270,,,,,,,,,,,745.7228,745.7288,,0,80,80,80,1,9,novel,,,,,,,,,,,,,,,,,,,,,,,,,,,,,,,,,,,,,,,,,,,,,,,,,
,,8,5,${e://Field/PROLIFIC_PID,M,18,2023-11-03_06h16.18.278,MouseEye_CC,2023.2.2,Win32,143.6781609,1.067224095,,,1920,1080,42.549,4,"242.43, 268.32, 271.17, 247.49, 262.15, 245.48, 332.36",722.01,7.426955576,29.70782231,27.83653633,Passed,99.52120472,,,,,,,,,,,,,,,,,,,,training,6,2,180,right,s,,,,,745.729,746.6119,29.88227467,-7,9.5,1,0,0,0.8828,fixationPoint,746.6119,746.7089,746.709,748.6325,29.88227467,8537.792763,514.402014,s,1,1.9177,,748.6325,748.834,,,,,,,,33,-112,66,220,176,163,28,214,212,-218,-212,-77,-216,-31,-66,66,-26,211,-30,28,-168,-222,209,-166,209,360,90,180,270,270,270,180,90,360,360,270,,,,,,,,,,,748.834,748.8341,,0,81,81,81,1,15,novel,,,,,,,,,,,,,,,,,,,,,,,,,,,,,,,,,,,,,,,,,,,,,,,,,
,,8,5,${e://Field/PROLIFIC_PID,M,18,2023-11-03_06h16.18.278,MouseEye_CC,2023.2.2,Win32,143.6781609,1.067224095,,,1920,1080,42.549,4,"242.43, 268.32, 271.17, 247.49, 262.15, 245.48, 332.36",722.01,7.426955576,29.70782231,27.83653633,Passed,99.52120472,,,,,,,,,,,,,,,,,,,,training,6,3,0,left,a,,,,,748.8344,749.063,29.88227467,-9,3.5,1,0,0,0.2286,fixationPoint,749.063,749.1603,749.1603,752.3481,29.88227467,8537.792763,514.402014,a,1,3.1813,,752.3481,752.5493,,,,,,,,98,118,-212,214,212,64,160,76,113,-222,209,-28,71,-216,68,-124,-25,-176,-169,-118,-128,113,-25,74,-116,270,270,360,270,90,360,270,360,180,180,90,,,,,,,,,,,752.5493,752.5494,,0,82,82,82,1,12,novel,,,,,,,,,,,,,,,,,,,,,,,,,,,,,,,,,,,,,,,,,,,,,,,,,
,,8,5,${e://Field/PROLIFIC_PID,M,18,2023-11-03_06h16.18.278,MouseEye_CC,2023.2.2,Win32,143.6781609,1.067224095,,,1920,1080,42.549,4,"242.43, 268.32, 271.17, 247.49, 262.15, 245.48, 332.36",722.01,7.426955576,29.70782231,27.83653633,Passed,99.52120472,,,,,,,,,,,,,,,,,,,,training,6,4,0,left,a,,,,,752.5498,752.8549,29.88227467,-3,-13.5,1,0,0,0.305,fixationPoint,752.8549,752.9523,752.9524,754.3966,29.88227467,8537.792763,514.402014,a,1,1.4374,,754.3966,754.5977,,,,,,,,77,74,-116,172,164,25,218,174,216,-28,211,-222,209,-166,209,-28,-171,-218,-212,-216,-75,113,-25,116,-171,360,360,360,90,90,180,270,180,270,360,180,,,,,,,,,,,754.5977,754.5978,,0,83,83,83,1,11,novel,,,,,,,,,,,,,,,,,,,,,,,,,,,,,,,,,,,,,,,,,,,,,,,,,
,,8,5,${e://Field/PROLIFIC_PID,M,18,2023-11-03_06h16.18.278,MouseEye_CC,2023.2.2,Win32,143.6781609,1.067224095,,,1920,1080,42.549,4,"242.43, 268.32, 271.17, 247.49, 262.15, 245.48, 332.36",722.01,7.426955576,29.70782231,27.83653633,Passed,99.52120472,,,,,,,,,,,,,,,,,,,,training,6,5,0,left,a,,,,,754.5981,754.8268,29.88227467,2,-1.5,1,0,0,0.2287,fixationPoint,754.8269,754.9241,754.9242,757.3686,29.88227467,8537.792763,514.402014,a,1,2.4378,,757.3686,757.57,,,,,,,,17,64,160,-24,128,-167,171,-114,26,-74,-66,-216,-75,-224,-167,66,-26,28,-168,24,-210,64,219,25,218,270,360,360,180,180,270,360,270,360,270,90,,,,,,,,,,,757.57,757.5702,,0,84,84,84,1,2,repeated,,,,,,,,,,,,,,,,,,,,,,,,,,,,,,,,,,,,,,,,,,,,,,,,,
,,8,5,${e://Field/PROLIFIC_PID,M,18,2023-11-03_06h16.18.278,MouseEye_CC,2023.2.2,Win32,143.6781609,1.067224095,,,1920,1080,42.549,4,"242.43, 268.32, 271.17, 247.49, 262.15, 245.48, 332.36",722.01,7.426955576,29.70782231,27.83653633,Passed,99.52120472,,,,,,,,,,,,,,,,,,,,training,6,6,180,right,s,,,,,757.5704,757.8478,29.88227467,-2,-3.5,1,0,0,0.2773,fixationPoint,757.8478,757.945,757.945,760.9033,29.88227467,8537.792763,514.402014,s,1,2.9566,,760.9033,761.1046,,,,,,,,50,210,32,-167,171,-80,173,-69,66,-165,-124,-113,-212,-124,-25,118,-212,163,-122,72,-67,123,127,213,124,270,360,180,270,90,270,270,270,360,270,180,,,,,,,,,,,761.1046,761.1047,,0,85,85,85,1,13,novel,,,,,,,,,,,,,,,,,,,,,,,,,,,,,,,,,,,,,,,,,,,,,,,,,
,,8,5,${e://Field/PROLIFIC_PID,M,18,2023-11-03_06h16.18.278,MouseEye_CC,2023.2.2,Win32,143.6781609,1.067224095,,,1920,1080,42.549,4,"242.43, 268.32, 271.17, 247.49, 262.15, 245.48, 332.36",722.01,7.426955576,29.70782231,27.83653633,Passed,99.52120472,,,,,,,,,,,,,,,,,,,,training,6,7,0,left,a,,,,,761.105,761.3199,29.88227467,6,5.5,1,0,0,0.2148,fixationPoint,761.3199,761.4171,761.4171,764.0563,29.88227467,8537.792763,514.402014,a,1,2.6376,,764.0563,764.2573,,,,,,,,51,-216,-20,160,73,123,127,210,32,-176,72,-71,116,-68,211,208,-68,113,-25,118,-212,-67,-176,-16,-220,270,180,270,180,180,180,90,360,270,180,90,,,,,,,,,,,764.2573,764.2574,,0,86,86,86,1,5,repeated,,,,,,,,,,,,,,,,,,,,,,,,,,,,,,,,,,,,,,,,,,,,,,,,,
,,8,5,${e://Field/PROLIFIC_PID,M,18,2023-11-03_06h16.18.278,MouseEye_CC,2023.2.2,Win32,143.6781609,1.067224095,,,1920,1080,42.549,4,"242.43, 268.32, 271.17, 247.49, 262.15, 245.48, 332.36",722.01,7.426955576,29.70782231,27.83653633,Passed,99.52120472,,,,,,,,,,,,,,,,,,,,training,6,8,180,right,s,,,,,764.2577,764.4796,29.88227467,13,5.5,1,0,0,0.2218,fixationPoint,764.4796,764.5768,764.5769,766.4587,29.88227467,8537.792763,514.402014,s,1,1.8768,,766.4588,766.6601,,,,,,,,96,24,-210,76,113,30,117,163,28,-68,211,-114,26,-171,16,-165,-124,-124,-25,-74,-66,212,-172,23,-30,270,270,270,90,90,360,180,360,90,180,360,,,,,,,,,,,766.6601,766.6603,,0,87,87,87,1,8,repeated,,,,,,,,,,,,,,,,,,,,,,,,,,,,,,,,,,,,,,,,,,,,,,,,,
,,8,5,${e://Field/PROLIFIC_PID,M,18,2023-11-03_06h16.18.278,MouseEye_CC,2023.2.2,Win32,143.6781609,1.067224095,,,1920,1080,42.549,4,"242.43, 268.32, 271.17, 247.49, 262.15, 245.48, 332.36",722.01,7.426955576,29.70782231,27.83653633,Passed,99.52120472,,,,,,,,,,,,,,,,,,,,training,6,9,180,right,s,,,,,766.6604,766.806,29.88227467,4,2.5,1,0,0,0.1454,fixationPoint,766.806,766.9032,766.9032,769.1879,29.88227467,8537.792763,514.402014,s,1,2.2805,,769.1879,769.3892,,,,,,,,74,-71,-122,210,32,30,117,76,113,-211,116,-24,128,-80,173,116,-171,163,-122,212,-172,-218,-212,-215,-115,180,270,360,270,270,360,180,180,180,360,90,,,,,,,,,,,769.3893,769.3893,,0,88,88,88,1,6,repeated,,,,,,,,,,,,,,,,,,,,,,,,,,,,,,,,,,,,,,,,,,,,,,,,,
,,8,5,${e://Field/PROLIFIC_PID,M,18,2023-11-03_06h16.18.278,MouseEye_CC,2023.2.2,Win32,143.6781609,1.067224095,,,1920,1080,42.549,4,"242.43, 268.32, 271.17, 247.49, 262.15, 245.48, 332.36",722.01,7.426955576,29.70782231,27.83653633,Passed,99.52120472,,,,,,,,,,,,,,,,,,,,training,6,10,0,left,a,,,,,769.3897,769.4309,29.88227467,4,2.5,1,0,0,0.0411,fixationPoint,769.431,769.5283,769.5283,772.2712,29.88227467,8537.792763,514.402014,a,1,2.7395,,772.2712,772.4725,,,,,,,,27,76,113,-120,122,-24,128,-18,16,-67,-176,-17,-118,-124,-25,66,-26,68,-211,161,-16,19,160,210,32,360,180,90,270,360,90,360,270,90,90,90,,,,,,,,,,,772.4725,772.4726,,0,89,89,89,1,14,novel,,,,,,,,,,,,,,,,,,,,,,,,,,,,,,,,,,,,,,,,,,,,,,,,,
,,8,5,${e://Field/PROLIFIC_PID,M,18,2023-11-03_06h16.18.278,MouseEye_CC,2023.2.2,Win32,143.6781609,1.067224095,,,1920,1080,42.549,4,"242.43, 268.32, 271.17, 247.49, 262.15, 245.48, 332.36",722.01,7.426955576,29.70782231,27.83653633,Passed,99.52120472,,,,,,,,,,,,,,,,,,,,training,6,11,180,right,s,,,,,772.4729,772.549,29.88227467,4,2.5,1,0,0,0.0761,fixationPoint,772.549,772.6462,772.6462,775.1601,29.88227467,8537.792763,514.402014,s,1,2.5114,,775.1602,775.3614,,,,,,,,3,-115,210,123,24,124,172,210,32,-17,-118,-71,-122,-68,-24,114,-64,167,-168,210,-210,-222,209,-28,211,270,360,180,270,360,360,180,270,360,180,270,,,,,,,,,,,775.3614,775.3615,,0,90,90,90,1,4,repeated,,,,,,,,,,,,,,,,,,,,,,,,,,,,,,,,,,,,,,,,,,,,,,,,,
,,8,5,${e://Field/PROLIFIC_PID,M,18,2023-11-03_06h16.18.278,MouseEye_CC,2023.2.2,Win32,143.6781609,1.067224095,,,1920,1080,42.549,4,"242.43, 268.32, 271.17, 247.49, 262.15, 245.48, 332.36",722.01,7.426955576,29.70782231,27.83653633,Passed,99.52120472,,,,,,,,,,,,,,,,,,,,training,6,12,180,right,s,,,,,775.3618,775.4031,29.88227467,4,2.5,1,0,0,0.0413,fixationPoint,775.4031,775.5003,775.5003,777.7365,29.88227467,8537.792763,514.402014,s,1,2.2334,,777.7365,777.9378,,,,,,,,40,213,65,-71,116,-18,16,-213,22,-28,-171,-16,-220,-165,-124,72,-67,74,-116,223,-119,123,127,26,16,270,90,360,360,360,180,90,90,180,90,90,,,,,,,,,,,777.9378,777.9379,,0,91,91,91,1,1,repeated,,,,,,,,,,,,,,,,,,,,,,,,,,,,,,,,,,,,,,,,,,,,,,,,,
,,8,5,${e://Field/PROLIFIC_PID,M,18,2023-11-03_06h16.18.278,MouseEye_CC,2023.2.2,Win32,143.6781609,1.067224095,,,1920,1080,42.549,4,"242.43, 268.32, 271.17, 247.49, 262.15, 245.48, 332.36",722.01,7.426955576,29.70782231,27.83653633,Passed,99.52120472,,,,,,,,,,,,,,,,,,,,training,6,13,180,right,s,,,,,777.9381,778.1601,29.88227467,4,2.5,1,0,0,0.222,fixationPoint,778.1601,778.2572,778.2573,780.8961,29.88227467,8537.792763,514.402014,s,1,2.6353,,780.8961,781.0974,,,,,,,,84,-67,-176,172,164,26,16,213,65,-223,160,-68,211,-18,16,116,-171,66,-26,223,-119,-68,-24,-168,-213,360,90,360,180,180,90,180,270,180,180,270,,,,,,,,,,,781.0974,781.0976,,0,92,92,92,1,10,novel,,,,,,,,,,,,,,,,,,,,,,,,,,,,,,,,,,,,,,,,,,,,,,,,,
,,8,5,${e://Field/PROLIFIC_PID,M,18,2023-11-03_06h16.18.278,MouseEye_CC,2023.2.2,Win32,143.6781609,1.067224095,,,1920,1080,42.549,4,"242.43, 268.32, 271.17, 247.49, 262.15, 245.48, 332.36",722.01,7.426955576,29.70782231,27.83653633,Passed,99.52120472,,,,,,,,,,,,,,,,,,,,training,6,14,0,left,a,,,,,781.0978,781.1738,29.88227467,4,2.5,1,0,0,0.076,fixationPoint,781.1739,781.2711,781.2711,783.6254,29.88227467,8537.792763,514.402014,a,1,2.3504,,783.6254,783.8267,,,,,,,,24,-71,116,64,219,163,28,160,73,-17,-28,-124,-161,-215,-115,74,-116,208,-68,164,-213,-28,211,-114,26,360,360,180,180,360,180,90,360,90,270,90,,,,,,,,,,,783.8267,783.8268,,0,93,93,93,1,3,repeated,,,,,,,,,,,,,,,,,,,,,,,,,,,,,,,,,,,,,,,,,,,,,,,,,
,,8,5,${e://Field/PROLIFIC_PID,M,18,2023-11-03_06h16.18.278,MouseEye_CC,2023.2.2,Win32,143.6781609,1.067224095,,,1920,1080,42.549,4,"242.43, 268.32, 271.17, 247.49, 262.15, 245.48, 332.36",722.01,7.426955576,29.70782231,27.83653633,Passed,99.52120472,,,,,,,,,,,,,,,,,,,,training,6,15,0,left,a,,,,,783.827,783.8962,29.88227467,4,2.5,1,0,0,0.0691,fixationPoint,783.8962,783.9933,783.9934,786.1322,29.88227467,8537.792763,514.402014,a,1,2.1361,,786.1322,786.3334,,,,,,,,68,114,-64,220,176,174,216,19,160,-171,16,-167,171,-176,72,-215,-115,-216,-75,-218,-212,116,-171,28,-168,180,360,180,90,180,270,180,90,360,360,360,,,,,,,,,,,786.3335,786.3336,,0,94,94,94,1,7,repeated,,,,,,,,,,,,,,,,,,,,,,,,,,,,,,,,,,,,,,,,,,,,,,,,,
,,8,5,${e://Field/PROLIFIC_PID,M,18,2023-11-03_06h16.18.278,MouseEye_CC,2023.2.2,Win32,143.6781609,1.067224095,,,1920,1080,42.549,4,"242.43, 268.32, 271.17, 247.49, 262.15, 245.48, 332.36",722.01,7.426955576,29.70782231,27.83653633,Passed,99.52120472,,,,,,,,,,,,,,,,,,,,training,6,16,180,right,s,,,,,786.3338,786.5213,29.88227467,4,2.5,1,0,0,0.1874,fixationPoint,786.5214,786.6184,786.6184,788.2086,29.88227467,8537.792763,514.402014,s,1,1.5841,,788.2086,788.4099,,,,,,,,5,-28,211,64,160,25,218,124,219,-168,-213,-218,-212,-176,-169,127,-113,68,-211,66,-26,-167,171,-213,22,360,360,90,90,270,180,90,90,360,360,180,,,,,,,,,,,788.41,789.5767,space,0,95,95,95,1,16,novel,1.1603,,,,,,,,,,,,,,,,,,,,,,,,,,,,,,,,,,,,,,,,,,,,,,,,
,,8,5,${e://Field/PROLIFIC_PID,M,18,2023-11-03_06h16.18.278,MouseEye_CC,2023.2.2,Win32,143.6781609,1.067224095,,,1920,1080,42.549,4,"242.43, 268.32, 271.17, 247.49, 262.15, 245.48, 332.36",722.01,7.426955576,29.70782231,27.83653633,Passed,99.52120472,,,,,,,,,,,,,,,,,,,,training,7,1,180,right,s,,,,,789.5769,789.8894,29.88227467,4,2.5,1,0,0,0.3121,fixationPoint,789.8895,789.9863,789.9863,792.771,29.88227467,8537.792763,514.402014,s,1,2.7793,,792.7711,792.9724,,,,,,,,27,76,113,-216,68,-26,175,-223,160,-124,-25,-71,-122,-168,-19,127,-113,72,-67,24,-210,214,212,213,124,90,270,180,270,270,360,90,270,180,270,180,,,,,,,,,,,792.9724,792.9732,,0,96,96,96,1,14,novel,,,,,,,,,,,,,,,,,,,,,,,,,,,,,,,,,,,,,,,,,,,,,,,,,
,,8,5,${e://Field/PROLIFIC_PID,M,18,2023-11-03_06h16.18.278,MouseEye_CC,2023.2.2,Win32,143.6781609,1.067224095,,,1920,1080,42.549,4,"242.43, 268.32, 271.17, 247.49, 262.15, 245.48, 332.36",722.01,7.426955576,29.70782231,27.83653633,Passed,99.52120472,,,,,,,,,,,,,,,,,,,,training,7,2,0,left,a,,,,,792.9734,793.0421,29.88227467,4,2.5,1,0,0,0.0687,fixationPoint,793.0421,793.1391,793.1392,796.1044,29.88227467,8537.792763,514.402014,a,1,2.9624,,796.1044,796.3057,,,,,,,,3,-115,210,123,24,124,172,210,32,-17,-118,-71,-122,-68,-24,114,-64,167,-168,210,-210,-222,209,-28,211,360,90,360,360,270,360,180,180,270,180,360,,,,,,,,,,,796.3057,796.3058,,0,97,97,97,1,4,repeated,,,,,,,,,,,,,,,,,,,,,,,,,,,,,,,,,,,,,,,,,,,,,,,,,
,,8,5,${e://Field/PROLIFIC_PID,M,18,2023-11-03_06h16.18.278,MouseEye_CC,2023.2.2,Win32,143.6781609,1.067224095,,,1920,1080,42.549,4,"242.43, 268.32, 271.17, 247.49, 262.15, 245.48, 332.36",722.01,7.426955576,29.70782231,27.83653633,Passed,99.52120472,,,,,,,,,,,,,,,,,,,,training,7,3,0,left,a,,,,,796.3061,796.3543,29.88227467,4,2.5,1,0,0,0.0481,fixationPoint,796.3543,796.4515,796.4516,798.6391,29.88227467,8537.792763,514.402014,s,0,2.1802,,798.6391,802.6389,,,,,,,,84,-67,-176,16,78,174,216,26,16,-167,171,-223,160,-28,71,23,-30,167,-168,24,-210,-71,-122,-124,-25,180,90,90,360,90,270,270,270,270,270,360,,,,,,,,,,,802.639,802.6391,,0,98,98,98,1,10,novel,,,,,,,,,,,,,,,,,,,,,,,,,,,,,,,,,,,,,,,,,,,,,,,,,
,,8,5,${e://Field/PROLIFIC_PID,M,18,2023-11-03_06h16.18.278,MouseEye_CC,2023.2.2,Win32,143.6781609,1.067224095,,,1920,1080,42.549,4,"242.43, 268.32, 271.17, 247.49, 262.15, 245.48, 332.36",722.01,7.426955576,29.70782231,27.83653633,Passed,99.52120472,,,,,,,,,,,,,,,,,,,,training,7,4,0,left,a,,,,,802.6394,802.7848,29.88227467,-3,-0.5,1,0,0,0.1453,fixationPoint,802.7849,802.882,802.882,804.0834,29.88227467,8537.792763,514.402014,a,1,1.1983,,804.0835,804.2848,,,,,,,,74,-71,-122,210,32,30,117,76,113,-211,116,-24,128,-80,173,116,-171,163,-122,212,-172,-218,-212,-215,-115,180,270,270,180,180,180,180,90,180,360,180,,,,,,,,,,,804.2848,804.2849,,0,99,99,99,1,6,repeated,,,,,,,,,,,,,,,,,,,,,,,,,,,,,,,,,,,,,,,,,,,,,,,,,
,,8,5,${e://Field/PROLIFIC_PID,M,18,2023-11-03_06h16.18.278,MouseEye_CC,2023.2.2,Win32,143.6781609,1.067224095,,,1920,1080,42.549,4,"242.43, 268.32, 271.17, 247.49, 262.15, 245.48, 332.36",722.01,7.426955576,29.70782231,27.83653633,Passed,99.52120472,,,,,,,,,,,,,,,,,,,,training,7,5,180,right,s,,,,,804.2851,804.4931,29.88227467,-3,-0.5,1,0,0,0.208,fixationPoint,804.4932,804.5904,804.5904,806.3404,29.88227467,8537.792763,514.402014,s,1,1.7451,,806.3404,806.5417,,,,,,,,50,210,32,-28,71,-176,115,-67,24,-118,-128,-218,-212,-171,-72,72,-67,127,-113,211,-30,213,124,80,73,90,270,90,180,360,270,180,180,360,90,90,,,,,,,,,,,806.5417,806.5418,,0,100,100,100,1,13,novel,,,,,,,,,,,,,,,,,,,,,,,,,,,,,,,,,,,,,,,,,,,,,,,,,
,,8,5,${e://Field/PROLIFIC_PID,M,18,2023-11-03_06h16.18.278,MouseEye_CC,2023.2.2,Win32,143.6781609,1.067224095,,,1920,1080,42.549,4,"242.43, 268.32, 271.17, 247.49, 262.15, 245.48, 332.36",722.01,7.426955576,29.70782231,27.83653633,Passed,99.52120472,,,,,,,,,,,,,,,,,,,,training,7,6,180,right,s,,,,,806.5421,806.6043,29.88227467,-3,-0.5,1,0,0,0.0622,fixationPoint,806.6044,806.7014,806.7014,808.0904,29.88227467,8537.792763,514.402014,s,1,1.3823,,808.0904,808.2917,,,,,,,,96,24,-210,76,113,30,117,163,28,-68,211,-114,26,-171,16,-165,-124,-124,-25,-74,-66,212,-172,23,-30,180,180,180,90,270,180,90,360,90,90,270,,,,,,,,,,,808.2917,808.2918,,0,101,101,101,1,8,repeated,,,,,,,,,,,,,,,,,,,,,,,,,,,,,,,,,,,,,,,,,,,,,,,,,
,,8,5,${e://Field/PROLIFIC_PID,M,18,2023-11-03_06h16.18.278,MouseEye_CC,2023.2.2,Win32,143.6781609,1.067224095,,,1920,1080,42.549,4,"242.43, 268.32, 271.17, 247.49, 262.15, 245.48, 332.36",722.01,7.426955576,29.70782231,27.83653633,Passed,99.52120472,,,,,,,,,,,,,,,,,,,,training,7,7,180,right,s,,,,,808.292,808.3126,29.88227467,-3,-0.5,1,0,0,0.0205,fixationPoint,808.3126,808.4097,808.4098,810.6251,29.88227467,8537.792763,514.402014,s,1,2.2097,,810.6251,810.8264,,,,,,,,40,213,65,-71,116,-18,16,-213,22,-28,-171,-16,-220,-165,-124,72,-67,74,-116,223,-119,123,127,26,16,270,90,90,360,360,180,360,90,180,90,90,,,,,,,,,,,810.8264,810.8265,,0,102,102,102,1,1,repeated,,,,,,,,,,,,,,,,,,,,,,,,,,,,,,,,,,,,,,,,,,,,,,,,,
,,8,5,${e://Field/PROLIFIC_PID,M,18,2023-11-03_06h16.18.278,MouseEye_CC,2023.2.2,Win32,143.6781609,1.067224095,,,1920,1080,42.549,4,"242.43, 268.32, 271.17, 247.49, 262.15, 245.48, 332.36",722.01,7.426955576,29.70782231,27.83653633,Passed,99.52120472,,,,,,,,,,,,,,,,,,,,training,7,8,0,left,a,,,,,810.8267,810.882,29.88227467,-3,-0.5,1,0,0,0.0553,fixationPoint,810.882,810.9793,810.9794,813.5765,29.88227467,8537.792763,514.402014,a,1,2.5931,,813.5765,813.7779,,,,,,,,77,74,-116,19,160,71,22,122,64,-176,115,-167,171,-216,68,-17,-28,-17,-118,-165,-124,66,-26,223,-119,180,180,360,360,180,180,90,90,360,270,360,,,,,,,,,,,813.7779,813.778,,0,103,103,103,1,11,novel,,,,,,,,,,,,,,,,,,,,,,,,,,,,,,,,,,,,,,,,,,,,,,,,,
,,8,5,${e://Field/PROLIFIC_PID,M,18,2023-11-03_06h16.18.278,MouseEye_CC,2023.2.2,Win32,143.6781609,1.067224095,,,1920,1080,42.549,4,"242.43, 268.32, 271.17, 247.49, 262.15, 245.48, 332.36",722.01,7.426955576,29.70782231,27.83653633,Passed,99.52120472,,,,,,,,,,,,,,,,,,,,training,7,9,0,left,a,,,,,813.7782,814.0695,29.88227467,-3,-0.5,1,0,0,0.2912,fixationPoint,814.0695,814.1666,814.1666,818.7153,29.88227467,8537.792763,514.402014,s,0,4.5459,,818.7154,822.7152,,,,,,,,51,-216,-20,160,73,123,127,210,32,-176,72,-71,116,-68,211,208,-68,113,-25,118,-212,-67,-176,-16,-220,90,270,180,180,180,360,90,90,270,270,180,,,,,,,,,,,822.7152,822.7212,,0,104,104,104,1,5,repeated,,,,,,,,,,,,,,,,,,,,,,,,,,,,,,,,,,,,,,,,,,,,,,,,,
,,8,5,${e://Field/PROLIFIC_PID,M,18,2023-11-03_06h16.18.278,MouseEye_CC,2023.2.2,Win32,143.6781609,1.067224095,,,1920,1080,42.549,4,"242.43, 268.32, 271.17, 247.49, 262.15, 245.48, 332.36",722.01,7.426955576,29.70782231,27.83653633,Passed,99.52120472,,,,,,,,,,,,,,,,,,,,training,7,10,0,left,a,,,,,822.7215,823.7569,29.88227467,-3,-0.5,1,0,0,1.0353,fixationPoint,823.7569,823.8542,823.8542,825.0555,29.88227467,8537.792763,514.402014,a,1,1.1973,,825.0555,825.2568,,,,,,,,61,-216,-75,163,28,122,64,220,176,-67,24,-223,160,-176,72,76,-161,208,-68,223,-119,-74,-66,-67,-176,90,360,180,90,90,90,180,270,90,90,270,,,,,,,,,,,825.2568,825.2569,,0,105,105,105,1,9,novel,,,,,,,,,,,,,,,,,,,,,,,,,,,,,,,,,,,,,,,,,,,,,,,,,
,,8,5,${e://Field/PROLIFIC_PID,M,18,2023-11-03_06h16.18.278,MouseEye_CC,2023.2.2,Win32,143.6781609,1.067224095,,,1920,1080,42.549,4,"242.43, 268.32, 271.17, 247.49, 262.15, 245.48, 332.36",722.01,7.426955576,29.70782231,27.83653633,Passed,99.52120472,,,,,,,,,,,,,,,,,,,,training,7,11,180,right,s,,,,,825.2571,825.5485,29.88227467,-2,-0.5,1,0,0,0.2914,fixationPoint,825.5485,825.6457,825.6457,827.9096,29.88227467,8537.792763,514.402014,s,1,2.2618,,827.9097,828.1109,,,,,,,,24,-71,116,64,219,163,28,160,73,-17,-28,-124,-161,-215,-115,74,-116,208,-68,164,-213,-28,211,-114,26,90,90,90,270,180,90,180,90,90,360,180,,,,,,,,,,,828.1109,828.1111,,0,106,106,106,1,3,repeated,,,,,,,,,,,,,,,,,,,,,,,,,,,,,,,,,,,,,,,,,,,,,,,,,
,,8,5,${e://Field/PROLIFIC_PID,M,18,2023-11-03_06h16.18.278,MouseEye_CC,2023.2.2,Win32,143.6781609,1.067224095,,,1920,1080,42.549,4,"242.43, 268.32, 271.17, 247.49, 262.15, 245.48, 332.36",722.01,7.426955576,29.70782231,27.83653633,Passed,99.52120472,,,,,,,,,,,,,,,,,,,,training,7,12,0,left,a,,,,,828.1113,828.1804,29.88227467,-2,-0.5,1,0,0,0.0691,fixationPoint,828.1805,828.2777,828.2777,828.9999,29.88227467,8537.792763,514.402014,a,1,0.7155,,828.9999,829.2013,,,,,,,,33,-112,66,172,164,71,22,30,117,-121,-80,-68,-24,-77,-216,66,-26,127,-113,168,-77,-167,171,-127,167,180,90,180,90,180,180,90,360,90,360,360,,,,,,,,,,,829.2013,829.2013,,0,107,107,107,1,15,novel,,,,,,,,,,,,,,,,,,,,,,,,,,,,,,,,,,,,,,,,,,,,,,,,,
,,8,5,${e://Field/PROLIFIC_PID,M,18,2023-11-03_06h16.18.278,MouseEye_CC,2023.2.2,Win32,143.6781609,1.067224095,,,1920,1080,42.549,4,"242.43, 268.32, 271.17, 247.49, 262.15, 245.48, 332.36",722.01,7.426955576,29.70782231,27.83653633,Passed,99.52120472,,,,,,,,,,,,,,,,,,,,training,7,13,0,left,a,,,,,829.2016,829.3958,29.88227467,-2,-0.5,1,0,0,0.1941,fixationPoint,829.3958,829.493,829.493,831.0902,29.88227467,8537.792763,514.402014,a,1,1.5955,,831.0903,831.2915,,,,,,,,68,114,-64,220,176,174,216,19,160,-171,16,-167,171,-176,72,-215,-115,-216,-75,-218,-212,116,-171,28,-168,360,270,90,180,360,90,180,90,180,360,270,,,,,,,,,,,831.2915,831.2916,,0,108,108,108,1,7,repeated,,,,,,,,,,,,,,,,,,,,,,,,,,,,,,,,,,,,,,,,,,,,,,,,,
,,8,5,${e://Field/PROLIFIC_PID,M,18,2023-11-03_06h16.18.278,MouseEye_CC,2023.2.2,Win32,143.6781609,1.067224095,,,1920,1080,42.549,4,"242.43, 268.32, 271.17, 247.49, 262.15, 245.48, 332.36",722.01,7.426955576,29.70782231,27.83653633,Passed,99.52120472,,,,,,,,,,,,,,,,,,,,training,7,14,180,right,s,,,,,831.2919,831.3332,29.88227467,-2,-0.5,1,0,0,0.0413,fixationPoint,831.3333,831.4305,831.4305,832.743,29.88227467,8537.792763,514.402014,s,1,1.308,,832.743,832.9443,,,,,,,,98,118,-212,163,28,25,218,124,172,-28,71,-223,160,-222,209,-216,-20,-168,-19,-216,-75,163,-122,23,-30,180,360,270,90,360,90,270,270,360,360,180,,,,,,,,,,,832.9444,832.9444,,0,109,109,109,1,12,novel,,,,,,,,,,,,,,,,,,,,,,,,,,,,,,,,,,,,,,,,,,,,,,,,,
,,8,5,${e://Field/PROLIFIC_PID,M,18,2023-11-03_06h16.18.278,MouseEye_CC,2023.2.2,Win32,143.6781609,1.067224095,,,1920,1080,42.549,4,"242.43, 268.32, 271.17, 247.49, 262.15, 245.48, 332.36",722.01,7.426955576,29.70782231,27.83653633,Passed,99.52120472,,,,,,,,,,,,,,,,,,,,training,7,15,180,right,s,,,,,832.9447,832.993,29.88227467,-2,-0.5,1,0,0,0.048,fixationPoint,832.993,833.0901,833.0901,835.6873,29.88227467,8537.792763,514.402014,s,1,2.5907,,835.6874,835.8888,,,,,,,,17,64,160,-24,128,-167,171,-114,26,-74,-66,-216,-75,-224,-167,66,-26,28,-168,24,-210,64,219,25,218,180,180,270,90,180,270,180,360,360,180,360,,,,,,,,,,,835.8888,835.8889,,0,110,110,110,1,2,repeated,,,,,,,,,,,,,,,,,,,,,,,,,,,,,,,,,,,,,,,,,,,,,,,,,
,,8,5,${e://Field/PROLIFIC_PID,M,18,2023-11-03_06h16.18.278,MouseEye_CC,2023.2.2,Win32,143.6781609,1.067224095,,,1920,1080,42.549,4,"242.43, 268.32, 271.17, 247.49, 262.15, 245.48, 332.36",722.01,7.426955576,29.70782231,27.83653633,Passed,99.52120472,,,,,,,,,,,,,,,,,,,,training,7,16,180,right,s,,,,,835.8892,835.9169,29.88227467,-3,3.5,1,0,0,0.0275,fixationPoint,835.9169,836.0138,836.0138,838.8748,29.88227467,8537.792763,514.402014,s,1,2.8544,,838.8749,839.0762,,,,,,,,5,-28,211,16,78,220,176,210,32,-124,-25,-113,-212,-31,-66,114,-64,118,-212,32,-79,-69,66,-176,115,90,180,90,90,180,90,90,180,360,360,90,,,,,,,,,,,839.0762,843.7567,space,0,111,111,111,1,16,novel,4.6712,,,,,,,,,,,,,,,,,,,,,,,,,,,,,,,,,,,,,,,,,,,,,,,,
,,8,5,${e://Field/PROLIFIC_PID,M,18,2023-11-03_06h16.18.278,MouseEye_CC,2023.2.2,Win32,143.6781609,1.067224095,,,1920,1080,42.549,4,"242.43, 268.32, 271.17, 247.49, 262.15, 245.48, 332.36",722.01,7.426955576,29.70782231,27.83653633,Passed,99.52120472,,,,,,,,,,,,,,,,,,,,training,8,1,0,left,a,,,,,843.7623,844.0206,29.88227467,0,3.5,1,0,0,0.2582,fixationPoint,844.0206,844.1178,844.1178,845.5276,29.88227467,8537.792763,514.402014,a,1,1.4036,,845.5276,845.7289,,,,,,,,3,-115,210,123,24,124,172,210,32,-17,-118,-71,-122,-68,-24,114,-64,167,-168,210,-210,-222,209,-28,211,180,180,180,360,360,90,270,270,270,270,270,,,,,,,,,,,845.7289,845.7295,,0,112,112,112,1,4,repeated,,,,,,,,,,,,,,,,,,,,,,,,,,,,,,,,,,,,,,,,,,,,,,,,,
,,8,5,${e://Field/PROLIFIC_PID,M,18,2023-11-03_06h16.18.278,MouseEye_CC,2023.2.2,Win32,143.6781609,1.067224095,,,1920,1080,42.549,4,"242.43, 268.32, 271.17, 247.49, 262.15, 245.48, 332.36",722.01,7.426955576,29.70782231,27.83653633,Passed,99.52120472,,,,,,,,,,,,,,,,,,,,training,8,2,180,right,s,,,,,845.7298,845.7498,29.88227467,0,3.5,1,0,0,0.0199,fixationPoint,845.7498,845.8469,845.8469,846.6595,29.88227467,8537.792763,514.402014,s,1,0.8104,,846.6595,846.8608,,,,,,,,33,-112,66,163,28,76,113,167,117,-28,-171,-171,-72,-71,-122,28,-168,167,-168,127,-113,-69,66,-176,115,180,90,180,90,360,90,90,360,360,270,90,,,,,,,,,,,846.8609,846.861,,0,113,113,113,1,15,novel,,,,,,,,,,,,,,,,,,,,,,,,,,,,,,,,,,,,,,,,,,,,,,,,,
