InstrStartPage.started,InstrStartPage.stopped,participant,designid,prolificid,Gender,Age,date,expName,psychopyVersion,OS,frameRate,ratio_monitor2CRT,VirtualChinrest.started,VirtualChinrest.stopped,xRes,yRes,viewingdistance_cm,pixeldensity_px2mm,BallPos,squarePos,mm2degree,px2degree,CRT_px2degree,PassVirtualChinrest,foveaRadius_inPixel,InstrRedo.started,InstrRedo.stopped,VirtualChinrest_Redo.started,VirtualChinrest_Redo.stopped,Instruction1.started,Instruction1.stopped,keyPractice.started,keyPractice.stopped,key_keyprac.keys,key_keyprac.corr,key_keyprac.rt,key_keyprac.duration,keyPracFeedback.started,keyPracFeedback.stopped,keyPracLoop.thisRepN,keyPracLoop.thisTrialN,keyPracLoop.thisN,keyPracLoop.thisIndex,keyPracLoop.ran,phase,block,trial,targOrientdeg,targOrient,corrAnswer,Instruction2.started,Instruction2.stopped,Instruction3.started,Instruction3.stopped,fixation.started,fixation.stopped,fixationSize,mouseintial.x,mouseintial.y,mouseintial.leftButton,mouseintial.midButton,mouseintial.rightButton,mouseintial.time,mouseintial.clicked_name,greenFixation.started,greenFixation.stopped,trial.started,trial.stopped,letterSize,apertureSize,searchsize,key_respMain.keys,key_respMain.corr,key_respMain.rt,key_respMain.duration,trialFeedback.started,trialFeedback.stopped,trialsPractice.thisRepN,trialsPractice.thisTrialN,trialsPractice.thisN,trialsPractice.thisIndex,trialsPractice.ran,targetQuad,Tcondition,targcell,tlocx,tlocy,d1x,d1y,d2x,d2y,d3x,d3y,d4x,d4y,d5x,d5y,d6x,d6y,d7x,d7y,d8x,d8y,d9x,d9y,d10x,d10y,d11x,d11y,d1Orient,d2Orient,d3Orient,d4Orient,d5Orient,d6Orient,d7Orient,d8Orient,d9Orient,d10Orient,d11Orient,CheckInstr.started,CheckInstr.stopped,key_checkInstr.keys,key_checkInstr.corr,key_checkInstr.rt,key_checkInstr.duration,CheckInstr_FB.started,CheckInstr_FB.stopped,Instruction_MainExp.started,Instruction_MainExp.stopped,TakeABreak.started,TakeABreak.stopped,key_respBreak.keys,trials.thisRepN,trials.thisTrialN,trials.thisN,trials.thisIndex,trials.ran,configurationNumber,CCCondition
1E-04,18.1552,999,12,xxx,F,18,2023-11-01_14h30.33.796,MouseEye_CC,2023.2.2,MacIntel,60.0024001,1,,,,,,,,,,,,,,,,,,,,,,,,,,,,,,,,,,,,,,,,,,,,,,,,,,,,,,,,,,,,,,,,,,,,,,,,,,,,,,,,,,,,,,,,,,,,,,,,,,,,,,,,,,,,,,,,,,,,,,,,,,,,,,,,
,,999,12,xxx,F,18,2023-11-01_14h30.33.796,MouseEye_CC,2023.2.2,MacIntel,60.0024001,1.143971037,18.1554,141.7728,2560,1440,52.575,3.47,"135.45, 143.53, 179.72, 150.59, 149.04, 145.24, 169.28",589.53,9.177000386,31.84419134,27.83653633,Passed,106.678041,,,,,,,,,,,,,,,,,,,,,,,,,,,,,,,,,,,,,,,,,,,,,,,,,,,,,,,,,,,,,,,,,,,,,,,,,,,,,,,,,,,,,,,,,,,,,,,,,,,,,,,,,,,,,,,,,,,
,,999,12,xxx,F,18,2023-11-01_14h30.33.796,MouseEye_CC,2023.2.2,MacIntel,60.0024001,1.143971037,,,2560,1440,52.575,3.47,"135.45, 143.53, 179.72, 150.59, 149.04, 145.24, 169.28",589.53,9.177000386,31.84419134,27.83653633,Passed,106.678041,141.7729,141.7782,,,,,,,,,,,,,,,,,,,,,,,,,,,,,,,,,,,,,,,,,,,,,,,,,,,,,,,,,,,,,,,,,,,,,,,,,,,,,,,,,,,,,,,,,,,,,,,,,,,,,,,,,,,,,,,,,
,,999,12,xxx,F,18,2023-11-01_14h30.33.796,MouseEye_CC,2023.2.2,MacIntel,60.0024001,1.131677292,,,2560,1440,52.010000000000005,3.47,"135.45, 143.53, 179.72, 150.59, 149.04, 145.24, 169.28",589.53,9.078379269,31.50197606,27.83653633,Passed,105.5316198,,,141.7784,213.9599,,,,,,,,,,,,,,,,,,,,,,,,,,,,,,,,,,,,,,,,,,,,,,,,,,,,,,,,,,,,,,,,,,,,,,,,,,,,,,,,,,,,,,,,,,,,,,,,,,,,,,,,,,,,,,,
,,999,12,xxx,F,18,2023-11-01_14h30.33.796,MouseEye_CC,2023.2.2,MacIntel,60.0024001,1.131677292,,,2560,1440,52.010000000000005,3.47,"135.45, 143.53, 179.72, 150.59, 149.04, 145.24, 169.28",589.53,9.078379269,31.50197606,27.83653633,Passed,105.5316198,,,,,213.9601,227.3508,,,,,,,,,,,,,,,,,,,,,,,,,,,,,,,,,,,,,,,,,,,,,,,,,,,,,,,,,,,,,,,,,,,,,,,,,,,,,,,,,,,,,,,,,,,,,,,,,,,,,,,,,,,,,
,,999,12,xxx,F,18,2023-11-01_14h30.33.796,MouseEye_CC,2023.2.2,MacIntel,60.0024001,1.131677292,,,2560,1440,52.010000000000005,3.47,"135.45, 143.53, 179.72, 150.59, 149.04, 145.24, 169.28",589.53,9.078379269,31.50197606,27.83653633,Passed,105.5316198,,,,,,,227.3624,228.677,a,1,0.7848,,228.6771,229.1744,0,0,0,0,1,practice,1,1,0,left,a,,,,,,,,,,,,,,,,,,,,,,,,,,,,,,,,,,,,,,,,,,,,,,,,,,,,,,,,,,,,,,,,,,,,,,,,,,,,,,,,,,,,,,,,,,
,,999,12,xxx,F,18,2023-11-01_14h30.33.796,MouseEye_CC,2023.2.2,MacIntel,60.0024001,1.131677292,,,2560,1440,52.010000000000005,3.47,"135.45, 143.53, 179.72, 150.59, 149.04, 145.24, 169.28",589.53,9.078379269,31.50197606,27.83653633,Passed,105.5316198,,,,,,,229.1755,230.2599,a,1,0.5545,,230.26,230.7602,0,1,1,1,1,practice,1,2,0,left,a,,,,,,,,,,,,,,,,,,,,,,,,,,,,,,,,,,,,,,,,,,,,,,,,,,,,,,,,,,,,,,,,,,,,,,,,,,,,,,,,,,,,,,,,,,
,,999,12,xxx,F,18,2023-11-01_14h30.33.796,MouseEye_CC,2023.2.2,MacIntel,60.0024001,1.131677292,,,2560,1440,52.010000000000005,3.47,"135.45, 143.53, 179.72, 150.59, 149.04, 145.24, 169.28",589.53,9.078379269,31.50197606,27.83653633,Passed,105.5316198,,,,,,,230.7609,231.8589,a,1,0.577,,231.8589,232.3605,0,2,2,2,1,practice,1,3,0,left,a,,,,,,,,,,,,,,,,,,,,,,,,,,,,,,,,,,,,,,,,,,,,,,,,,,,,,,,,,,,,,,,,,,,,,,,,,,,,,,,,,,,,,,,,,,
,,999,12,xxx,F,18,2023-11-01_14h30.33.796,MouseEye_CC,2023.2.2,MacIntel,60.0024001,1.131677292,,,2560,1440,52.010000000000005,3.47,"135.45, 143.53, 179.72, 150.59, 149.04, 145.24, 169.28",589.53,9.078379269,31.50197606,27.83653633,Passed,105.5316198,,,,,,,232.3611,233.408,s,1,0.5209,,233.4082,233.911,0,3,3,3,1,practice,1,4,180,right,s,,,,,,,,,,,,,,,,,,,,,,,,,,,,,,,,,,,,,,,,,,,,,,,,,,,,,,,,,,,,,,,,,,,,,,,,,,,,,,,,,,,,,,,,,,
,,999,12,xxx,F,18,2023-11-01_14h30.33.796,MouseEye_CC,2023.2.2,MacIntel,60.0024001,1.131677292,,,2560,1440,52.010000000000005,3.47,"135.45, 143.53, 179.72, 150.59, 149.04, 145.24, 169.28",589.53,9.078379269,31.50197606,27.83653633,Passed,105.5316198,,,,,,,233.9113,234.9097,s,1,0.4774,,234.9097,235.4071,0,4,4,4,1,practice,1,5,180,right,s,,,,,,,,,,,,,,,,,,,,,,,,,,,,,,,,,,,,,,,,,,,,,,,,,,,,,,,,,,,,,,,,,,,,,,,,,,,,,,,,,,,,,,,,,,
,,999,12,xxx,F,18,2023-11-01_14h30.33.796,MouseEye_CC,2023.2.2,MacIntel,60.0024001,1.131677292,,,2560,1440,52.010000000000005,3.47,"135.45, 143.53, 179.72, 150.59, 149.04, 145.24, 169.28",589.53,9.078379269,31.50197606,27.83653633,Passed,105.5316198,,,,,,,235.4078,236.4413,a,1,0.5194,,236.4414,236.9412,0,5,5,5,1,practice,1,6,0,left,a,,,,,,,,,,,,,,,,,,,,,,,,,,,,,,,,,,,,,,,,,,,,,,,,,,,,,,,,,,,,,,,,,,,,,,,,,,,,,,,,,,,,,,,,,,
,,999,12,xxx,F,18,2023-11-01_14h30.33.796,MouseEye_CC,2023.2.2,MacIntel,60.0024001,1.131677292,,,2560,1440,52.010000000000005,3.47,"135.45, 143.53, 179.72, 150.59, 149.04, 145.24, 169.28",589.53,9.078379269,31.50197606,27.83653633,Passed,105.5316198,,,,,,,,,,,,,,,,,,,,,,,,,,236.9421,242.7906,,,,,,,,,,,,,,,,,,,,,,,,,,,,,,,,,,,,,,,,,,,,,,,,,,,,,,,,,,,,,,,,,,,,,,,,,,,,,,,,,,,,,,,,
,,999,12,xxx,F,18,2023-11-01_14h30.33.796,MouseEye_CC,2023.2.2,MacIntel,60.0024001,1.131677292,,,2560,1440,52.010000000000005,3.47,"135.45, 143.53, 179.72, 150.59, 149.04, 145.24, 169.28",589.53,9.078379269,31.50197606,27.83653633,Passed,105.5316198,,,,,,,,,,,,,,,,,,,,,,,,,,,,242.7907,245.6597,,,,,,,,,,,,,,,,,,,,,,,,,,,,,,,,,,,,,,,,,,,,,,,,,,,,,,,,,,,,,,,,,,,,,,,,,,,,,,,,,,,,,,
,,999,12,xxx,F,18,2023-11-01_14h30.33.796,MouseEye_CC,2023.2.2,MacIntel,60.0024001,1.131677292,,,2560,1440,52.010000000000005,3.47,"135.45, 143.53, 179.72, 150.59, 149.04, 145.24, 169.28",589.53,9.078379269,31.50197606,27.83653633,Passed,105.5316198,,,,,,,,,,,,,,,,,,,,practice,0,1,0,left,a,,,,,245.6752,249.3579,31.68696419,-2.1875,-3.143768311,1,0,0,3.6824,fixationPoint,249.3581,249.4596,249.4605,251.027,31.68696419,9053.418339,545.4684549,a,1,1.5547,,251.027,251.2267,0,0,0,0,1,4,sparse,90,217,-164,68,123,222,26,214,216,-218,159,-120,223,-110,82,-115,-130,-224,-120,-68,-219,79,-175,19,-128,90,270,360,90,270,270,180,90,90,90,270,,,,,,,,,,,,,,,,,,,,
,,999,12,xxx,F,18,2023-11-01_14h30.33.796,MouseEye_CC,2023.2.2,MacIntel,60.0024001,1.131677292,,,2560,1440,52.010000000000005,3.47,"135.45, 143.53, 179.72, 150.59, 149.04, 145.24, 169.28",589.53,9.078379269,31.50197606,27.83653633,Passed,105.5316198,,,,,,,,,,,,,,,,,,,,practice,0,2,0,left,a,,,,,251.2274,251.6604,31.68696419,-2.1875,-3.143768311,1,0,0,0.4328,fixationPoint,251.6605,251.7596,251.7597,252.7751,31.68696419,9053.418339,545.4684549,a,1,1.0102,,252.7752,252.9767,0,1,1,1,1,1,rich,39,169,66,-126,125,-169,169,-130,19,-169,-116,-125,-167,-224,-216,218,-129,171,-218,18,-208,166,26,17,170,180,90,360,270,90,90,90,270,180,180,270,,,,,,,,,,,,,,,,,,,,
,,999,12,xxx,F,18,2023-11-01_14h30.33.796,MouseEye_CC,2023.2.2,MacIntel,60.0024001,1.131677292,,,2560,1440,52.010000000000005,3.47,"135.45, 143.53, 179.72, 150.59, 149.04, 145.24, 169.28",589.53,9.078379269,31.50197606,27.83653633,Passed,105.5316198,,,,,,,,,,,,,,,,,,,,practice,0,3,0,left,a,,,,,252.977,253.1968,31.68696419,-2.1875,-3.143768311,1,0,0,0.2198,fixationPoint,253.1968,253.2925,253.2926,255.7098,31.68696419,9053.418339,545.4684549,a,1,2.4055,,255.7098,255.909,0,2,2,2,1,2,sparse,22,-162,126,222,26,17,170,126,172,-25,-117,-175,-206,-224,-216,116,-19,130,-174,217,-164,-218,159,-21,162,90,90,180,360,360,270,360,360,360,360,180,,,,,,,,,,,,,,,,,,,,
,,999,12,xxx,F,18,2023-11-01_14h30.33.796,MouseEye_CC,2023.2.2,MacIntel,60.0024001,1.131677292,,,2560,1440,52.010000000000005,3.47,"135.45, 143.53, 179.72, 150.59, 149.04, 145.24, 169.28",589.53,9.078379269,31.50197606,27.83653633,Passed,105.5316198,,,,,,,,,,,,,,,,,,,,practice,0,4,180,right,s,,,,,255.9094,256.16,31.68696419,-2.1875,-3.143768311,1,0,0,0.2505,fixationPoint,256.1601,256.2603,256.2604,257.4267,31.68696419,9053.418339,545.4684549,s,1,1.1607,,257.4267,257.6249,0,3,3,3,1,4,sparse,76,19,-128,159,121,214,216,219,165,-218,159,-162,126,-219,119,-169,-116,-111,-31,-175,-206,18,-208,81,-114,90,270,180,180,270,180,360,360,360,270,360,,,,,,,,,,,,,,,,,,,,
,,999,12,xxx,F,18,2023-11-01_14h30.33.796,MouseEye_CC,2023.2.2,MacIntel,60.0024001,1.131677292,,,2560,1440,52.010000000000005,3.47,"135.45, 143.53, 179.72, 150.59, 149.04, 145.24, 169.28",589.53,9.078379269,31.50197606,27.83653633,Passed,105.5316198,,,,,,,,,,,,,,,,,,,,practice,0,5,180,right,s,,,,,257.6254,257.6796,31.68696419,-2.1875,-3.143768311,1,0,0,0.054,fixationPoint,257.6796,257.7761,257.7762,259.6574,31.68696419,9053.418339,545.4684549,s,1,1.8665,,259.6574,259.8599,0,4,4,4,1,3,sparse,85,-19,-173,219,165,68,123,214,216,-160,68,-64,120,-226,34,162,-21,224,-216,167,-163,-167,-74,-224,-216,360,360,360,90,180,270,90,360,270,270,360,,,,,,,,,,,,,,,,,,,,
,,999,12,xxx,F,18,2023-11-01_14h30.33.796,MouseEye_CC,2023.2.2,MacIntel,60.0024001,1.131677292,,,2560,1440,52.010000000000005,3.47,"135.45, 143.53, 179.72, 150.59, 149.04, 145.24, 169.28",589.53,9.078379269,31.50197606,27.83653633,Passed,105.5316198,,,,,,,,,,,,,,,,,,,,practice,0,6,180,right,s,,,,,259.8608,260.0754,31.68696419,-2.1875,-3.143768311,1,0,0,0.2143,fixationPoint,260.0754,260.1763,260.1764,264.9098,31.68696419,9053.418339,545.4684549,s,1,4.7164,,264.9099,265.1098,0,5,5,5,1,3,sparse,95,-21,-224,126,172,219,165,166,26,-166,207,-223,206,-219,119,169,-75,18,-208,224,-216,-72,-121,-115,-130,180,180,360,180,360,180,270,180,90,180,360,,,,,,,,,,,,,,,,,,,,
,,999,12,xxx,F,18,2023-11-01_14h30.33.796,MouseEye_CC,2023.2.2,MacIntel,60.0024001,1.131677292,,,2560,1440,52.010000000000005,3.47,"135.45, 143.53, 179.72, 150.59, 149.04, 145.24, 169.28",589.53,9.078379269,31.50197606,27.83653633,Passed,105.5316198,,,,,,,,,,,,,,,,,,,,practice,0,7,0,left,a,,,,,265.1101,265.4427,31.68696419,-2.1875,-3.143768311,1,0,0,0.3326,fixationPoint,265.4428,265.5434,265.5434,268.2618,31.68696419,9053.418339,545.4684549,a,1,2.7148,,268.2618,268.46,0,6,6,6,1,1,rich,7,62,223,-166,207,-226,34,-162,126,-169,-116,-168,-160,-161,-27,15,-162,162,-21,79,-175,219,165,219,129,180,180,360,180,270,360,180,360,270,180,360,,,,,,,,,,,,,,,,,,,,
,,999,12,xxx,F,18,2023-11-01_14h30.33.796,MouseEye_CC,2023.2.2,MacIntel,60.0024001,1.131677292,,,2560,1440,52.010000000000005,3.47,"135.45, 143.53, 179.72, 150.59, 149.04, 145.24, 169.28",589.53,9.078379269,31.50197606,27.83653633,Passed,105.5316198,,,,,,,,,,,,,,,,,,,,practice,0,8,180,right,s,,,,,268.4606,268.7087,31.68696419,-2.1875,-3.143768311,1,0,0,0.2476,fixationPoint,268.7087,268.8105,268.8106,269.8594,31.68696419,9053.418339,545.4684549,s,1,1.0429,,269.8597,270.0589,0,7,7,7,1,2,sparse,24,-64,120,18,215,126,172,33,121,-206,-170,-64,-162,-218,-78,130,-174,211,-74,168,-130,-164,32,-21,162,90,180,270,360,180,90,180,180,180,360,270,,,,,,,,,,,,,,,,,,,,
,,999,12,xxx,F,18,2023-11-01_14h30.33.796,MouseEye_CC,2023.2.2,MacIntel,60.0024001,1.131677292,,,2560,1440,52.010000000000005,3.47,"135.45, 143.53, 179.72, 150.59, 149.04, 145.24, 169.28",589.53,9.078379269,31.50197606,27.83653633,Passed,105.5316198,,,,,,,,,,,,,,,,,,,,practice,0,9,180,right,s,,,,,270.0607,270.2591,31.68696419,-2.1875,-3.143768311,1,0,0,0.1983,fixationPoint,270.2592,270.3583,270.3584,272.2252,31.68696419,9053.418339,545.4684549,s,1,1.8514,,272.2254,272.425,0,8,8,8,1,3,sparse,85,-19,-173,127,30,62,223,217,67,-110,82,-21,162,-80,218,167,-163,126,-79,130,-174,-125,-167,-68,-219,360,360,360,180,360,360,180,270,90,360,180,,,,,,,,,,,,,,,,,,,,
,,999,12,xxx,F,18,2023-11-01_14h30.33.796,MouseEye_CC,2023.2.2,MacIntel,60.0024001,1.131677292,,,2560,1440,52.010000000000005,3.47,"135.45, 143.53, 179.72, 150.59, 149.04, 145.24, 169.28",589.53,9.078379269,31.50197606,27.83653633,Passed,105.5316198,,,,,,,,,,,,,,,,,,,,practice,0,10,180,right,s,,,,,272.4258,272.6582,31.68696419,-2.1875,-3.143768311,1,0,0,0.2319,fixationPoint,272.6582,272.7603,272.7603,274.8264,31.68696419,9053.418339,545.4684549,s,1,2.0563,,274.8265,275.026,0,9,9,9,1,1,rich,9,160,209,-166,207,-226,34,-120,223,-224,-120,-118,-217,-218,-78,112,-209,126,-113,169,-75,178,160,110,129,180,90,90,270,360,270,360,180,360,180,360,,,,,,,,,,,,,,,,,,,,
,,999,12,xxx,F,18,2023-11-01_14h30.33.796,MouseEye_CC,2023.2.2,MacIntel,60.0024001,1.131677292,,,2560,1440,52.010000000000005,3.47,"135.45, 143.53, 179.72, 150.59, 149.04, 145.24, 169.28",589.53,9.078379269,31.50197606,27.83653633,Passed,105.5316198,,,,,,,,,,,,,,,,,,,,practice,0,11,180,right,s,,,,,275.0262,275.3425,31.68696419,-2.365600586,-3.143768311,1,0,0,0.3163,fixationPoint,275.3426,275.4412,275.4413,277.0756,31.68696419,9053.418339,545.4684549,s,1,1.6176,,277.0757,277.2749,0,10,10,10,1,4,sparse,80,218,-129,62,223,159,121,110,129,-218,159,-223,206,-75,173,-169,-116,-118,-217,-125,-167,217,-164,169,-75,360,270,360,180,360,180,180,270,360,180,90,,,,,,,,,,,,,,,,,,,,
,,999,12,xxx,F,18,2023-11-01_14h30.33.796,MouseEye_CC,2023.2.2,MacIntel,60.0024001,1.131677292,,,2560,1440,52.010000000000005,3.47,"135.45, 143.53, 179.72, 150.59, 149.04, 145.24, 169.28",589.53,9.078379269,31.50197606,27.83653633,Passed,105.5316198,,,,,,,,,,,,,,,,,,,,practice,0,12,0,left,a,,,,,277.2758,277.4971,31.68696419,-2.365600586,-3.143768311,1,0,0,0.2212,fixationPoint,277.4971,277.5909,277.591,279.7925,31.68696419,9053.418339,545.4684549,a,1,2.1964,,279.7926,279.9923,0,11,11,11,1,3,sparse,75,-25,-117,110,129,125,63,214,216,-164,32,-27,117,-126,125,171,-218,126,-113,167,-163,-21,-224,-212,-21,270,180,180,360,180,270,360,270,360,180,270,,,,,,,,,,,,,,,,,,,,
,,999,12,xxx,F,18,2023-11-01_14h30.33.796,MouseEye_CC,2023.2.2,MacIntel,60.0024001,1.131677292,,,2560,1440,52.010000000000005,3.47,"135.45, 143.53, 179.72, 150.59, 149.04, 145.24, 169.28",589.53,9.078379269,31.50197606,27.83653633,Passed,105.5316198,,,,,,,,,,,,,,,,,,,,,,,,,,,,,,,,,,,,,,,,,,,,,,,,,,,,,,,,,,,,,,,,,,,,,,,,,,,,,,,,,,,,,,,,,,,,,,,,279.9932,292.2599,a,1,12.2512,,,,,,,,,,,,,,,
,,999,12,xxx,F,18,2023-11-01_14h30.33.796,MouseEye_CC,2023.2.2,MacIntel,60.0024001,1.131677292,,,2560,1440,52.010000000000005,3.47,"135.45, 143.53, 179.72, 150.59, 149.04, 145.24, 169.28",589.53,9.078379269,31.50197606,27.83653633,Passed,105.5316198,,,,,,,,,,,,,,,,,,,,,,,,,,,,,,,,,,,,,,,,,,,,,,,,,,,,,,,,,,,,,,,,,,,,,,,,,,,,,,,,,,,,,,,,,,,,,,,,,,,,,,292.2601,297.0437,,,,,,,,,,,,
,,999,12,xxx,F,18,2023-11-01_14h30.33.796,MouseEye_CC,2023.2.2,MacIntel,60.0024001,1.131677292,,,2560,1440,52.010000000000005,3.47,"135.45, 143.53, 179.72, 150.59, 149.04, 145.24, 169.28",589.53,9.078379269,31.50197606,27.83653633,Passed,105.5316198,,,,,,,,,,,,,,,,,,,,,,,,,,,,,,,,,,,,,,,,,,,,,,,,,,,,,,,,,,,,,,,,,,,,,,,,,,,,,,,,,,,,,,,,,,,,,,,,,,,,,,,,297.0438,304.8118,,,,,,,,,,
,,999,12,xxx,F,18,2023-11-01_14h30.33.796,MouseEye_CC,2023.2.2,MacIntel,60.0024001,1.131677292,,,2560,1440,52.010000000000005,3.47,"135.45, 143.53, 179.72, 150.59, 149.04, 145.24, 169.28",589.53,9.078379269,31.50197606,27.83653633,Passed,105.5316198,,,,,,,,,,,,,,,,,,,,training,1,1,0,left,a,,,,,304.8512,306.7258,31.68696419,-3.078125,8.215606689,1,0,0,1.8744,fixationPoint,306.7258,306.8249,306.8249,308.8432,31.68696419,9053.418339,545.4684549,a,1,2.007,,308.8432,309.0426,,,,,,,,18,113,168,-73,160,-116,66,-124,163,-120,-32,-114,-214,-32,-121,24,-166,169,-117,211,-128,164,29,17,212,270,360,270,270,180,360,90,270,270,180,90,,,,,,,,,,,309.0439,309.0465,,0,0,0,0,1,1,repeated
,,999,12,xxx,F,18,2023-11-01_14h30.33.796,MouseEye_CC,2023.2.2,MacIntel,60.0024001,1.131677292,,,2560,1440,52.010000000000005,3.47,"135.45, 143.53, 179.72, 150.59, 149.04, 145.24, 169.28",589.53,9.078379269,31.50197606,27.83653633,Passed,105.5316198,,,,,,,,,,,,,,,,,,,,training,1,2,180,right,s,,,,,309.0468,309.2925,31.68696419,-3.078125,8.615631104,1,0,0,0.2456,fixationPoint,309.2926,309.391,309.3911,310.6417,31.68696419,9053.418339,545.4684549,s,1,1.2393,,310.6417,310.8446,,,,,,,,83,-123,-161,220,121,79,165,164,29,-124,118,-160,124,-171,68,69,-213,214,-28,128,-25,-161,-171,-64,-164,360,360,90,90,270,360,90,180,360,270,180,,,,,,,,,,,310.8447,310.845,,0,1,1,1,1,9,novel
,,999,12,xxx,F,18,2023-11-01_14h30.33.796,MouseEye_CC,2023.2.2,MacIntel,60.0024001,1.131677292,,,2560,1440,52.010000000000005,3.47,"135.45, 143.53, 179.72, 150.59, 149.04, 145.24, 169.28",589.53,9.078379269,31.50197606,27.83653633,Passed,105.5316198,,,,,,,,,,,,,,,,,,,,training,1,3,180,right,s,,,,,310.8468,310.9606,31.68696419,-3.078125,8.615631104,1,0,0,0.1125,fixationPoint,310.9608,311.058,311.0581,311.9601,31.68696419,9053.418339,545.4684549,s,1,0.8956,,311.9602,312.1591,,,,,,,,33,-116,66,164,29,172,166,172,76,-123,-161,-163,-69,-21,-172,120,-120,162,-65,210,-74,-166,163,-75,222,270,360,180,180,90,360,180,180,360,270,270,,,,,,,,,,,312.1592,312.1594,,0,2,2,2,1,3,repeated
,,999,12,xxx,F,18,2023-11-01_14h30.33.796,MouseEye_CC,2023.2.2,MacIntel,60.0024001,1.131677292,,,2560,1440,52.010000000000005,3.47,"135.45, 143.53, 179.72, 150.59, 149.04, 145.24, 169.28",589.53,9.078379269,31.50197606,27.83653633,Passed,105.5316198,,,,,,,,,,,,,,,,,,,,training,1,4,0,left,a,,,,,312.1599,312.1758,31.68696419,-3.078125,8.615631104,1,0,0,0.0155,fixationPoint,312.1758,312.2756,312.2757,313.3116,31.68696419,9053.418339,545.4684549,a,1,1.031,,313.3117,313.5089,,,,,,,,69,162,-65,218,74,172,76,121,68,-160,124,-124,118,-209,25,-28,-70,-120,-32,-123,-161,114,-68,67,-164,180,180,270,270,90,90,90,180,90,360,360,,,,,,,,,,,313.5091,313.5093,,0,3,3,3,1,8,repeated
,,999,12,xxx,F,18,2023-11-01_14h30.33.796,MouseEye_CC,2023.2.2,MacIntel,60.0024001,1.131677292,,,2560,1440,52.010000000000005,3.47,"135.45, 143.53, 179.72, 150.59, 149.04, 145.24, 169.28",589.53,9.078379269,31.50197606,27.83653633,Passed,105.5316198,,,,,,,,,,,,,,,,,,,,training,1,5,180,right,s,,,,,313.51,313.5275,31.68696419,-3.078125,8.615631104,1,0,0,0.0173,fixationPoint,313.532,313.6277,313.6278,314.392,31.68696419,9053.418339,545.4684549,s,1,0.7515,,314.3921,314.5931,,,,,,,,63,-124,-64,118,16,113,168,121,68,-160,124,-209,25,-32,76,64,-80,116,-167,174,-216,-224,-25,-79,-222,180,360,180,90,180,90,360,270,360,90,90,,,,,,,,,,,314.5933,314.5934,,0,4,4,4,1,10,novel
,,999,12,xxx,F,18,2023-11-01_14h30.33.796,MouseEye_CC,2023.2.2,MacIntel,60.0024001,1.131677292,,,2560,1440,52.010000000000005,3.47,"135.45, 143.53, 179.72, 150.59, 149.04, 145.24, 169.28",589.53,9.078379269,31.50197606,27.83653633,Passed,105.5316198,,,,,,,,,,,,,,,,,,,,training,1,6,0,left,a,,,,,314.594,315.4933,31.68696419,-0.490600586,1.831207275,1,0,0,0.8989,fixationPoint,315.4933,315.5934,315.5935,317.1255,31.68696419,9053.418339,545.4684549,a,1,1.5241,,317.1255,317.324,,,,,,,,38,121,68,-75,222,-28,32,-171,68,-215,-162,-215,-64,-216,-128,21,-72,24,-166,210,-74,79,165,172,166,90,90,180,360,270,90,270,270,270,360,360,,,,,,,,,,,317.3242,317.3246,,0,5,5,5,1,2,repeated
,,999,12,xxx,F,18,2023-11-01_14h30.33.796,MouseEye_CC,2023.2.2,MacIntel,60.0024001,1.131677292,,,2560,1440,52.010000000000005,3.47,"135.45, 143.53, 179.72, 150.59, 149.04, 145.24, 169.28",589.53,9.078379269,31.50197606,27.83653633,Passed,105.5316198,,,,,,,,,,,,,,,,,,,,training,1,7,0,left,a,,,,,317.3253,317.7238,31.68696419,4.265625,-1.481292725,1,0,0,0.3983,fixationPoint,317.724,317.8321,317.8321,319.9443,31.68696419,9053.418339,545.4684549,a,1,2.0954,,319.9444,320.1446,,,,,,,,30,220,121,-18,114,-169,16,-20,165,-123,-161,-114,-214,-215,-64,162,-65,210,-74,26,-209,172,76,172,166,90,270,270,270,90,180,90,360,360,180,360,,,,,,,,,,,320.1446,320.1453,,0,6,6,6,1,14,novel
,,999,12,xxx,F,18,2023-11-01_14h30.33.796,MouseEye_CC,2023.2.2,MacIntel,60.0024001,1.131677292,,,2560,1440,52.010000000000005,3.47,"135.45, 143.53, 179.72, 150.59, 149.04, 145.24, 169.28",589.53,9.078379269,31.50197606,27.83653633,Passed,105.5316198,,,,,,,,,,,,,,,,,,,,training,1,8,180,right,s,,,,,320.1463,320.3248,31.68696419,4.265625,-1.481292725,1,0,0,0.1776,fixationPoint,320.3249,320.4325,320.4326,324.1934,31.68696419,9053.418339,545.4684549,s,1,3.7545,,324.1934,324.3926,,,,,,,,32,-171,68,27,67,79,165,220,121,-69,-24,-114,-214,-64,-164,162,-65,174,-216,21,-72,-170,218,-216,126,180,180,90,270,180,270,90,360,360,90,180,,,,,,,,,,,324.3926,324.3937,,0,7,7,7,1,16,novel
,,999,12,xxx,F,18,2023-11-01_14h30.33.796,MouseEye_CC,2023.2.2,MacIntel,60.0024001,1.131677292,,,2560,1440,52.010000000000005,3.47,"135.45, 143.53, 179.72, 150.59, 149.04, 145.24, 169.28",589.53,9.078379269,31.50197606,27.83653633,Passed,105.5316198,,,,,,,,,,,,,,,,,,,,training,1,9,180,right,s,,,,,324.3961,324.4126,31.68696419,4.265625,-1.481292725,1,0,0,0.0163,fixationPoint,324.4126,324.5095,324.5095,326.0249,31.68696419,9053.418339,545.4684549,s,1,1.4982,,326.025,326.2213,,,,,,,,68,114,-68,22,114,118,16,127,120,-28,32,-170,218,-209,25,-215,-162,-123,-161,-163,-69,210,-74,171,-24,270,360,180,180,270,180,90,90,90,270,360,,,,,,,,,,,326.2213,326.2215,,0,8,8,8,1,11,novel
,,999,12,xxx,F,18,2023-11-01_14h30.33.796,MouseEye_CC,2023.2.2,MacIntel,60.0024001,1.131677292,,,2560,1440,52.010000000000005,3.47,"135.45, 143.53, 179.72, 150.59, 149.04, 145.24, 169.28",589.53,9.078379269,31.50197606,27.83653633,Passed,105.5316198,,,,,,,,,,,,,,,,,,,,training,1,10,0,left,a,,,,,326.2218,326.5103,31.68696419,4.265625,-1.481292725,1,0,0,0.2881,fixationPoint,326.5103,326.611,326.6111,328.1929,31.68696419,9053.418339,545.4684549,a,1,1.5712,,328.1929,328.3915,,,,,,,,49,164,29,-18,114,-166,163,-32,76,-32,-121,-64,-164,-70,-73,224,-223,26,-20,78,-16,114,208,220,121,180,90,270,90,270,360,90,270,180,270,270,,,,,,,,,,,328.3916,328.3919,,0,9,9,9,1,13,novel
,,999,12,xxx,F,18,2023-11-01_14h30.33.796,MouseEye_CC,2023.2.2,MacIntel,60.0024001,1.131677292,,,2560,1440,52.010000000000005,3.47,"135.45, 143.53, 179.72, 150.59, 149.04, 145.24, 169.28",589.53,9.078379269,31.50197606,27.83653633,Passed,105.5316198,,,,,,,,,,,,,,,,,,,,training,1,11,0,left,a,,,,,328.3928,328.6333,31.68696419,4.265625,-1.481292725,1,0,0,0.2402,fixationPoint,328.6334,328.7237,328.7238,331.8589,31.68696419,9053.418339,545.4684549,a,1,3.1227,,331.859,332.0594,,,,,,,,42,-169,16,72,114,113,168,27,67,-215,-64,-216,-220,-215,-162,214,-28,114,-68,116,-167,-116,66,-124,118,270,270,180,360,360,90,270,360,360,180,180,,,,,,,,,,,332.0595,332.0597,,0,10,10,10,1,4,repeated
,,999,12,xxx,F,18,2023-11-01_14h30.33.796,MouseEye_CC,2023.2.2,MacIntel,60.0024001,1.131677292,,,2560,1440,52.010000000000005,3.47,"135.45, 143.53, 179.72, 150.59, 149.04, 145.24, 169.28",589.53,9.078379269,31.50197606,27.83653633,Passed,105.5316198,,,,,,,,,,,,,,,,,,,,training,1,12,180,right,s,,,,,332.0601,332.2933,31.68696419,4.265625,-1.481292725,1,0,0,0.2329,fixationPoint,332.2933,332.3931,332.3931,334.053,31.68696419,9053.418339,545.4684549,s,1,1.6539,,334.0531,334.2435,,,,,,,,71,-216,-128,164,29,22,28,16,173,-73,160,-169,16,-160,124,214,-28,174,-216,219,-168,-161,-171,-69,-24,270,180,180,360,90,180,90,270,270,270,270,,,,,,,,,,,334.2436,334.2442,,0,11,11,11,1,6,repeated
,,999,12,xxx,F,18,2023-11-01_14h30.33.796,MouseEye_CC,2023.2.2,MacIntel,60.0024001,1.131677292,,,2560,1440,52.010000000000005,3.47,"135.45, 143.53, 179.72, 150.59, 149.04, 145.24, 169.28",589.53,9.078379269,31.50197606,27.83653633,Passed,105.5316198,,,,,,,,,,,,,,,,,,,,training,1,13,0,left,a,,,,,334.2446,334.4755,31.68696419,4.265625,-1.481292725,1,0,0,0.2309,fixationPoint,334.4756,334.5765,334.5765,335.3089,31.68696419,9053.418339,545.4684549,a,1,0.7201,,335.3089,335.5084,,,,,,,,52,-163,-20,27,67,215,164,164,29,-160,124,-212,70,-171,68,169,-117,80,-115,116,-167,-163,-69,-216,-128,180,270,90,360,180,270,360,360,90,270,360,,,,,,,,,,,335.5086,335.5088,,0,12,12,12,1,5,repeated
,,999,12,xxx,F,18,2023-11-01_14h30.33.796,MouseEye_CC,2023.2.2,MacIntel,60.0024001,1.131677292,,,2560,1440,52.010000000000005,3.47,"135.45, 143.53, 179.72, 150.59, 149.04, 145.24, 169.28",589.53,9.078379269,31.50197606,27.83653633,Passed,105.5316198,,,,,,,,,,,,,,,,,,,,training,1,14,180,right,s,,,,,335.5099,335.6274,31.68696419,4.265625,-1.481292725,1,0,0,0.1171,fixationPoint,335.6275,335.724,335.7241,337.7926,31.68696419,9053.418339,545.4684549,s,1,2.0551,,337.7926,337.9927,,,,,,,,78,120,-120,72,114,79,165,172,76,-68,21,-212,70,-116,214,-69,-24,-168,-124,-163,-69,174,-216,69,-213,270,360,270,360,180,360,180,180,360,360,270,,,,,,,,,,,337.9928,337.9931,,0,13,13,13,1,7,repeated
,,999,12,xxx,F,18,2023-11-01_14h30.33.796,MouseEye_CC,2023.2.2,MacIntel,60.0024001,1.131677292,,,2560,1440,52.010000000000005,3.47,"135.45, 143.53, 179.72, 150.59, 149.04, 145.24, 169.28",589.53,9.078379269,31.50197606,27.83653633,Passed,105.5316198,,,,,,,,,,,,,,,,,,,,training,1,15,180,right,s,,,,,337.995,338.0938,31.68696419,4.265625,-1.481292725,1,0,0,0.0986,fixationPoint,338.0939,338.1914,338.1914,340.7826,31.68696419,9053.418339,545.4684549,s,1,2.5857,,340.7827,340.9747,,,,,,,,23,-124,118,22,28,17,212,118,16,-163,-20,-163,-69,-29,-210,69,-213,26,-209,67,-164,-80,79,-32,76,180,270,180,90,90,360,90,90,270,270,90,,,,,,,,,,,340.9748,340.9751,,0,14,14,14,1,15,novel