InstrStartPage.started,InstrStartPage.stopped,participant,designid,prolificid,Gender,Age,date,expName,psychopyVersion,OS,frameRate,ratio_monitor2CRT,VirtualChinrest.started,VirtualChinrest.stopped,xRes,yRes,viewingdistance_cm,pixeldensity_px2mm,BallPos,squarePos,mm2degree,px2degree,CRT_px2degree,PassVirtualChinrest,foveaRadius_inPixel,InstrRedo.started,InstrRedo.stopped,VirtualChinrest_Redo.started,VirtualChinrest_Redo.stopped,Instruction1.started,Instruction1.stopped,keyPractice.started,keyPractice.stopped,key_keyprac.keys,key_keyprac.corr,key_keyprac.rt,key_keyprac.duration,keyPracFeedback.started,keyPracFeedback.stopped,keyPracLoop.thisRepN,keyPracLoop.thisTrialN,keyPracLoop.thisN,keyPracLoop.thisIndex,keyPracLoop.ran,phase,block,trial,targOrientdeg,targOrient,corrAnswer,Instruction2.started,Instruction2.stopped,Instruction3.started,Instruction3.stopped,fixation.started,fixation.stopped,fixationSize,mouseintial.x,mouseintial.y,mouseintial.leftButton,mouseintial.midButton,mouseintial.rightButton,mouseintial.time,mouseintial.clicked_name,greenFixation.started,greenFixation.stopped,trial.started,trial.stopped,letterSize,apertureSize,searchsize,key_respMain.keys,key_respMain.corr,key_respMain.rt,key_respMain.duration,trialFeedback.started,trialFeedback.stopped,trialsPractice.thisRepN,trialsPractice.thisTrialN,trialsPractice.thisN,trialsPractice.thisIndex,trialsPractice.ran,targetQuad,Tcondition,targcell,tlocx,tlocy,d1x,d1y,d2x,d2y,d3x,d3y,d4x,d4y,d5x,d5y,d6x,d6y,d7x,d7y,d8x,d8y,d9x,d9y,d10x,d10y,d11x,d11y,d1Orient,d2Orient,d3Orient,d4Orient,d5Orient,d6Orient,d7Orient,d8Orient,d9Orient,d10Orient,d11Orient,CheckInstr.started,CheckInstr.stopped,key_checkInstr.keys,key_checkInstr.corr,key_checkInstr.rt,key_checkInstr.duration,CheckInstr_FB.started,CheckInstr_FB.stopped,Instruction_MainExp.started,Instruction_MainExp.stopped,TakeABreak.started,TakeABreak.stopped,key_respBreak.keys,trials.thisRepN,trials.thisTrialN,trials.thisN,trials.thisIndex,trials.ran,configurationNumber,CCCondition,key_respBreak.rt,key_respBreak.duration,displayTestingPhase.started,displayTestingPhase.stopped,key_respTesting.keys,key_respTesting.corr,key_respTesting.rt,key_respTesting.duration,TakeABreak2.started,TakeABreak2.stopped,key_RespBreak.keys,Testingtrials.thisRepN,Testingtrials.thisTrialN,Testingtrials.thisN,Testingtrials.thisIndex,Testingtrials.ran,key_RespBreak.rt,key_RespBreak.duration,RecogQuestion.started,RecogQuestion.stopped,key_AnswerQues.keys,key_AnswerQues.rt,key_AnswerQues.duration,Disclose.started,Disclose.stopped,InstrRT.started,InstrRT.stopped,fixation_RT.started,fixation_RT.stopped,mouseInitial.x,mouseInitial.y,mouseInitial.leftButton,mouseInitial.midButton,mouseInitial.rightButton,mouseInitial.time,mouseInitial.clicked_name,displayRT.started,displayRT.stopped,key_respRT.keys,key_respRT.corr,key_respRT.rt,key_respRT.duration,RTtrials.thisRepN,RTtrials.thisTrialN,RTtrials.thisN,RTtrials.thisIndex,RTtrials.ran,EndOfExperiment.started,EndOfExperiment.stopped
0.0001,12.8447,999,12,xxx,F,18,2023-11-01_14h39.51.717,MouseEye_CC,2023.2.2,MacIntel,60.0024001,1,,,,,,,,,,,,,,,,,,,,,,,,,,,,,,,,,,,,,,,,,,,,,,,,,,,,,,,,,,,,,,,,,,,,,,,,,,,,,,,,,,,,,,,,,,,,,,,,,,,,,,,,,,,,,,,,,,,,,,,,,,,,,,,,,,,,,,,,,,,,,,,,,,,,,,,,,,,,,,,,,,,,,,,,,,,,,,,,,
,,999,12,xxx,F,18,2023-11-01_14h39.51.717,MouseEye_CC,2023.2.2,MacIntel,60.0024001,1.123583004,12.8449,64.4659,2560,1440,51.638,3.47,"204.23, 165.85, 163.76, 158.73, 161.35, 145.4, 147.06",589.53,9.013446428,31.2766591,27.83653633,Passed,104.776808,,,,,,,,,,,,,,,,,,,,,,,,,,,,,,,,,,,,,,,,,,,,,,,,,,,,,,,,,,,,,,,,,,,,,,,,,,,,,,,,,,,,,,,,,,,,,,,,,,,,,,,,,,,,,,,,,,,,,,,,,,,,,,,,,,,,,,,,,,,,,,,,,,,,,,,,,,,,,,,,,,,,
,,999,12,xxx,F,18,2023-11-01_14h39.51.717,MouseEye_CC,2023.2.2,MacIntel,60.0024001,1.123583004,,,2560,1440,51.638,3.47,"204.23, 165.85, 163.76, 158.73, 161.35, 145.4, 147.06",589.53,9.013446428,31.2766591,27.83653633,Passed,104.776808,64.4667,64.4679,,,,,,,,,,,,,,,,,,,,,,,,,,,,,,,,,,,,,,,,,,,,,,,,,,,,,,,,,,,,,,,,,,,,,,,,,,,,,,,,,,,,,,,,,,,,,,,,,,,,,,,,,,,,,,,,,,,,,,,,,,,,,,,,,,,,,,,,,,,,,,,,,,,,,,,,,,,,,,,,,,
,,999,12,xxx,F,18,2023-11-01_14h39.51.717,MouseEye_CC,2023.2.2,MacIntel,60.0024001,1.178785182,,,2560,1440,54.175,3.47,"204.23, 165.85, 163.76, 158.73, 161.35, 145.4, 147.06",589.53,9.456281425,32.81329654,27.83653633,Passed,109.9245434,,,64.4679,117.669,,,,,,,,,,,,,,,,,,,,,,,,,,,,,,,,,,,,,,,,,,,,,,,,,,,,,,,,,,,,,,,,,,,,,,,,,,,,,,,,,,,,,,,,,,,,,,,,,,,,,,,,,,,,,,,,,,,,,,,,,,,,,,,,,,,,,,,,,,,,,,,,,,,,,,,,,,,,,,,,
,,999,12,xxx,F,18,2023-11-01_14h39.51.717,MouseEye_CC,2023.2.2,MacIntel,60.0024001,1.178785182,,,2560,1440,54.175,3.47,"204.23, 165.85, 163.76, 158.73, 161.35, 145.4, 147.06",589.53,9.456281425,32.81329654,27.83653633,Passed,109.9245434,,,,,117.669,120.9297,,,,,,,,,,,,,,,,,,,,,,,,,,,,,,,,,,,,,,,,,,,,,,,,,,,,,,,,,,,,,,,,,,,,,,,,,,,,,,,,,,,,,,,,,,,,,,,,,,,,,,,,,,,,,,,,,,,,,,,,,,,,,,,,,,,,,,,,,,,,,,,,,,,,,,,,,,,,,,
,,999,12,xxx,F,18,2023-11-01_14h39.51.717,MouseEye_CC,2023.2.2,MacIntel,60.0024001,1.178785182,,,2560,1440,54.175,3.47,"204.23, 165.85, 163.76, 158.73, 161.35, 145.4, 147.06",589.53,9.456281425,32.81329654,27.83653633,Passed,109.9245434,,,,,,,120.9376,122.0471,a,1,0.5838,,122.0472,122.5459,0,0,0,0,1,practice,1,1,0,left,a,,,,,,,,,,,,,,,,,,,,,,,,,,,,,,,,,,,,,,,,,,,,,,,,,,,,,,,,,,,,,,,,,,,,,,,,,,,,,,,,,,,,,,,,,,,,,,,,,,,,,,,,,,,,,,,,,,,,,,,,,,,,,,,,,,,,,,,,,,,
,,999,12,xxx,F,18,2023-11-01_14h39.51.717,MouseEye_CC,2023.2.2,MacIntel,60.0024001,1.178785182,,,2560,1440,54.175,3.47,"204.23, 165.85, 163.76, 158.73, 161.35, 145.4, 147.06",589.53,9.456281425,32.81329654,27.83653633,Passed,109.9245434,,,,,,,122.5467,123.7803,a,1,0.7177,,123.7804,124.2802,0,1,1,1,1,practice,1,2,0,left,a,,,,,,,,,,,,,,,,,,,,,,,,,,,,,,,,,,,,,,,,,,,,,,,,,,,,,,,,,,,,,,,,,,,,,,,,,,,,,,,,,,,,,,,,,,,,,,,,,,,,,,,,,,,,,,,,,,,,,,,,,,,,,,,,,,,,,,,,,,,
,,999,12,xxx,F,18,2023-11-01_14h39.51.717,MouseEye_CC,2023.2.2,MacIntel,60.0024001,1.178785182,,,2560,1440,54.175,3.47,"204.23, 165.85, 163.76, 158.73, 161.35, 145.4, 147.06",589.53,9.456281425,32.81329654,27.83653633,Passed,109.9245434,,,,,,,124.2808,125.4284,a,1,0.6216,,125.4286,125.9294,0,2,2,2,1,practice,1,3,0,left,a,,,,,,,,,,,,,,,,,,,,,,,,,,,,,,,,,,,,,,,,,,,,,,,,,,,,,,,,,,,,,,,,,,,,,,,,,,,,,,,,,,,,,,,,,,,,,,,,,,,,,,,,,,,,,,,,,,,,,,,,,,,,,,,,,,,,,,,,,,,
,,999,12,xxx,F,18,2023-11-01_14h39.51.717,MouseEye_CC,2023.2.2,MacIntel,60.0024001,1.178785182,,,2560,1440,54.175,3.47,"204.23, 165.85, 163.76, 158.73, 161.35, 145.4, 147.06",589.53,9.456281425,32.81329654,27.83653633,Passed,109.9245434,,,,,,,125.9298,126.9635,s,1,0.4995,,126.9635,127.4629,0,3,3,3,1,practice,1,4,180,right,s,,,,,,,,,,,,,,,,,,,,,,,,,,,,,,,,,,,,,,,,,,,,,,,,,,,,,,,,,,,,,,,,,,,,,,,,,,,,,,,,,,,,,,,,,,,,,,,,,,,,,,,,,,,,,,,,,,,,,,,,,,,,,,,,,,,,,,,,,,,
,,999,12,xxx,F,18,2023-11-01_14h39.51.717,MouseEye_CC,2023.2.2,MacIntel,60.0024001,1.178785182,,,2560,1440,54.175,3.47,"204.23, 165.85, 163.76, 158.73, 161.35, 145.4, 147.06",589.53,9.456281425,32.81329654,27.83653633,Passed,109.9245434,,,,,,,127.4634,128.4288,s,1,0.4421,,128.4289,128.9298,0,4,4,4,1,practice,1,5,180,right,s,,,,,,,,,,,,,,,,,,,,,,,,,,,,,,,,,,,,,,,,,,,,,,,,,,,,,,,,,,,,,,,,,,,,,,,,,,,,,,,,,,,,,,,,,,,,,,,,,,,,,,,,,,,,,,,,,,,,,,,,,,,,,,,,,,,,,,,,,,,
,,999,12,xxx,F,18,2023-11-01_14h39.51.717,MouseEye_CC,2023.2.2,MacIntel,60.0024001,1.178785182,,,2560,1440,54.175,3.47,"204.23, 165.85, 163.76, 158.73, 161.35, 145.4, 147.06",589.53,9.456281425,32.81329654,27.83653633,Passed,109.9245434,,,,,,,128.9302,129.9971,a,1,0.5405,,129.9971,130.4967,0,5,5,5,1,practice,1,6,0,left,a,,,,,,,,,,,,,,,,,,,,,,,,,,,,,,,,,,,,,,,,,,,,,,,,,,,,,,,,,,,,,,,,,,,,,,,,,,,,,,,,,,,,,,,,,,,,,,,,,,,,,,,,,,,,,,,,,,,,,,,,,,,,,,,,,,,,,,,,,,,
,,999,12,xxx,F,18,2023-11-01_14h39.51.717,MouseEye_CC,2023.2.2,MacIntel,60.0024001,1.178785182,,,2560,1440,54.175,3.47,"204.23, 165.85, 163.76, 158.73, 161.35, 145.4, 147.06",589.53,9.456281425,32.81329654,27.83653633,Passed,109.9245434,,,,,,,,,,,,,,,,,,,,,,,,,,130.4984,132.7343,,,,,,,,,,,,,,,,,,,,,,,,,,,,,,,,,,,,,,,,,,,,,,,,,,,,,,,,,,,,,,,,,,,,,,,,,,,,,,,,,,,,,,,,,,,,,,,,,,,,,,,,,,,,,,,,,,,,,,,,,,,,,,,,,,,,,,,,,
,,999,12,xxx,F,18,2023-11-01_14h39.51.717,MouseEye_CC,2023.2.2,MacIntel,60.0024001,1.178785182,,,2560,1440,54.175,3.47,"204.23, 165.85, 163.76, 158.73, 161.35, 145.4, 147.06",589.53,9.456281425,32.81329654,27.83653633,Passed,109.9245434,,,,,,,,,,,,,,,,,,,,,,,,,,,,132.7345,136.4478,,,,,,,,,,,,,,,,,,,,,,,,,,,,,,,,,,,,,,,,,,,,,,,,,,,,,,,,,,,,,,,,,,,,,,,,,,,,,,,,,,,,,,,,,,,,,,,,,,,,,,,,,,,,,,,,,,,,,,,,,,,,,,,,,,,,,,,
,,999,12,xxx,F,18,2023-11-01_14h39.51.717,MouseEye_CC,2023.2.2,MacIntel,60.0024001,1.178785182,,,2560,1440,54.175,3.47,"204.23, 165.85, 163.76, 158.73, 161.35, 145.4, 147.06",589.53,9.456281425,32.81329654,27.83653633,Passed,109.9245434,,,,,,,,,,,,,,,,,,,,practice,0,1,0,left,a,,,,,136.4616,137.7797,33.00598509,0.400024414,6.265625,1,0,0,1.318,fixationPoint,137.7798,137.882,137.8822,139.2122,33.00598509,9430.281456,568.1744577,a,1,1.3071,,139.2122,139.4138,0,0,0,0,1,4,sparse,90,217,-164,68,123,222,26,214,216,-218,159,-120,223,-110,82,-115,-130,-224,-120,-68,-219,79,-175,19,-128,90,270,360,90,270,270,180,90,90,90,270,,,,,,,,,,,,,,,,,,,,,,,,,,,,,,,,,,,,,,,,,,,,,,,,,,,,,,,,,,,,,,,,,,,,,
,,999,12,xxx,F,18,2023-11-01_14h39.51.717,MouseEye_CC,2023.2.2,MacIntel,60.0024001,1.178785182,,,2560,1440,54.175,3.47,"204.23, 165.85, 163.76, 158.73, 161.35, 145.4, 147.06",589.53,9.456281425,32.81329654,27.83653633,Passed,109.9245434,,,,,,,,,,,,,,,,,,,,practice,0,2,0,left,a,,,,,139.4149,139.5635,33.00598509,0.400024414,6.443756104,1,0,0,0.1481,fixationPoint,139.5636,139.6624,139.6624,140.5971,33.00598509,9430.281456,568.1744577,a,1,0.919,,140.5971,140.8064,0,1,1,1,1,1,rich,39,169,66,-126,125,-169,169,-130,19,-169,-116,-125,-167,-224,-216,218,-129,171,-218,18,-208,166,26,17,170,180,90,360,270,90,90,90,270,180,180,270,,,,,,,,,,,,,,,,,,,,,,,,,,,,,,,,,,,,,,,,,,,,,,,,,,,,,,,,,,,,,,,,,,,,,
,,999,12,xxx,F,18,2023-11-01_14h39.51.717,MouseEye_CC,2023.2.2,MacIntel,60.0024001,1.178785182,,,2560,1440,54.175,3.47,"204.23, 165.85, 163.76, 158.73, 161.35, 145.4, 147.06",589.53,9.456281425,32.81329654,27.83653633,Passed,109.9245434,,,,,,,,,,,,,,,,,,,,practice,0,3,0,left,a,,,,,140.8066,141.8974,33.00598509,0.178161621,1.362457275,1,0,0,1.0906,fixationPoint,141.8975,141.9969,141.9971,143.1976,33.00598509,9430.281456,568.1744577,a,1,1.188,,143.1976,143.3972,0,2,2,2,1,2,sparse,22,-162,126,222,26,17,170,126,172,-25,-117,-175,-206,-224,-216,116,-19,130,-174,217,-164,-218,159,-21,162,90,90,180,360,360,270,360,360,360,360,180,,,,,,,,,,,,,,,,,,,,,,,,,,,,,,,,,,,,,,,,,,,,,,,,,,,,,,,,,,,,,,,,,,,,,
,,999,12,xxx,F,18,2023-11-01_14h39.51.717,MouseEye_CC,2023.2.2,MacIntel,60.0024001,1.178785182,,,2560,1440,54.175,3.47,"204.23, 165.85, 163.76, 158.73, 161.35, 145.4, 147.06",589.53,9.456281425,32.81329654,27.83653633,Passed,109.9245434,,,,,,,,,,,,,,,,,,,,practice,0,4,180,right,s,,,,,143.3977,143.9287,33.00598509,0.178161621,1.362457275,1,0,0,0.5308,fixationPoint,143.9287,144.0301,144.0302,145.2451,33.00598509,9430.281456,568.1744577,s,1,1.2021,,145.2451,145.4474,0,3,3,3,1,4,sparse,76,19,-128,159,121,214,216,219,165,-218,159,-162,126,-219,119,-169,-116,-111,-31,-175,-206,18,-208,81,-114,90,270,180,180,270,180,360,360,360,270,360,,,,,,,,,,,,,,,,,,,,,,,,,,,,,,,,,,,,,,,,,,,,,,,,,,,,,,,,,,,,,,,,,,,,,
,,999,12,xxx,F,18,2023-11-01_14h39.51.717,MouseEye_CC,2023.2.2,MacIntel,60.0024001,1.178785182,,,2560,1440,54.175,3.47,"204.23, 165.85, 163.76, 158.73, 161.35, 145.4, 147.06",589.53,9.456281425,32.81329654,27.83653633,Passed,109.9245434,,,,,,,,,,,,,,,,,,,,practice,0,5,180,right,s,,,,,145.4498,145.4683,33.00598509,0.178161621,1.362457275,1,0,0,0.0177,fixationPoint,145.4685,145.5621,145.5622,148.262,33.00598509,9430.281456,568.1744577,s,1,2.6867,,148.262,148.4641,0,4,4,4,1,3,sparse,85,-19,-173,219,165,68,123,214,216,-160,68,-64,120,-226,34,162,-21,224,-216,167,-163,-167,-74,-224,-216,360,360,360,90,180,270,90,360,270,270,360,,,,,,,,,,,,,,,,,,,,,,,,,,,,,,,,,,,,,,,,,,,,,,,,,,,,,,,,,,,,,,,,,,,,,
,,999,12,xxx,F,18,2023-11-01_14h39.51.717,MouseEye_CC,2023.2.2,MacIntel,60.0024001,1.178785182,,,2560,1440,54.175,3.47,"204.23, 165.85, 163.76, 158.73, 161.35, 145.4, 147.06",589.53,9.456281425,32.81329654,27.83653633,Passed,109.9245434,,,,,,,,,,,,,,,,,,,,practice,0,6,180,right,s,,,,,148.4643,148.4975,33.00598509,0.178161621,1.362457275,1,0,0,0.0331,fixationPoint,148.4975,148.5975,148.5976,149.8473,33.00598509,9430.281456,568.1744577,s,1,1.228,,149.8473,150.047,0,5,5,5,1,3,sparse,95,-21,-224,126,172,219,165,166,26,-166,207,-223,206,-219,119,169,-75,18,-208,224,-216,-72,-121,-115,-130,180,180,360,180,360,180,270,180,90,180,360,,,,,,,,,,,,,,,,,,,,,,,,,,,,,,,,,,,,,,,,,,,,,,,,,,,,,,,,,,,,,,,,,,,,,
,,999,12,xxx,F,18,2023-11-01_14h39.51.717,MouseEye_CC,2023.2.2,MacIntel,60.0024001,1.178785182,,,2560,1440,54.175,3.47,"204.23, 165.85, 163.76, 158.73, 161.35, 145.4, 147.06",589.53,9.456281425,32.81329654,27.83653633,Passed,109.9245434,,,,,,,,,,,,,,,,,,,,practice,0,7,0,left,a,,,,,150.0478,150.8797,33.00598509,0.178161621,1.362457275,1,0,0,0.8318,fixationPoint,150.8798,150.9803,150.9805,153.1284,33.00598509,9430.281456,568.1744577,a,1,2.1413,,153.1285,153.3296,0,6,6,6,1,1,rich,7,62,223,-166,207,-226,34,-162,126,-169,-116,-168,-160,-161,-27,15,-162,162,-21,79,-175,219,165,219,129,180,180,360,180,270,360,180,360,270,180,360,,,,,,,,,,,,,,,,,,,,,,,,,,,,,,,,,,,,,,,,,,,,,,,,,,,,,,,,,,,,,,,,,,,,,
,,999,12,xxx,F,18,2023-11-01_14h39.51.717,MouseEye_CC,2023.2.2,MacIntel,60.0024001,1.178785182,,,2560,1440,54.175,3.47,"204.23, 165.85, 163.76, 158.73, 161.35, 145.4, 147.06",589.53,9.456281425,32.81329654,27.83653633,Passed,109.9245434,,,,,,,,,,,,,,,,,,,,practice,0,8,180,right,s,,,,,153.3308,153.3451,33.00598509,0.178161621,1.362457275,1,0,0,0.0141,fixationPoint,153.3452,153.4465,153.4466,154.4293,33.00598509,9430.281456,568.1744577,s,1,0.9704,,154.4294,154.6313,0,7,7,7,1,2,sparse,24,-64,120,18,215,126,172,33,121,-206,-170,-64,-162,-218,-78,130,-174,211,-74,168,-130,-164,32,-21,162,90,180,270,360,180,90,180,180,180,360,270,,,,,,,,,,,,,,,,,,,,,,,,,,,,,,,,,,,,,,,,,,,,,,,,,,,,,,,,,,,,,,,,,,,,,
,,999,12,xxx,F,18,2023-11-01_14h39.51.717,MouseEye_CC,2023.2.2,MacIntel,60.0024001,1.178785182,,,2560,1440,54.175,3.47,"204.23, 165.85, 163.76, 158.73, 161.35, 145.4, 147.06",589.53,9.456281425,32.81329654,27.83653633,Passed,109.9245434,,,,,,,,,,,,,,,,,,,,practice,0,9,180,right,s,,,,,154.6326,155.1962,33.00598509,0.178161621,1.362457275,1,0,0,0.5634,fixationPoint,155.1963,155.2965,155.2967,156.9787,33.00598509,9430.281456,568.1744577,s,1,1.6754,,156.9787,157.1784,0,8,8,8,1,3,sparse,85,-19,-173,127,30,62,223,217,67,-110,82,-21,162,-80,218,167,-163,126,-79,130,-174,-125,-167,-68,-219,360,360,360,180,360,360,180,270,90,360,180,,,,,,,,,,,,,,,,,,,,,,,,,,,,,,,,,,,,,,,,,,,,,,,,,,,,,,,,,,,,,,,,,,,,,
,,999,12,xxx,F,18,2023-11-01_14h39.51.717,MouseEye_CC,2023.2.2,MacIntel,60.0024001,1.178785182,,,2560,1440,54.175,3.47,"204.23, 165.85, 163.76, 158.73, 161.35, 145.4, 147.06",589.53,9.456281425,32.81329654,27.83653633,Passed,109.9245434,,,,,,,,,,,,,,,,,,,,practice,0,10,180,right,s,,,,,157.1786,157.7953,33.00598509,0.178161621,1.362457275,1,0,0,0.6166,fixationPoint,157.7954,157.8956,157.8957,159.6467,33.00598509,9430.281456,568.1744577,s,1,1.7438,,159.6468,159.8471,0,9,9,9,1,1,rich,9,160,209,-166,207,-226,34,-120,223,-224,-120,-118,-217,-218,-78,112,-209,126,-113,169,-75,178,160,110,129,180,90,90,270,360,270,360,180,360,180,360,,,,,,,,,,,,,,,,,,,,,,,,,,,,,,,,,,,,,,,,,,,,,,,,,,,,,,,,,,,,,,,,,,,,,
,,999,12,xxx,F,18,2023-11-01_14h39.51.717,MouseEye_CC,2023.2.2,MacIntel,60.0024001,1.178785182,,,2560,1440,54.175,3.47,"204.23, 165.85, 163.76, 158.73, 161.35, 145.4, 147.06",589.53,9.456281425,32.81329654,27.83653633,Passed,109.9245434,,,,,,,,,,,,,,,,,,,,practice,0,11,180,right,s,,,,,159.8477,160.1304,33.00598509,0.178161621,1.362457275,1,0,0,0.2824,fixationPoint,160.1305,160.232,160.2322,161.7134,33.00598509,9430.281456,568.1744577,s,1,1.4703,,161.7135,161.9135,0,10,10,10,1,4,sparse,80,218,-129,62,223,159,121,110,129,-218,159,-223,206,-75,173,-169,-116,-118,-217,-125,-167,217,-164,169,-75,360,270,360,180,360,180,180,270,360,180,90,,,,,,,,,,,,,,,,,,,,,,,,,,,,,,,,,,,,,,,,,,,,,,,,,,,,,,,,,,,,,,,,,,,,,
,,999,12,xxx,F,18,2023-11-01_14h39.51.717,MouseEye_CC,2023.2.2,MacIntel,60.0024001,1.178785182,,,2560,1440,54.175,3.47,"204.23, 165.85, 163.76, 158.73, 161.35, 145.4, 147.06",589.53,9.456281425,32.81329654,27.83653633,Passed,109.9245434,,,,,,,,,,,,,,,,,,,,practice,0,12,0,left,a,,,,,161.914,161.9647,33.00598509,0.178161621,1.362457275,1,0,0,0.0505,fixationPoint,161.9648,162.0661,162.0662,163.9618,33.00598509,9430.281456,568.1744577,a,1,1.8816,,163.962,164.1649,0,11,11,11,1,3,sparse,75,-25,-117,110,129,125,63,214,216,-164,32,-27,117,-126,125,171,-218,126,-113,167,-163,-21,-224,-212,-21,270,180,180,360,180,270,360,270,360,180,270,,,,,,,,,,,,,,,,,,,,,,,,,,,,,,,,,,,,,,,,,,,,,,,,,,,,,,,,,,,,,,,,,,,,,
,,999,12,xxx,F,18,2023-11-01_14h39.51.717,MouseEye_CC,2023.2.2,MacIntel,60.0024001,1.178785182,,,2560,1440,54.175,3.47,"204.23, 165.85, 163.76, 158.73, 161.35, 145.4, 147.06",589.53,9.456281425,32.81329654,27.83653633,Passed,109.9245434,,,,,,,,,,,,,,,,,,,,,,,,,,,,,,,,,,,,,,,,,,,,,,,,,,,,,,,,,,,,,,,,,,,,,,,,,,,,,,,,,,,,,,,,,,,,,,,,164.1664,166.4319,a,1,2.2574,,,,,,,,,,,,,,,,,,,,,,,,,,,,,,,,,,,,,,,,,,,,,,,,,,,,,,,,,,,,,,,,
,,999,12,xxx,F,18,2023-11-01_14h39.51.717,MouseEye_CC,2023.2.2,MacIntel,60.0024001,1.178785182,,,2560,1440,54.175,3.47,"204.23, 165.85, 163.76, 158.73, 161.35, 145.4, 147.06",589.53,9.456281425,32.81329654,27.83653633,Passed,109.9245434,,,,,,,,,,,,,,,,,,,,,,,,,,,,,,,,,,,,,,,,,,,,,,,,,,,,,,,,,,,,,,,,,,,,,,,,,,,,,,,,,,,,,,,,,,,,,,,,,,,,,,166.4322,168.5644,,,,,,,,,,,,,,,,,,,,,,,,,,,,,,,,,,,,,,,,,,,,,,,,,,,,,,,,,,,,,
,,999,12,xxx,F,18,2023-11-01_14h39.51.717,MouseEye_CC,2023.2.2,MacIntel,60.0024001,1.178785182,,,2560,1440,54.175,3.47,"204.23, 165.85, 163.76, 158.73, 161.35, 145.4, 147.06",589.53,9.456281425,32.81329654,27.83653633,Passed,109.9245434,,,,,,,,,,,,,,,,,,,,,,,,,,,,,,,,,,,,,,,,,,,,,,,,,,,,,,,,,,,,,,,,,,,,,,,,,,,,,,,,,,,,,,,,,,,,,,,,,,,,,,,,168.5665,169.7466,,,,,,,,,,,,,,,,,,,,,,,,,,,,,,,,,,,,,,,,,,,,,,,,,,,,,,,,,,,
,,999,12,xxx,F,18,2023-11-01_14h39.51.717,MouseEye_CC,2023.2.2,MacIntel,60.0024001,1.178785182,,,2560,1440,54.175,3.47,"204.23, 165.85, 163.76, 158.73, 161.35, 145.4, 147.06",589.53,9.456281425,32.81329654,27.83653633,Passed,109.9245434,,,,,,,,,,,,,,,,,,,,training,1,1,0,left,a,,,,,169.7877,170.8491,33.00598509,0.178161621,1.362457275,1,0,0,1.0613,fixationPoint,170.8492,170.9475,170.9475,173.6476,33.00598509,9430.281456,568.1744577,a,1,2.6858,,173.6478,173.8452,,,,,,,,18,113,168,-73,160,-116,66,-124,163,-120,-32,-114,-214,-32,-121,24,-166,169,-117,211,-128,164,29,17,212,270,360,270,270,180,360,90,270,270,180,90,,,,,,,,,,,173.8452,173.846,,0,0,0,0,1,1,repeated,,,,,,,,,,,,,,,,,,,,,,,,,,,,,,,,,,,,,,,,,,,,,,,,,
,,999,12,xxx,F,18,2023-11-01_14h39.51.717,MouseEye_CC,2023.2.2,MacIntel,60.0024001,1.178785182,,,2560,1440,54.175,3.47,"204.23, 165.85, 163.76, 158.73, 161.35, 145.4, 147.06",589.53,9.456281425,32.81329654,27.83653633,Passed,109.9245434,,,,,,,,,,,,,,,,,,,,training,1,2,180,right,s,,,,,173.8462,173.9323,33.00598509,0.178161621,1.362457275,1,0,0,0.086,fixationPoint,173.9324,174.0295,174.0295,175.6312,33.00598509,9430.281456,568.1744577,s,1,1.5857,,175.6312,175.8316,,,,,,,,83,-123,-161,220,121,79,165,164,29,-124,118,-160,124,-171,68,69,-213,214,-28,128,-25,-161,-171,-64,-164,360,360,90,90,270,360,90,180,360,270,180,,,,,,,,,,,175.8316,175.8317,,0,1,1,1,1,9,novel,,,,,,,,,,,,,,,,,,,,,,,,,,,,,,,,,,,,,,,,,,,,,,,,,
,,999,12,xxx,F,18,2023-11-01_14h39.51.717,MouseEye_CC,2023.2.2,MacIntel,60.0024001,1.178785182,,,2560,1440,54.175,3.47,"204.23, 165.85, 163.76, 158.73, 161.35, 145.4, 147.06",589.53,9.456281425,32.81329654,27.83653633,Passed,109.9245434,,,,,,,,,,,,,,,,,,,,training,1,3,180,right,s,,,,,175.8318,175.8639,33.00598509,0.178161621,1.362457275,1,0,0,0.032,fixationPoint,175.864,175.9643,175.9643,177.0472,33.00598509,9430.281456,568.1744577,s,1,1.0731,,177.0473,177.2461,,,,,,,,33,-116,66,164,29,172,166,172,76,-123,-161,-163,-69,-21,-172,120,-120,162,-65,210,-74,-166,163,-75,222,270,360,180,180,90,360,180,180,360,270,270,,,,,,,,,,,177.2462,177.247,,0,2,2,2,1,3,repeated,,,,,,,,,,,,,,,,,,,,,,,,,,,,,,,,,,,,,,,,,,,,,,,,,
,,999,12,xxx,F,18,2023-11-01_14h39.51.717,MouseEye_CC,2023.2.2,MacIntel,60.0024001,1.178785182,,,2560,1440,54.175,3.47,"204.23, 165.85, 163.76, 158.73, 161.35, 145.4, 147.06",589.53,9.456281425,32.81329654,27.83653633,Passed,109.9245434,,,,,,,,,,,,,,,,,,,,training,1,4,0,left,a,,,,,177.2476,177.2644,33.00598509,0.178161621,1.362457275,1,0,0,0.0166,fixationPoint,177.2656,177.3628,177.3629,178.5971,33.00598509,9430.281456,568.1744577,a,1,1.2261,,178.5972,178.7953,,,,,,,,69,162,-65,218,74,172,76,121,68,-160,124,-124,118,-209,25,-28,-70,-120,-32,-123,-161,114,-68,67,-164,180,180,270,270,90,90,90,180,90,360,360,,,,,,,,,,,178.7954,178.7955,,0,3,3,3,1,8,repeated,,,,,,,,,,,,,,,,,,,,,,,,,,,,,,,,,,,,,,,,,,,,,,,,,
,,999,12,xxx,F,18,2023-11-01_14h39.51.717,MouseEye_CC,2023.2.2,MacIntel,60.0024001,1.178785182,,,2560,1440,54.175,3.47,"204.23, 165.85, 163.76, 158.73, 161.35, 145.4, 147.06",589.53,9.456281425,32.81329654,27.83653633,Passed,109.9245434,,,,,,,,,,,,,,,,,,,,training,1,5,180,right,s,,,,,178.796,178.8159,33.00598509,0.178161621,1.362457275,1,0,0,0.0197,fixationPoint,178.8159,178.9128,178.9129,179.6621,33.00598509,9430.281456,568.1744577,s,1,0.7427,,179.6622,179.8633,,,,,,,,63,-124,-64,118,16,113,168,121,68,-160,124,-209,25,-32,76,64,-80,116,-167,174,-216,-224,-25,-79,-222,180,360,180,90,180,90,360,270,360,90,90,,,,,,,,,,,179.8634,179.8637,,0,4,4,4,1,10,novel,,,,,,,,,,,,,,,,,,,,,,,,,,,,,,,,,,,,,,,,,,,,,,,,,
,,999,12,xxx,F,18,2023-11-01_14h39.51.717,MouseEye_CC,2023.2.2,MacIntel,60.0024001,1.178785182,,,2560,1440,54.175,3.47,"204.23, 165.85, 163.76, 158.73, 161.35, 145.4, 147.06",589.53,9.456281425,32.81329654,27.83653633,Passed,109.9245434,,,,,,,,,,,,,,,,,,,,training,1,6,0,left,a,,,,,179.8663,180.5315,33.00598509,0.178161621,1.362457275,1,0,0,0.665,fixationPoint,180.5315,180.6287,180.6288,182.0975,33.00598509,9430.281456,568.1744577,a,1,1.4515,,182.0976,182.298,,,,,,,,38,121,68,-75,222,-28,32,-171,68,-215,-162,-215,-64,-216,-128,21,-72,24,-166,210,-74,79,165,172,166,90,90,180,360,270,90,270,270,270,360,360,,,,,,,,,,,182.2981,182.2984,,0,5,5,5,1,2,repeated,,,,,,,,,,,,,,,,,,,,,,,,,,,,,,,,,,,,,,,,,,,,,,,,,
,,999,12,xxx,F,18,2023-11-01_14h39.51.717,MouseEye_CC,2023.2.2,MacIntel,60.0024001,1.178785182,,,2560,1440,54.175,3.47,"204.23, 165.85, 163.76, 158.73, 161.35, 145.4, 147.06",589.53,9.456281425,32.81329654,27.83653633,Passed,109.9245434,,,,,,,,,,,,,,,,,,,,training,1,7,0,left,a,,,,,182.299,183.1471,33.00598509,0.178161621,1.362457275,1,0,0,0.8479,fixationPoint,183.1471,183.2469,183.247,185.7133,33.00598509,9430.281456,568.1744577,a,1,2.4555,,185.7134,185.9138,,,,,,,,30,220,121,-18,114,-169,16,-20,165,-123,-161,-114,-214,-215,-64,162,-65,210,-74,26,-209,172,76,172,166,90,270,270,270,90,180,90,360,360,180,360,,,,,,,,,,,185.9138,185.9141,,0,6,6,6,1,14,novel,,,,,,,,,,,,,,,,,,,,,,,,,,,,,,,,,,,,,,,,,,,,,,,,,
,,999,12,xxx,F,18,2023-11-01_14h39.51.717,MouseEye_CC,2023.2.2,MacIntel,60.0024001,1.178785182,,,2560,1440,54.175,3.47,"204.23, 165.85, 163.76, 158.73, 161.35, 145.4, 147.06",589.53,9.456281425,32.81329654,27.83653633,Passed,109.9245434,,,,,,,,,,,,,,,,,,,,training,1,8,180,right,s,,,,,185.9156,186.0296,33.00598509,0.178161621,1.362457275,1,0,0,0.1139,fixationPoint,186.0297,186.1286,186.1286,187.2643,33.00598509,9430.281456,568.1744577,s,1,1.1209,,187.2643,187.463,,,,,,,,32,-171,68,27,67,79,165,220,121,-69,-24,-114,-214,-64,-164,162,-65,174,-216,21,-72,-170,218,-216,126,180,180,90,270,180,270,90,360,360,90,180,,,,,,,,,,,187.4631,187.4638,,0,7,7,7,1,16,novel,,,,,,,,,,,,,,,,,,,,,,,,,,,,,,,,,,,,,,,,,,,,,,,,,
,,999,12,xxx,F,18,2023-11-01_14h39.51.717,MouseEye_CC,2023.2.2,MacIntel,60.0024001,1.178785182,,,2560,1440,54.175,3.47,"204.23, 165.85, 163.76, 158.73, 161.35, 145.4, 147.06",589.53,9.456281425,32.81329654,27.83653633,Passed,109.9245434,,,,,,,,,,,,,,,,,,,,training,1,9,180,right,s,,,,,187.4644,187.9801,33.00598509,0.178161621,1.362457275,1,0,0,0.5156,fixationPoint,187.9802,188.0793,188.0794,189.5129,33.00598509,9430.281456,568.1744577,s,1,1.418,,189.5129,189.7117,,,,,,,,68,114,-68,22,114,118,16,127,120,-28,32,-170,218,-209,25,-215,-162,-123,-161,-163,-69,210,-74,171,-24,270,360,180,180,270,180,90,90,90,270,360,,,,,,,,,,,189.7117,189.7117,,0,8,8,8,1,11,novel,,,,,,,,,,,,,,,,,,,,,,,,,,,,,,,,,,,,,,,,,,,,,,,,,
,,999,12,xxx,F,18,2023-11-01_14h39.51.717,MouseEye_CC,2023.2.2,MacIntel,60.0024001,1.178785182,,,2560,1440,54.175,3.47,"204.23, 165.85, 163.76, 158.73, 161.35, 145.4, 147.06",589.53,9.456281425,32.81329654,27.83653633,Passed,109.9245434,,,,,,,,,,,,,,,,,,,,training,1,10,0,left,a,,,,,189.712,190.1311,33.00598509,0.178161621,1.362457275,1,0,0,0.4189,fixationPoint,190.1312,190.2296,190.2297,191.1992,33.00598509,9430.281456,568.1744577,a,1,0.957,,191.1993,191.3979,,,,,,,,49,164,29,-18,114,-166,163,-32,76,-32,-121,-64,-164,-70,-73,224,-223,26,-20,78,-16,114,208,220,121,180,90,270,90,270,360,90,270,180,270,270,,,,,,,,,,,191.3979,191.3982,,0,9,9,9,1,13,novel,,,,,,,,,,,,,,,,,,,,,,,,,,,,,,,,,,,,,,,,,,,,,,,,,
,,999,12,xxx,F,18,2023-11-01_14h39.51.717,MouseEye_CC,2023.2.2,MacIntel,60.0024001,1.178785182,,,2560,1440,54.175,3.47,"204.23, 165.85, 163.76, 158.73, 161.35, 145.4, 147.06",589.53,9.456281425,32.81329654,27.83653633,Passed,109.9245434,,,,,,,,,,,,,,,,,,,,training,1,11,0,left,a,,,,,191.3989,191.7305,33.00598509,0.178161621,1.362457275,1,0,0,0.3313,fixationPoint,191.7306,191.8312,191.8313,193.0969,33.00598509,9430.281456,568.1744577,a,1,1.2538,,193.0971,193.2956,,,,,,,,42,-169,16,72,114,113,168,27,67,-215,-64,-216,-220,-215,-162,214,-28,114,-68,116,-167,-116,66,-124,118,270,270,180,360,360,90,270,360,360,180,180,,,,,,,,,,,193.2957,193.296,,0,10,10,10,1,4,repeated,,,,,,,,,,,,,,,,,,,,,,,,,,,,,,,,,,,,,,,,,,,,,,,,,
,,999,12,xxx,F,18,2023-11-01_14h39.51.717,MouseEye_CC,2023.2.2,MacIntel,60.0024001,1.178785182,,,2560,1440,54.175,3.47,"204.23, 165.85, 163.76, 158.73, 161.35, 145.4, 147.06",589.53,9.456281425,32.81329654,27.83653633,Passed,109.9245434,,,,,,,,,,,,,,,,,,,,training,1,12,180,right,s,,,,,193.297,193.3299,33.00598509,0.178161621,1.362457275,1,0,0,0.0326,fixationPoint,193.3299,193.4309,193.4309,194.9975,33.00598509,9430.281456,568.1744577,s,1,1.558,,194.9975,195.197,,,,,,,,71,-216,-128,164,29,22,28,16,173,-73,160,-169,16,-160,124,214,-28,174,-216,219,-168,-161,-171,-69,-24,270,180,180,360,90,180,90,270,270,270,270,,,,,,,,,,,195.1976,195.1988,,0,11,11,11,1,6,repeated,,,,,,,,,,,,,,,,,,,,,,,,,,,,,,,,,,,,,,,,,,,,,,,,,
,,999,12,xxx,F,18,2023-11-01_14h39.51.717,MouseEye_CC,2023.2.2,MacIntel,60.0024001,1.178785182,,,2560,1440,54.175,3.47,"204.23, 165.85, 163.76, 158.73, 161.35, 145.4, 147.06",589.53,9.456281425,32.81329654,27.83653633,Passed,109.9245434,,,,,,,,,,,,,,,,,,,,training,1,13,0,left,a,,,,,195.1996,195.8326,33.00598509,0.178161621,1.362457275,1,0,0,0.6329,fixationPoint,195.8327,195.9313,195.9316,196.7286,33.00598509,9430.281456,568.1744577,a,1,0.7867,,196.7287,196.9299,,,,,,,,52,-163,-20,27,67,215,164,164,29,-160,124,-212,70,-171,68,169,-117,80,-115,116,-167,-163,-69,-216,-128,180,270,90,360,180,270,360,360,90,270,360,,,,,,,,,,,196.9301,196.9308,,0,12,12,12,1,5,repeated,,,,,,,,,,,,,,,,,,,,,,,,,,,,,,,,,,,,,,,,,,,,,,,,,
,,999,12,xxx,F,18,2023-11-01_14h39.51.717,MouseEye_CC,2023.2.2,MacIntel,60.0024001,1.178785182,,,2560,1440,54.175,3.47,"204.23, 165.85, 163.76, 158.73, 161.35, 145.4, 147.06",589.53,9.456281425,32.81329654,27.83653633,Passed,109.9245434,,,,,,,,,,,,,,,,,,,,training,1,14,180,right,s,,,,,196.932,196.981,33.00598509,0.178161621,1.362457275,1,0,0,0.049,fixationPoint,196.9811,197.0828,197.0829,198.2981,33.00598509,9430.281456,568.1744577,s,1,1.2082,,198.2981,198.4967,,,,,,,,78,120,-120,72,114,79,165,172,76,-68,21,-212,70,-116,214,-69,-24,-168,-124,-163,-69,174,-216,69,-213,270,360,270,360,180,360,180,180,360,360,270,,,,,,,,,,,198.4967,198.4968,,0,13,13,13,1,7,repeated,,,,,,,,,,,,,,,,,,,,,,,,,,,,,,,,,,,,,,,,,,,,,,,,,
,,999,12,xxx,F,18,2023-11-01_14h39.51.717,MouseEye_CC,2023.2.2,MacIntel,60.0024001,1.178785182,,,2560,1440,54.175,3.47,"204.23, 165.85, 163.76, 158.73, 161.35, 145.4, 147.06",589.53,9.456281425,32.81329654,27.83653633,Passed,109.9245434,,,,,,,,,,,,,,,,,,,,training,1,15,180,right,s,,,,,198.4971,198.5453,33.00598509,0,1.362457275,1,0,0,0.048,fixationPoint,198.5453,198.6468,198.6469,199.7955,33.00598509,9430.281456,568.1744577,s,1,1.1416,,199.7955,199.9966,,,,,,,,23,-124,118,22,28,17,212,118,16,-163,-20,-163,-69,-29,-210,69,-213,26,-209,67,-164,-80,79,-32,76,180,270,180,90,90,360,90,90,270,270,90,,,,,,,,,,,199.9967,199.9969,,0,14,14,14,1,15,novel,,,,,,,,,,,,,,,,,,,,,,,,,,,,,,,,,,,,,,,,,,,,,,,,,
,,999,12,xxx,F,18,2023-11-01_14h39.51.717,MouseEye_CC,2023.2.2,MacIntel,60.0024001,1.178785182,,,2560,1440,54.175,3.47,"204.23, 165.85, 163.76, 158.73, 161.35, 145.4, 147.06",589.53,9.456281425,32.81329654,27.83653633,Passed,109.9245434,,,,,,,,,,,,,,,,,,,,training,1,16,0,left,a,,,,,199.9977,200.0558,33.00598509,0,1.362457275,1,0,0,0.058,fixationPoint,200.0559,200.1476,200.1477,201.23,33.00598509,9430.281456,568.1744577,a,1,1.0687,,201.2305,201.4291,,,,,,,,59,171,-24,121,68,216,16,172,76,-18,114,-169,16,-73,160,-69,-24,-175,-223,-161,-171,210,-74,116,-167,360,270,360,180,270,180,90,90,180,180,360,,,,,,,,,,,201.4291,208.581,space,0,15,15,15,1,12,novel,7.1328,,,,,,,,,,,,,,,,,,,,,,,,,,,,,,,,,,,,,,,,,,,,,,,,
,,999,12,xxx,F,18,2023-11-01_14h39.51.717,MouseEye_CC,2023.2.2,MacIntel,60.0024001,1.178785182,,,2560,1440,54.175,3.47,"204.23, 165.85, 163.76, 158.73, 161.35, 145.4, 147.06",589.53,9.456281425,32.81329654,27.83653633,Passed,109.9245434,,,,,,,,,,,,,,,,,,,,training,2,1,0,left,a,,,,,208.5875,209.6486,33.00598509,1.006286621,-5.228118896,1,0,0,1.061,fixationPoint,209.6487,209.7454,209.7454,212.2955,33.00598509,9430.281456,568.1744577,a,1,2.5413,,212.2957,212.4974,,,,,,,,83,-123,-161,72,114,22,114,22,28,-116,66,-171,68,-68,21,219,-168,224,-223,171,-24,-163,-69,-23,-24,180,270,270,270,270,270,360,270,90,180,360,,,,,,,,,,,212.4974,212.5018,,0,16,16,16,1,9,novel,,,,,,,,,,,,,,,,,,,,,,,,,,,,,,,,,,,,,,,,,,,,,,,,,
,,999,12,xxx,F,18,2023-11-01_14h39.51.717,MouseEye_CC,2023.2.2,MacIntel,60.0024001,1.178785182,,,2560,1440,54.175,3.47,"204.23, 165.85, 163.76, 158.73, 161.35, 145.4, 147.06",589.53,9.456281425,32.81329654,27.83653633,Passed,109.9245434,,,,,,,,,,,,,,,,,,,,training,2,2,0,left,a,,,,,212.5023,213.0634,33.00598509,1.006286621,-4.828125,1,0,0,0.5607,fixationPoint,213.0637,213.1636,213.1637,214.0655,33.00598509,9430.281456,568.1744577,a,1,0.8836,,214.0657,214.2655,,,,,,,,42,-169,16,72,114,113,168,27,67,-215,-64,-216,-220,-215,-162,214,-28,114,-68,116,-167,-116,66,-124,118,270,360,360,90,180,270,360,90,180,360,90,,,,,,,,,,,214.2657,214.266,,0,17,17,17,1,4,repeated,,,,,,,,,,,,,,,,,,,,,,,,,,,,,,,,,,,,,,,,,,,,,,,,,
,,999,12,xxx,F,18,2023-11-01_14h39.51.717,MouseEye_CC,2023.2.2,MacIntel,60.0024001,1.178785182,,,2560,1440,54.175,3.47,"204.23, 165.85, 163.76, 158.73, 161.35, 145.4, 147.06",589.53,9.456281425,32.81329654,27.83653633,Passed,109.9245434,,,,,,,,,,,,,,,,,,,,training,2,3,0,left,a,,,,,214.2667,214.4619,33.00598509,1.006286621,-4.828125,1,0,0,0.195,fixationPoint,214.462,214.5642,214.5644,216.063,33.00598509,9430.281456,568.1744577,a,1,1.4876,,216.063,216.2631,,,,,,,,71,-216,-128,164,29,22,28,16,173,-73,160,-169,16,-160,124,214,-28,174,-216,219,-168,-161,-171,-69,-24,270,360,90,360,180,90,360,360,180,360,180,,,,,,,,,,,216.2633,216.2637,,0,18,18,18,1,6,repeated,,,,,,,,,,,,,,,,,,,,,,,,,,,,,,,,,,,,,,,,,,,,,,,,,
,,999,12,xxx,F,18,2023-11-01_14h39.51.717,MouseEye_CC,2023.2.2,MacIntel,60.0024001,1.178785182,,,2560,1440,54.175,3.47,"204.23, 165.85, 163.76, 158.73, 161.35, 145.4, 147.06",589.53,9.456281425,32.81329654,27.83653633,Passed,109.9245434,,,,,,,,,,,,,,,,,,,,training,2,4,0,left,a,,,,,216.2644,216.4305,33.00598509,1.006286621,-4.828125,1,0,0,0.1659,fixationPoint,216.4307,216.5298,216.5298,217.4991,33.00598509,9430.281456,568.1744577,a,1,0.9571,,217.4992,217.6962,,,,,,,,23,-124,118,68,212,216,16,215,164,-121,-128,-70,-73,-163,-69,78,-16,26,-20,210,-74,-216,217,-28,32,180,90,270,360,270,360,180,90,270,360,360,,,,,,,,,,,217.6963,217.6969,,0,19,19,19,1,15,novel,,,,,,,,,,,,,,,,,,,,,,,,,,,,,,,,,,,,,,,,,,,,,,,,,
,,999,12,xxx,F,18,2023-11-01_14h39.51.717,MouseEye_CC,2023.2.2,MacIntel,60.0024001,1.178785182,,,2560,1440,54.175,3.47,"204.23, 165.85, 163.76, 158.73, 161.35, 145.4, 147.06",589.53,9.456281425,32.81329654,27.83653633,Passed,109.9245434,,,,,,,,,,,,,,,,,,,,training,2,5,180,right,s,,,,,217.6994,218.1141,33.00598509,1.006286621,-4.828125,1,0,0,0.4145,fixationPoint,218.1142,218.2113,218.2113,220.6464,33.00598509,9430.281456,568.1744577,s,1,2.4299,,220.6465,220.8479,,,,,,,,63,-124,-64,210,221,65,80,218,74,-80,79,-212,70,-216,126,163,-175,26,-20,64,-80,-28,-70,-64,-164,360,180,360,360,360,180,90,90,270,180,270,,,,,,,,,,,220.848,220.8483,,0,20,20,20,1,10,novel,,,,,,,,,,,,,,,,,,,,,,,,,,,,,,,,,,,,,,,,,,,,,,,,,
,,999,12,xxx,F,18,2023-11-01_14h39.51.717,MouseEye_CC,2023.2.2,MacIntel,60.0024001,1.178785182,,,2560,1440,54.175,3.47,"204.23, 165.85, 163.76, 158.73, 161.35, 145.4, 147.06",589.53,9.456281425,32.81329654,27.83653633,Passed,109.9245434,,,,,,,,,,,,,,,,,,,,training,2,6,0,left,a,,,,,220.8492,221.4469,33.00598509,1.006286621,-4.828125,1,0,0,0.5974,fixationPoint,221.447,221.5488,221.5488,222.7118,33.00598509,9430.281456,568.1744577,a,1,1.1536,,222.7118,222.918,,,,,,,,68,114,-68,113,168,218,74,167,215,-116,66,-65,115,-124,118,-114,-214,-29,-210,-124,-64,171,-24,125,-215,270,360,90,360,90,90,180,270,180,270,360,,,,,,,,,,,222.9181,222.9183,,0,21,21,21,1,11,novel,,,,,,,,,,,,,,,,,,,,,,,,,,,,,,,,,,,,,,,,,,,,,,,,,
,,999,12,xxx,F,18,2023-11-01_14h39.51.717,MouseEye_CC,2023.2.2,MacIntel,60.0024001,1.178785182,,,2560,1440,54.175,3.47,"204.23, 165.85, 163.76, 158.73, 161.35, 145.4, 147.06",589.53,9.456281425,32.81329654,27.83653633,Passed,109.9245434,,,,,,,,,,,,,,,,,,,,training,2,7,180,right,s,,,,,222.9188,223.0302,33.00598509,1.006286621,-4.828125,1,0,0,0.1112,fixationPoint,223.0303,223.1181,223.1181,224.0796,33.00598509,9430.281456,568.1744577,s,1,0.9548,,224.0796,224.2835,,,,,,,,78,120,-120,72,114,79,165,172,76,-68,21,-212,70,-116,214,-69,-24,-168,-124,-163,-69,174,-216,69,-213,180,360,90,90,90,360,270,360,360,360,90,,,,,,,,,,,224.2835,224.2836,,0,22,22,22,1,7,repeated,,,,,,,,,,,,,,,,,,,,,,,,,,,,,,,,,,,,,,,,,,,,,,,,,
,,999,12,xxx,F,18,2023-11-01_14h39.51.717,MouseEye_CC,2023.2.2,MacIntel,60.0024001,1.178785182,,,2560,1440,54.175,3.47,"204.23, 165.85, 163.76, 158.73, 161.35, 145.4, 147.06",589.53,9.456281425,32.81329654,27.83653633,Passed,109.9245434,,,,,,,,,,,,,,,,,,,,training,2,8,0,left,a,,,,,224.2843,224.8473,33.00598509,1.006286621,-4.828125,1,0,0,0.563,fixationPoint,224.8474,224.9472,224.9476,226.5481,33.00598509,9430.281456,568.1744577,a,1,1.5924,,226.5482,226.7498,,,,,,,,38,121,68,-75,222,-28,32,-171,68,-215,-162,-215,-64,-216,-128,21,-72,24,-166,210,-74,79,165,172,166,360,90,90,360,180,180,270,360,360,270,360,,,,,,,,,,,226.7498,226.7504,,0,23,23,23,1,2,repeated,,,,,,,,,,,,,,,,,,,,,,,,,,,,,,,,,,,,,,,,,,,,,,,,,
,,999,12,xxx,F,18,2023-11-01_14h39.51.717,MouseEye_CC,2023.2.2,MacIntel,60.0024001,1.178785182,,,2560,1440,54.175,3.47,"204.23, 165.85, 163.76, 158.73, 161.35, 145.4, 147.06",589.53,9.456281425,32.81329654,27.83653633,Passed,109.9245434,,,,,,,,,,,,,,,,,,,,training,2,9,0,left,a,,,,,226.7511,227.631,33.00598509,1.006286621,-4.828125,1,0,0,0.8797,fixationPoint,227.6311,227.7297,227.7297,228.4813,33.00598509,9430.281456,568.1744577,a,1,0.7344,,228.4813,228.6814,,,,,,,,33,-116,66,164,29,172,166,172,76,-123,-161,-163,-69,-21,-172,120,-120,162,-65,210,-74,-166,163,-75,222,360,360,360,360,90,90,270,270,180,360,90,,,,,,,,,,,228.682,228.6825,,0,24,24,24,1,3,repeated,,,,,,,,,,,,,,,,,,,,,,,,,,,,,,,,,,,,,,,,,,,,,,,,,
,,999,12,xxx,F,18,2023-11-01_14h39.51.717,MouseEye_CC,2023.2.2,MacIntel,60.0024001,1.178785182,,,2560,1440,54.175,3.47,"204.23, 165.85, 163.76, 158.73, 161.35, 145.4, 147.06",589.53,9.456281425,32.81329654,27.83653633,Passed,109.9245434,,,,,,,,,,,,,,,,,,,,training,2,10,180,right,s,,,,,228.6831,228.9641,33.00598509,1.006286621,-4.828125,1,0,0,0.2807,fixationPoint,228.9642,229.0646,229.0647,230.5324,33.00598509,9430.281456,568.1744577,s,1,1.4632,,230.5324,230.7299,,,,,,,,30,220,121,-211,161,-116,214,-209,25,-69,-24,-124,-64,-163,-69,171,-24,210,-74,125,-215,22,28,172,166,360,360,90,270,270,270,90,180,360,90,90,,,,,,,,,,,230.73,230.7301,,0,25,25,25,1,14,novel,,,,,,,,,,,,,,,,,,,,,,,,,,,,,,,,,,,,,,,,,,,,,,,,,
,,999,12,xxx,F,18,2023-11-01_14h39.51.717,MouseEye_CC,2023.2.2,MacIntel,60.0024001,1.178785182,,,2560,1440,54.175,3.47,"204.23, 165.85, 163.76, 158.73, 161.35, 145.4, 147.06",589.53,9.456281425,32.81329654,27.83653633,Passed,109.9245434,,,,,,,,,,,,,,,,,,,,training,2,11,180,right,s,,,,,230.7304,230.7838,33.00598509,1.006286621,-4.828125,1,0,0,0.0533,fixationPoint,230.7839,230.8799,230.88,231.9995,33.00598509,9430.281456,568.1744577,s,1,1.1012,,231.9996,232.2059,,,,,,,,52,-163,-20,27,67,215,164,164,29,-160,124,-212,70,-171,68,169,-117,80,-115,116,-167,-163,-69,-216,-128,180,90,90,180,90,270,270,180,360,360,360,,,,,,,,,,,232.2059,232.206,,0,26,26,26,1,5,repeated,,,,,,,,,,,,,,,,,,,,,,,,,,,,,,,,,,,,,,,,,,,,,,,,,
,,999,12,xxx,F,18,2023-11-01_14h39.51.717,MouseEye_CC,2023.2.2,MacIntel,60.0024001,1.178785182,,,2560,1440,54.175,3.47,"204.23, 165.85, 163.76, 158.73, 161.35, 145.4, 147.06",589.53,9.456281425,32.81329654,27.83653633,Passed,109.9245434,,,,,,,,,,,,,,,,,,,,training,2,12,180,right,s,,,,,232.2062,232.5638,33.00598509,1.006286621,-4.828125,1,0,0,0.3574,fixationPoint,232.5638,232.667,232.6671,233.6489,33.00598509,9430.281456,568.1744577,s,1,0.9661,,233.649,233.8603,,,,,,,,59,171,-24,164,29,218,74,113,168,-212,70,-65,115,-124,163,-28,-70,-224,-25,-23,-24,67,-164,69,-213,180,270,360,270,90,180,360,360,270,180,90,,,,,,,,,,,233.8603,233.8604,,0,27,27,27,1,12,novel,,,,,,,,,,,,,,,,,,,,,,,,,,,,,,,,,,,,,,,,,,,,,,,,,
,,999,12,xxx,F,18,2023-11-01_14h39.51.717,MouseEye_CC,2023.2.2,MacIntel,60.0024001,1.178785182,,,2560,1440,54.175,3.47,"204.23, 165.85, 163.76, 158.73, 161.35, 145.4, 147.06",589.53,9.456281425,32.81329654,27.83653633,Passed,109.9245434,,,,,,,,,,,,,,,,,,,,training,2,13,180,right,s,,,,,233.8607,233.9309,33.00598509,1.006286621,-4.828125,1,0,0,0.07,fixationPoint,233.9311,234.0304,234.0306,236.1951,33.00598509,9430.281456,568.1744577,s,1,2.1559,,236.1952,236.3968,,,,,,,,18,113,168,-73,160,-116,66,-124,163,-120,-32,-114,-214,-32,-121,24,-166,169,-117,211,-128,164,29,17,212,360,360,360,360,270,270,180,270,180,180,180,,,,,,,,,,,236.3968,236.3974,,0,28,28,28,1,1,repeated,,,,,,,,,,,,,,,,,,,,,,,,,,,,,,,,,,,,,,,,,,,,,,,,,
,,999,12,xxx,F,18,2023-11-01_14h39.51.717,MouseEye_CC,2023.2.2,MacIntel,60.0024001,1.178785182,,,2560,1440,54.175,3.47,"204.23, 165.85, 163.76, 158.73, 161.35, 145.4, 147.06",589.53,9.456281425,32.81329654,27.83653633,Passed,109.9245434,,,,,,,,,,,,,,,,,,,,training,2,14,180,right,s,,,,,236.3979,236.4965,33.00598509,1.006286621,-4.828125,1,0,0,0.0984,fixationPoint,236.4966,236.5959,236.5959,237.9626,33.00598509,9430.281456,568.1744577,s,1,1.3559,,237.9626,238.1656,,,,,,,,69,162,-65,218,74,172,76,121,68,-160,124,-124,118,-209,25,-28,-70,-120,-32,-123,-161,114,-68,67,-164,180,360,90,90,270,180,90,270,360,90,270,,,,,,,,,,,238.1657,238.1659,,0,29,29,29,1,8,repeated,,,,,,,,,,,,,,,,,,,,,,,,,,,,,,,,,,,,,,,,,,,,,,,,,
,,999,12,xxx,F,18,2023-11-01_14h39.51.717,MouseEye_CC,2023.2.2,MacIntel,60.0024001,1.178785182,,,2560,1440,54.175,3.47,"204.23, 165.85, 163.76, 158.73, 161.35, 145.4, 147.06",589.53,9.456281425,32.81329654,27.83653633,Passed,109.9245434,,,,,,,,,,,,,,,,,,,,training,2,15,180,right,s,,,,,238.1684,238.2316,33.00598509,1.006286621,-4.828125,1,0,0,0.0629,fixationPoint,238.2316,238.3213,238.3214,240.1126,33.00598509,9430.281456,568.1744577,s,1,1.7805,,240.1126,240.3159,,,,,,,,32,-171,68,215,164,79,165,172,166,-70,-73,-32,-121,-29,-210,169,-117,125,-215,78,-16,-166,163,-75,222,360,270,360,270,90,270,180,180,270,90,180,,,,,,,,,,,240.3161,240.3164,,0,30,30,30,1,16,novel,,,,,,,,,,,,,,,,,,,,,,,,,,,,,,,,,,,,,,,,,,,,,,,,,
,,999,12,xxx,F,18,2023-11-01_14h39.51.717,MouseEye_CC,2023.2.2,MacIntel,60.0024001,1.178785182,,,2560,1440,54.175,3.47,"204.23, 165.85, 163.76, 158.73, 161.35, 145.4, 147.06",589.53,9.456281425,32.81329654,27.83653633,Passed,109.9245434,,,,,,,,,,,,,,,,,,,,training,2,16,0,left,a,,,,,240.3173,240.4188,33.00598509,1.006286621,-4.828125,1,0,0,0.0995,fixationPoint,240.419,240.5207,240.5208,241.3658,33.00598509,9430.281456,568.1744577,a,1,0.8293,,241.3659,241.5657,,,,,,,,49,164,29,-171,68,-75,222,-124,118,-224,-25,-28,-70,-76,-116,78,-16,174,-216,163,-175,68,212,16,173,270,90,180,270,180,360,90,180,90,180,360,,,,,,,,,,,241.5658,244.8836,space,0,31,31,31,1,13,novel,3.2969,,,,,,,,,,,,,,,,,,,,,,,,,,,,,,,,,,,,,,,,,,,,,,,,
,,999,12,xxx,F,18,2023-11-01_14h39.51.717,MouseEye_CC,2023.2.2,MacIntel,60.0024001,1.178785182,,,2560,1440,54.175,3.47,"204.23, 165.85, 163.76, 158.73, 161.35, 145.4, 147.06",589.53,9.456281425,32.81329654,27.83653633,Passed,109.9245434,,,,,,,,,,,,,,,,,,,,training,3,1,180,right,s,,,,,244.8844,245.5069,33.00598509,0.809387207,-4.828125,1,0,0,0.6221,fixationPoint,245.507,245.5996,245.5997,246.6461,33.00598509,9430.281456,568.1744577,s,1,1.0391,,246.6462,246.8515,,,,,,,,38,121,68,-75,222,-28,32,-171,68,-215,-162,-215,-64,-216,-128,21,-72,24,-166,210,-74,79,165,172,166,90,360,360,180,360,90,90,90,90,180,90,,,,,,,,,,,246.8515,246.8526,,0,32,32,32,1,2,repeated,,,,,,,,,,,,,,,,,,,,,,,,,,,,,,,,,,,,,,,,,,,,,,,,,
,,999,12,xxx,F,18,2023-11-01_14h39.51.717,MouseEye_CC,2023.2.2,MacIntel,60.0024001,1.178785182,,,2560,1440,54.175,3.47,"204.23, 165.85, 163.76, 158.73, 161.35, 145.4, 147.06",589.53,9.456281425,32.81329654,27.83653633,Passed,109.9245434,,,,,,,,,,,,,,,,,,,,training,3,2,180,right,s,,,,,246.8528,246.9372,33.00598509,0.809387207,-4.828125,1,0,0,0.0843,fixationPoint,246.9372,247.0305,247.0305,248.1028,33.00598509,9430.281456,568.1744577,s,1,1.0672,,248.1029,248.3038,,,,,,,,49,164,29,-18,114,-116,66,-80,79,-64,-164,-69,-24,-114,-214,211,-128,64,-80,171,-24,114,208,113,168,90,180,90,90,270,180,90,90,270,360,360,,,,,,,,,,,248.3038,248.3039,,0,33,33,33,1,13,novel,,,,,,,,,,,,,,,,,,,,,,,,,,,,,,,,,,,,,,,,,,,,,,,,,
,,999,12,xxx,F,18,2023-11-01_14h39.51.717,MouseEye_CC,2023.2.2,MacIntel,60.0024001,1.178785182,,,2560,1440,54.175,3.47,"204.23, 165.85, 163.76, 158.73, 161.35, 145.4, 147.06",589.53,9.456281425,32.81329654,27.83653633,Passed,109.9245434,,,,,,,,,,,,,,,,,,,,training,3,3,0,left,a,,,,,248.3041,248.8706,33.00598509,0.809387207,-4.828125,1,0,0,0.5664,fixationPoint,248.8707,248.9628,248.9629,249.8994,33.00598509,9430.281456,568.1744577,a,1,0.9164,,249.8994,250.0957,,,,,,,,30,220,121,-28,32,-212,70,-116,214,-168,-124,-70,-73,-163,-20,26,-209,211,-128,116,-167,65,80,215,164,270,270,90,180,360,270,360,180,270,90,360,,,,,,,,,,,250.0959,250.096,,0,34,34,34,1,14,novel,,,,,,,,,,,,,,,,,,,,,,,,,,,,,,,,,,,,,,,,,,,,,,,,,
,,999,12,xxx,F,18,2023-11-01_14h39.51.717,MouseEye_CC,2023.2.2,MacIntel,60.0024001,1.178785182,,,2560,1440,54.175,3.47,"204.23, 165.85, 163.76, 158.73, 161.35, 145.4, 147.06",589.53,9.456281425,32.81329654,27.83653633,Passed,109.9245434,,,,,,,,,,,,,,,,,,,,training,3,4,0,left,a,,,,,250.0963,250.685,33.00598509,0.809387207,-4.828125,1,0,0,0.5884,fixationPoint,250.685,250.7808,250.781,251.9137,33.00598509,9430.281456,568.1744577,a,1,1.1159,,251.9138,252.1135,,,,,,,,42,-169,16,72,114,113,168,27,67,-215,-64,-216,-220,-215,-162,214,-28,114,-68,116,-167,-116,66,-124,118,360,270,270,270,180,360,360,360,90,360,270,,,,,,,,,,,252.1135,252.114,,0,35,35,35,1,4,repeated,,,,,,,,,,,,,,,,,,,,,,,,,,,,,,,,,,,,,,,,,,,,,,,,,
,,999,12,xxx,F,18,2023-11-01_14h39.51.717,MouseEye_CC,2023.2.2,MacIntel,60.0024001,1.178785182,,,2560,1440,54.175,3.47,"204.23, 165.85, 163.76, 158.73, 161.35, 145.4, 147.06",589.53,9.456281425,32.81329654,27.83653633,Passed,109.9245434,,,,,,,,,,,,,,,,,,,,training,3,5,180,right,s,,,,,252.1147,252.5011,33.00598509,0.809387207,-4.828125,1,0,0,0.3862,fixationPoint,252.5013,252.5998,252.5998,254.0292,33.00598509,9430.281456,568.1744577,s,1,1.4228,,254.0292,254.2168,,,,,,,,69,162,-65,218,74,172,76,121,68,-160,124,-124,118,-209,25,-28,-70,-120,-32,-123,-161,114,-68,67,-164,360,270,360,270,270,270,270,180,180,180,270,,,,,,,,,,,254.2169,254.2171,,0,36,36,36,1,8,repeated,,,,,,,,,,,,,,,,,,,,,,,,,,,,,,,,,,,,,,,,,,,,,,,,,
,,999,12,xxx,F,18,2023-11-01_14h39.51.717,MouseEye_CC,2023.2.2,MacIntel,60.0024001,1.178785182,,,2560,1440,54.175,3.47,"204.23, 165.85, 163.76, 158.73, 161.35, 145.4, 147.06",589.53,9.456281425,32.81329654,27.83653633,Passed,109.9245434,,,,,,,,,,,,,,,,,,,,training,3,6,180,right,s,,,,,254.2176,254.6182,33.00598509,0.809387207,-4.828125,1,0,0,0.4004,fixationPoint,254.6183,254.7138,254.7138,257.1959,33.00598509,9430.281456,568.1744577,s,1,2.4677,,257.196,257.3988,,,,,,,,63,-124,-64,218,74,215,164,172,76,-216,217,-171,68,-216,126,162,-65,69,-213,174,-216,-215,-162,-69,-24,270,180,90,270,360,90,90,180,270,90,270,,,,,,,,,,,257.3989,257.399,,0,37,37,37,1,10,novel,,,,,,,,,,,,,,,,,,,,,,,,,,,,,,,,,,,,,,,,,,,,,,,,,
,,999,12,xxx,F,18,2023-11-01_14h39.51.717,MouseEye_CC,2023.2.2,MacIntel,60.0024001,1.178785182,,,2560,1440,54.175,3.47,"204.23, 165.85, 163.76, 158.73, 161.35, 145.4, 147.06",589.53,9.456281425,32.81329654,27.83653633,Passed,109.9245434,,,,,,,,,,,,,,,,,,,,training,3,7,180,right,s,,,,,257.3996,257.4473,33.00598509,0.809387207,-4.828125,1,0,0,0.0475,fixationPoint,257.4473,257.5531,257.5531,259.9128,33.00598509,9430.281456,568.1744577,s,1,2.3552,,259.9128,260.1019,,,,,,,,23,-124,118,68,212,220,121,16,173,-216,-128,-69,-24,-70,-73,21,-72,67,-164,80,-115,-116,27,-211,161,270,180,90,360,360,180,180,90,360,270,180,,,,,,,,,,,260.1028,260.1032,,0,38,38,38,1,15,novel,,,,,,,,,,,,,,,,,,,,,,,,,,,,,,,,,,,,,,,,,,,,,,,,,
,,999,12,xxx,F,18,2023-11-01_14h39.51.717,MouseEye_CC,2023.2.2,MacIntel,60.0024001,1.178785182,,,2560,1440,54.175,3.47,"204.23, 165.85, 163.76, 158.73, 161.35, 145.4, 147.06",589.53,9.456281425,32.81329654,27.83653633,Passed,109.9245434,,,,,,,,,,,,,,,,,,,,training,3,8,0,left,a,,,,,260.1035,260.3466,33.00598509,0.809387207,-4.828125,1,0,0,0.243,fixationPoint,260.3466,260.4473,260.4474,261.4475,33.00598509,9430.281456,568.1744577,a,1,0.9864,,261.4478,261.6478,,,,,,,,59,171,-24,164,29,218,74,65,80,-116,66,-216,217,-124,118,-114,-214,-28,-70,-64,-164,174,-216,214,-28,360,270,270,360,90,360,270,90,270,360,270,,,,,,,,,,,261.648,261.6493,,0,39,39,39,1,12,novel,,,,,,,,,,,,,,,,,,,,,,,,,,,,,,,,,,,,,,,,,,,,,,,,,
,,999,12,xxx,F,18,2023-11-01_14h39.51.717,MouseEye_CC,2023.2.2,MacIntel,60.0024001,1.178785182,,,2560,1440,54.175,3.47,"204.23, 165.85, 163.76, 158.73, 161.35, 145.4, 147.06",589.53,9.456281425,32.81329654,27.83653633,Passed,109.9245434,,,,,,,,,,,,,,,,,,,,training,3,9,180,right,s,,,,,261.6501,262.467,33.00598509,0.365661621,-3.675018311,1,0,0,0.8166,fixationPoint,262.4671,262.5631,262.5632,264.7794,33.00598509,9430.281456,568.1744577,s,1,2.2098,,264.7794,264.9789,,,,,,,,18,113,168,-73,160,-116,66,-124,163,-120,-32,-114,-214,-32,-121,24,-166,169,-117,211,-128,164,29,17,212,180,270,360,360,270,90,180,360,180,270,180,,,,,,,,,,,264.9789,264.9791,,0,40,40,40,1,1,repeated,,,,,,,,,,,,,,,,,,,,,,,,,,,,,,,,,,,,,,,,,,,,,,,,,
,,999,12,xxx,F,18,2023-11-01_14h39.51.717,MouseEye_CC,2023.2.2,MacIntel,60.0024001,1.178785182,,,2560,1440,54.175,3.47,"204.23, 165.85, 163.76, 158.73, 161.35, 145.4, 147.06",589.53,9.456281425,32.81329654,27.83653633,Passed,109.9245434,,,,,,,,,,,,,,,,,,,,training,3,10,0,left,a,,,,,264.9796,265.4545,33.00598509,0.365661621,-3.274993896,1,0,0,0.4746,fixationPoint,265.4546,265.5518,265.5519,266.9023,33.00598509,9430.281456,568.1744577,a,1,1.3461,,266.9024,267.0965,,,,,,,,33,-116,66,164,29,172,166,172,76,-123,-161,-163,-69,-21,-172,120,-120,162,-65,210,-74,-166,163,-75,222,180,90,270,90,270,360,360,180,90,90,90,,,,,,,,,,,267.0966,267.0969,,0,41,41,41,1,3,repeated,,,,,,,,,,,,,,,,,,,,,,,,,,,,,,,,,,,,,,,,,,,,,,,,,
,,999,12,xxx,F,18,2023-11-01_14h39.51.717,MouseEye_CC,2023.2.2,MacIntel,60.0024001,1.178785182,,,2560,1440,54.175,3.47,"204.23, 165.85, 163.76, 158.73, 161.35, 145.4, 147.06",589.53,9.456281425,32.81329654,27.83653633,Passed,109.9245434,,,,,,,,,,,,,,,,,,,,training,3,11,0,left,a,,,,,267.0994,267.1308,33.00598509,0.365661621,-3.274993896,1,0,0,0.0313,fixationPoint,267.1309,267.2324,267.2324,268.2981,33.00598509,9430.281456,568.1744577,a,1,1.0615,,268.2981,268.4961,,,,,,,,68,114,-68,172,76,22,114,164,29,-32,76,-32,222,-80,79,-23,-24,-76,-116,-121,-128,125,-215,163,-175,270,90,270,90,360,90,180,270,180,180,270,,,,,,,,,,,268.4962,268.4963,,0,42,42,42,1,11,novel,,,,,,,,,,,,,,,,,,,,,,,,,,,,,,,,,,,,,,,,,,,,,,,,,
,,999,12,xxx,F,18,2023-11-01_14h39.51.717,MouseEye_CC,2023.2.2,MacIntel,60.0024001,1.178785182,,,2560,1440,54.175,3.47,"204.23, 165.85, 163.76, 158.73, 161.35, 145.4, 147.06",589.53,9.456281425,32.81329654,27.83653633,Passed,109.9245434,,,,,,,,,,,,,,,,,,,,training,3,12,0,left,a,,,,,268.4968,269.081,33.00598509,0.365661621,-3.274993896,1,0,0,0.5841,fixationPoint,269.0812,269.1926,269.1926,270.1315,33.00598509,9430.281456,568.1744577,a,1,0.9338,,270.1315,270.331,,,,,,,,52,-163,-20,27,67,215,164,164,29,-160,124,-212,70,-171,68,169,-117,80,-115,116,-167,-163,-69,-216,-128,360,270,270,270,270,180,90,180,180,360,180,,,,,,,,,,,270.331,270.3311,,0,43,43,43,1,5,repeated,,,,,,,,,,,,,,,,,,,,,,,,,,,,,,,,,,,,,,,,,,,,,,,,,
,,999,12,xxx,F,18,2023-11-01_14h39.51.717,MouseEye_CC,2023.2.2,MacIntel,60.0024001,1.178785182,,,2560,1440,54.175,3.47,"204.23, 165.85, 163.76, 158.73, 161.35, 145.4, 147.06",589.53,9.456281425,32.81329654,27.83653633,Passed,109.9245434,,,,,,,,,,,,,,,,,,,,training,3,13,0,left,a,,,,,270.3313,270.3489,33.00598509,0.365661621,-3.274993896,1,0,0,0.0176,fixationPoint,270.3489,270.4493,270.4494,272.264,33.00598509,9430.281456,568.1744577,a,1,1.7985,,272.264,272.465,,,,,,,,71,-216,-128,164,29,22,28,16,173,-73,160,-169,16,-160,124,214,-28,174,-216,219,-168,-161,-171,-69,-24,180,90,360,360,270,90,90,360,180,360,270,,,,,,,,,,,272.4651,272.4653,,0,44,44,44,1,6,repeated,,,,,,,,,,,,,,,,,,,,,,,,,,,,,,,,,,,,,,,,,,,,,,,,,
,,999,12,xxx,F,18,2023-11-01_14h39.51.717,MouseEye_CC,2023.2.2,MacIntel,60.0024001,1.178785182,,,2560,1440,54.175,3.47,"204.23, 165.85, 163.76, 158.73, 161.35, 145.4, 147.06",589.53,9.456281425,32.81329654,27.83653633,Passed,109.9245434,,,,,,,,,,,,,,,,,,,,training,3,14,180,right,s,,,,,272.4657,272.5291,33.00598509,0.365661621,-3.274993896,1,0,0,0.0634,fixationPoint,272.5292,272.6326,272.6327,273.6304,33.00598509,9430.281456,568.1744577,s,1,0.9882,,273.6305,273.8293,,,,,,,,78,120,-120,72,114,79,165,172,76,-68,21,-212,70,-116,214,-69,-24,-168,-124,-163,-69,174,-216,69,-213,90,270,360,180,270,360,180,180,360,270,180,,,,,,,,,,,273.8294,273.8296,,0,45,45,45,1,7,repeated,,,,,,,,,,,,,,,,,,,,,,,,,,,,,,,,,,,,,,,,,,,,,,,,,
,,999,12,xxx,F,18,2023-11-01_14h39.51.717,MouseEye_CC,2023.2.2,MacIntel,60.0024001,1.178785182,,,2560,1440,54.175,3.47,"204.23, 165.85, 163.76, 158.73, 161.35, 145.4, 147.06",589.53,9.456281425,32.81329654,27.83653633,Passed,109.9245434,,,,,,,,,,,,,,,,,,,,training,3,15,0,left,a,,,,,273.8303,274.4536,33.00598509,0.365661621,-3.274993896,1,0,0,0.6226,fixationPoint,274.4537,274.5475,274.5476,275.7144,33.00598509,9430.281456,568.1744577,a,1,1.16,,275.7144,275.906,,,,,,,,83,-123,-161,127,120,76,31,17,212,-166,163,-32,222,-212,70,169,-117,210,-74,80,-115,-215,-64,-120,-32,270,360,180,360,360,180,360,360,270,180,180,,,,,,,,,,,275.906,275.9061,,0,46,46,46,1,9,novel,,,,,,,,,,,,,,,,,,,,,,,,,,,,,,,,,,,,,,,,,,,,,,,,,
,,999,12,xxx,F,18,2023-11-01_14h39.51.717,MouseEye_CC,2023.2.2,MacIntel,60.0024001,1.178785182,,,2560,1440,54.175,3.47,"204.23, 165.85, 163.76, 158.73, 161.35, 145.4, 147.06",589.53,9.456281425,32.81329654,27.83653633,Passed,109.9245434,,,,,,,,,,,,,,,,,,,,training,3,16,180,right,s,,,,,275.9064,275.9127,33.00598509,0.365661621,-3.274993896,1,0,0,0.0062,fixationPoint,275.9127,276.016,276.0161,278.4186,33.00598509,9430.281456,568.1744577,s,1,2.384,,278.4186,278.614,,,,,,,,32,-171,68,218,74,172,76,215,164,-163,-20,-21,-172,-120,-32,169,-117,128,-25,67,-164,-209,25,-160,124,180,90,180,270,90,270,360,90,180,360,180,,,,,,,,,,,278.614,280.8973,space,0,47,47,47,1,16,novel,2.274,,,,,,,,,,,,,,,,,,,,,,,,,,,,,,,,,,,,,,,,,,,,,,,,
,,999,12,xxx,F,18,2023-11-01_14h39.51.717,MouseEye_CC,2023.2.2,MacIntel,60.0024001,1.178785182,,,2560,1440,54.175,3.47,"204.23, 165.85, 163.76, 158.73, 161.35, 145.4, 147.06",589.53,9.456281425,32.81329654,27.83653633,Passed,109.9245434,,,,,,,,,,,,,,,,,,,,training,4,1,0,left,a,,,,,280.8976,281.8966,33.00598509,0.365661621,-3.274993896,1,0,0,0.999,fixationPoint,281.8967,282.0006,282.0007,284.0643,33.00598509,9430.281456,568.1744577,a,1,2.0496,,284.0646,284.27,,,,,,,,18,113,168,-73,160,-116,66,-124,163,-120,-32,-114,-214,-32,-121,24,-166,169,-117,211,-128,164,29,17,212,180,180,360,360,180,90,270,180,360,360,360,,,,,,,,,,,284.2703,284.2711,,0,48,48,48,1,1,repeated,,,,,,,,,,,,,,,,,,,,,,,,,,,,,,,,,,,,,,,,,,,,,,,,,
,,999,12,xxx,F,18,2023-11-01_14h39.51.717,MouseEye_CC,2023.2.2,MacIntel,60.0024001,1.178785182,,,2560,1440,54.175,3.47,"204.23, 165.85, 163.76, 158.73, 161.35, 145.4, 147.06",589.53,9.456281425,32.81329654,27.83653633,Passed,109.9245434,,,,,,,,,,,,,,,,,,,,training,4,2,0,left,a,,,,,284.2713,284.5193,33.00598509,0.365661621,-3.274993896,1,0,0,0.2479,fixationPoint,284.5193,284.6196,284.6198,285.4507,33.00598509,9430.281456,568.1744577,a,1,0.8215,,285.4507,285.6515,,,,,,,,38,121,68,-75,222,-28,32,-171,68,-215,-162,-215,-64,-216,-128,21,-72,24,-166,210,-74,79,165,172,166,270,180,180,180,90,270,90,180,180,270,270,,,,,,,,,,,285.6515,285.6516,,0,49,49,49,1,2,repeated,,,,,,,,,,,,,,,,,,,,,,,,,,,,,,,,,,,,,,,,,,,,,,,,,
,,999,12,xxx,F,18,2023-11-01_14h39.51.717,MouseEye_CC,2023.2.2,MacIntel,60.0024001,1.178785182,,,2560,1440,54.175,3.47,"204.23, 165.85, 163.76, 158.73, 161.35, 145.4, 147.06",589.53,9.456281425,32.81329654,27.83653633,Passed,109.9245434,,,,,,,,,,,,,,,,,,,,training,4,3,0,left,a,,,,,285.652,285.7516,33.00598509,0.365661621,-3.274993896,1,0,0,0.0995,fixationPoint,285.7517,285.8473,285.8477,287.3151,33.00598509,9430.281456,568.1744577,a,1,1.4595,,287.3152,287.5193,,,,,,,,33,-116,66,164,29,172,166,172,76,-123,-161,-163,-69,-21,-172,120,-120,162,-65,210,-74,-166,163,-75,222,270,180,90,90,90,360,360,90,270,360,180,,,,,,,,,,,287.5194,287.5194,,0,50,50,50,1,3,repeated,,,,,,,,,,,,,,,,,,,,,,,,,,,,,,,,,,,,,,,,,,,,,,,,,
,,999,12,xxx,F,18,2023-11-01_14h39.51.717,MouseEye_CC,2023.2.2,MacIntel,60.0024001,1.178785182,,,2560,1440,54.175,3.47,"204.23, 165.85, 163.76, 158.73, 161.35, 145.4, 147.06",589.53,9.456281425,32.81329654,27.83653633,Passed,109.9245434,,,,,,,,,,,,,,,,,,,,training,4,4,0,left,a,,,,,287.5196,288.2139,33.00598509,0.365661621,-3.274993896,1,0,0,0.6942,fixationPoint,288.214,288.314,288.3141,289.379,33.00598509,9430.281456,568.1744577,a,1,1.0565,,289.379,289.5811,,,,,,,,69,162,-65,218,74,172,76,121,68,-160,124,-124,118,-209,25,-28,-70,-120,-32,-123,-161,114,-68,67,-164,90,360,180,90,360,180,180,180,270,360,90,,,,,,,,,,,289.5811,289.5814,,0,51,51,51,1,8,repeated,,,,,,,,,,,,,,,,,,,,,,,,,,,,,,,,,,,,,,,,,,,,,,,,,
,,999,12,xxx,F,18,2023-11-01_14h39.51.717,MouseEye_CC,2023.2.2,MacIntel,60.0024001,1.178785182,,,2560,1440,54.175,3.47,"204.23, 165.85, 163.76, 158.73, 161.35, 145.4, 147.06",589.53,9.456281425,32.81329654,27.83653633,Passed,109.9245434,,,,,,,,,,,,,,,,,,,,training,4,5,180,right,s,,,,,289.5824,289.6341,33.00598509,0.365661621,-3.274993896,1,0,0,0.0515,fixationPoint,289.6341,289.7325,289.7325,290.4668,33.00598509,9430.281456,568.1744577,s,1,0.7217,,290.4669,290.6694,,,,,,,,52,-163,-20,27,67,215,164,164,29,-160,124,-212,70,-171,68,169,-117,80,-115,116,-167,-163,-69,-216,-128,180,360,180,360,180,270,90,180,90,360,360,,,,,,,,,,,290.6695,290.6695,,0,52,52,52,1,5,repeated,,,,,,,,,,,,,,,,,,,,,,,,,,,,,,,,,,,,,,,,,,,,,,,,,
,,999,12,xxx,F,18,2023-11-01_14h39.51.717,MouseEye_CC,2023.2.2,MacIntel,60.0024001,1.178785182,,,2560,1440,54.175,3.47,"204.23, 165.85, 163.76, 158.73, 161.35, 145.4, 147.06",589.53,9.456281425,32.81329654,27.83653633,Passed,109.9245434,,,,,,,,,,,,,,,,,,,,training,4,6,180,right,s,,,,,290.6698,290.6832,33.00598509,0.365661621,-3.274993896,1,0,0,0.0133,fixationPoint,290.6832,290.7837,290.7837,291.9493,33.00598509,9430.281456,568.1744577,s,1,1.151,,291.9495,292.1502,,,,,,,,78,120,-120,72,114,79,165,172,76,-68,21,-212,70,-116,214,-69,-24,-168,-124,-163,-69,174,-216,69,-213,180,90,360,180,360,90,90,360,90,180,90,,,,,,,,,,,292.1504,292.1506,,0,53,53,53,1,7,repeated,,,,,,,,,,,,,,,,,,,,,,,,,,,,,,,,,,,,,,,,,,,,,,,,,
,,999,12,xxx,F,18,2023-11-01_14h39.51.717,MouseEye_CC,2023.2.2,MacIntel,60.0024001,1.178785182,,,2560,1440,54.175,3.47,"204.23, 165.85, 163.76, 158.73, 161.35, 145.4, 147.06",589.53,9.456281425,32.81329654,27.83653633,Passed,109.9245434,,,,,,,,,,,,,,,,,,,,training,4,7,180,right,s,,,,,292.1512,292.2351,33.00598509,0.365661621,-3.274993896,1,0,0,0.0838,fixationPoint,292.2352,292.3362,292.3362,293.4856,33.00598509,9430.281456,568.1744577,s,1,1.1286,,293.4857,293.6809,,,,,,,,49,164,29,-216,126,-124,118,-170,218,-124,-64,-79,-222,-161,-171,125,-215,162,-65,120,-120,172,166,114,208,180,90,180,90,180,180,270,270,270,360,360,,,,,,,,,,,293.6809,293.681,,0,54,54,54,1,13,novel,,,,,,,,,,,,,,,,,,,,,,,,,,,,,,,,,,,,,,,,,,,,,,,,,
,,999,12,xxx,F,18,2023-11-01_14h39.51.717,MouseEye_CC,2023.2.2,MacIntel,60.0024001,1.178785182,,,2560,1440,54.175,3.47,"204.23, 165.85, 163.76, 158.73, 161.35, 145.4, 147.06",589.53,9.456281425,32.81329654,27.83653633,Passed,109.9245434,,,,,,,,,,,,,,,,,,,,training,4,8,180,right,s,,,,,293.6813,294.4168,33.00598509,0.365661621,-3.100006104,1,0,0,0.7354,fixationPoint,294.4169,294.5132,294.5132,296.3315,33.00598509,9430.281456,568.1744577,s,1,1.8096,,296.3315,296.537,,,,,,,,83,-123,-161,79,165,164,29,220,121,-116,27,-68,21,-169,16,120,-120,214,-28,67,-164,-121,-128,-21,-172,270,360,270,360,270,270,90,360,180,90,360,,,,,,,,,,,296.537,296.5371,,0,55,55,55,1,9,novel,,,,,,,,,,,,,,,,,,,,,,,,,,,,,,,,,,,,,,,,,,,,,,,,,
,,999,12,xxx,F,18,2023-11-01_14h39.51.717,MouseEye_CC,2023.2.2,MacIntel,60.0024001,1.178785182,,,2560,1440,54.175,3.47,"204.23, 165.85, 163.76, 158.73, 161.35, 145.4, 147.06",589.53,9.456281425,32.81329654,27.83653633,Passed,109.9245434,,,,,,,,,,,,,,,,,,,,training,4,9,0,left,a,,,,,296.5372,297.1462,33.00598509,0.365661621,-3.100006104,1,0,0,0.6088,fixationPoint,297.1462,297.2489,297.2491,298.0126,33.00598509,9430.281456,568.1744577,a,1,0.7547,,298.0127,298.2029,,,,,,,,71,-216,-128,164,29,22,28,16,173,-73,160,-169,16,-160,124,214,-28,174,-216,219,-168,-161,-171,-69,-24,360,90,270,270,360,90,360,270,180,90,360,,,,,,,,,,,298.203,298.2032,,0,56,56,56,1,6,repeated,,,,,,,,,,,,,,,,,,,,,,,,,,,,,,,,,,,,,,,,,,,,,,,,,
,,999,12,xxx,F,18,2023-11-01_14h39.51.717,MouseEye_CC,2023.2.2,MacIntel,60.0024001,1.178785182,,,2560,1440,54.175,3.47,"204.23, 165.85, 163.76, 158.73, 161.35, 145.4, 147.06",589.53,9.456281425,32.81329654,27.83653633,Passed,109.9245434,,,,,,,,,,,,,,,,,,,,training,4,10,180,right,s,,,,,298.2035,298.2972,33.00598509,0.365661621,-3.100006104,1,0,0,0.0935,fixationPoint,298.2973,298.401,298.401,299.1509,33.00598509,9430.281456,568.1744577,s,1,0.7334,,299.151,299.349,,,,,,,,63,-124,-64,172,166,76,31,72,114,-68,21,-169,16,-28,32,125,-215,210,-74,219,-168,-224,-25,-29,-210,180,270,180,270,270,360,90,270,270,360,180,,,,,,,,,,,299.3492,299.3493,,0,57,57,57,1,10,novel,,,,,,,,,,,,,,,,,,,,,,,,,,,,,,,,,,,,,,,,,,,,,,,,,
,,999,12,xxx,F,18,2023-11-01_14h39.51.717,MouseEye_CC,2023.2.2,MacIntel,60.0024001,1.178785182,,,2560,1440,54.175,3.47,"204.23, 165.85, 163.76, 158.73, 161.35, 145.4, 147.06",589.53,9.456281425,32.81329654,27.83653633,Passed,109.9245434,,,,,,,,,,,,,,,,,,,,training,4,11,0,left,a,,,,,299.3503,299.3812,33.00598509,0.365661621,-3.100006104,1,0,0,0.0306,fixationPoint,299.3812,299.4796,299.4797,301.5665,33.00598509,9430.281456,568.1744577,a,1,2.0741,,301.5665,301.7672,,,,,,,,32,-171,68,160,125,16,173,72,114,-120,-32,-64,-164,-123,-161,210,-74,211,-128,214,-28,-124,118,-20,165,360,360,180,180,270,90,270,180,180,90,360,,,,,,,,,,,301.7673,301.7674,,0,58,58,58,1,16,novel,,,,,,,,,,,,,,,,,,,,,,,,,,,,,,,,,,,,,,,,,,,,,,,,,
,,999,12,xxx,F,18,2023-11-01_14h39.51.717,MouseEye_CC,2023.2.2,MacIntel,60.0024001,1.178785182,,,2560,1440,54.175,3.47,"204.23, 165.85, 163.76, 158.73, 161.35, 145.4, 147.06",589.53,9.456281425,32.81329654,27.83653633,Passed,109.9245434,,,,,,,,,,,,,,,,,,,,training,4,12,0,left,a,,,,,301.7679,301.7976,33.00598509,0.365661621,-3.100006104,1,0,0,0.0295,fixationPoint,301.7976,301.9006,301.9007,303.7813,33.00598509,9430.281456,568.1744577,a,1,1.8669,,303.7813,303.9808,,,,,,,,30,220,121,-32,222,-169,16,-216,126,-175,-223,-163,-20,-216,-128,174,-216,211,-128,80,-115,79,165,218,74,180,360,90,90,180,270,180,90,360,270,90,,,,,,,,,,,303.9809,303.9819,,0,59,59,59,1,14,novel,,,,,,,,,,,,,,,,,,,,,,,,,,,,,,,,,,,,,,,,,,,,,,,,,
,,999,12,xxx,F,18,2023-11-01_14h39.51.717,MouseEye_CC,2023.2.2,MacIntel,60.0024001,1.178785182,,,2560,1440,54.175,3.47,"204.23, 165.85, 163.76, 158.73, 161.35, 145.4, 147.06",589.53,9.456281425,32.81329654,27.83653633,Passed,109.9245434,,,,,,,,,,,,,,,,,,,,training,4,13,180,right,s,,,,,303.9825,304.2141,33.00598509,0.365661621,-3.100006104,1,0,0,0.2313,fixationPoint,304.2142,304.3158,304.3158,305.2799,33.00598509,9430.281456,568.1744577,s,1,0.9555,,305.28,305.4823,,,,,,,,59,171,-24,160,125,113,168,216,16,-170,218,-32,222,-160,124,-114,-214,-215,-64,-29,-210,21,-72,219,-168,270,270,270,90,270,270,90,270,360,270,180,,,,,,,,,,,305.4824,305.4845,,0,60,60,60,1,12,novel,,,,,,,,,,,,,,,,,,,,,,,,,,,,,,,,,,,,,,,,,,,,,,,,,
,,999,12,xxx,F,18,2023-11-01_14h39.51.717,MouseEye_CC,2023.2.2,MacIntel,60.0024001,1.178785182,,,2560,1440,54.175,3.47,"204.23, 165.85, 163.76, 158.73, 161.35, 145.4, 147.06",589.53,9.456281425,32.81329654,27.83653633,Passed,109.9245434,,,,,,,,,,,,,,,,,,,,training,4,14,180,right,s,,,,,305.485,305.5001,33.00598509,0.365661621,-3.100006104,1,0,0,0.015,fixationPoint,305.5001,305.5989,305.599,306.7319,33.00598509,9430.281456,568.1744577,s,1,1.1208,,306.732,306.9307,,,,,,,,23,-124,118,113,168,215,164,216,16,-69,-24,-70,-73,-114,-214,114,-68,80,-115,69,-213,-209,25,-160,124,180,90,90,270,180,180,360,360,360,360,90,,,,,,,,,,,306.9308,306.9309,,0,61,61,61,1,15,novel,,,,,,,,,,,,,,,,,,,,,,,,,,,,,,,,,,,,,,,,,,,,,,,,,
,,999,12,xxx,F,18,2023-11-01_14h39.51.717,MouseEye_CC,2023.2.2,MacIntel,60.0024001,1.178785182,,,2560,1440,54.175,3.47,"204.23, 165.85, 163.76, 158.73, 161.35, 145.4, 147.06",589.53,9.456281425,32.81329654,27.83653633,Passed,109.9245434,,,,,,,,,,,,,,,,,,,,training,4,15,0,left,a,,,,,306.931,307.5982,33.00598509,0.365661621,-3.100006104,1,0,0,0.6671,fixationPoint,307.5982,307.699,307.699,308.6464,33.00598509,9430.281456,568.1744577,a,1,0.9351,,308.6466,308.8504,,,,,,,,42,-169,16,72,114,113,168,27,67,-215,-64,-216,-220,-215,-162,214,-28,114,-68,116,-167,-116,66,-124,118,360,180,270,360,270,270,270,270,360,270,270,,,,,,,,,,,308.8506,308.8508,,0,62,62,62,1,4,repeated,,,,,,,,,,,,,,,,,,,,,,,,,,,,,,,,,,,,,,,,,,,,,,,,,
,,999,12,xxx,F,18,2023-11-01_14h39.51.717,MouseEye_CC,2023.2.2,MacIntel,60.0024001,1.178785182,,,2560,1440,54.175,3.47,"204.23, 165.85, 163.76, 158.73, 161.35, 145.4, 147.06",589.53,9.456281425,32.81329654,27.83653633,Passed,109.9245434,,,,,,,,,,,,,,,,,,,,training,4,16,180,right,s,,,,,308.8516,308.8859,33.00598509,0.365661621,-3.100006104,1,0,0,0.0341,fixationPoint,308.8859,308.9825,308.983,310.2798,33.00598509,9430.281456,568.1744577,s,1,1.2853,,310.2799,310.4694,,,,,,,,68,114,-68,216,16,127,120,121,68,-216,217,-116,27,-212,70,-120,-32,-21,-172,-124,-64,21,-72,219,-168,360,270,180,360,90,90,270,360,270,180,360,,,,,,,,,,,310.4694,312.0859,space,0,63,63,63,1,11,novel,1.6105,,,,,,,,,,,,,,,,,,,,,,,,,,,,,,,,,,,,,,,,,,,,,,,,
,,999,12,xxx,F,18,2023-11-01_14h39.51.717,MouseEye_CC,2023.2.2,MacIntel,60.0024001,1.178785182,,,2560,1440,54.175,3.47,"204.23, 165.85, 163.76, 158.73, 161.35, 145.4, 147.06",589.53,9.456281425,32.81329654,27.83653633,Passed,109.9245434,,,,,,,,,,,,,,,,,,,,training,5,1,0,left,a,,,,,312.086,312.9178,33.00598509,0.1875,-3.100006104,1,0,0,0.8314,fixationPoint,312.9179,313.0167,313.0168,314.2989,33.00598509,9430.281456,568.1744577,a,1,1.2666,,314.2992,314.5004,,,,,,,,49,164,29,-216,126,-28,32,-169,16,-161,-171,-120,-32,-64,-164,210,-74,174,-216,224,-223,172,76,79,165,180,270,360,180,270,90,90,180,270,270,90,,,,,,,,,,,314.5006,314.5028,,0,64,64,64,1,13,novel,,,,,,,,,,,,,,,,,,,,,,,,,,,,,,,,,,,,,,,,,,,,,,,,,
,,999,12,xxx,F,18,2023-11-01_14h39.51.717,MouseEye_CC,2023.2.2,MacIntel,60.0024001,1.178785182,,,2560,1440,54.175,3.47,"204.23, 165.85, 163.76, 158.73, 161.35, 145.4, 147.06",589.53,9.456281425,32.81329654,27.83653633,Passed,109.9245434,,,,,,,,,,,,,,,,,,,,training,5,2,0,left,a,,,,,314.5032,314.5663,33.00598509,0.1875,-3.100006104,1,0,0,0.0629,fixationPoint,314.5663,314.6658,314.6659,316.2644,33.00598509,9430.281456,568.1744577,a,1,1.5943,,316.2644,316.4649,,,,,,,,38,121,68,-75,222,-28,32,-171,68,-215,-162,-215,-64,-216,-128,21,-72,24,-166,210,-74,79,165,172,166,360,90,90,180,90,180,270,180,90,270,180,,,,,,,,,,,316.465,316.466,,0,65,65,65,1,2,repeated,,,,,,,,,,,,,,,,,,,,,,,,,,,,,,,,,,,,,,,,,,,,,,,,,
,,999,12,xxx,F,18,2023-11-01_14h39.51.717,MouseEye_CC,2023.2.2,MacIntel,60.0024001,1.178785182,,,2560,1440,54.175,3.47,"204.23, 165.85, 163.76, 158.73, 161.35, 145.4, 147.06",589.53,9.456281425,32.81329654,27.83653633,Passed,109.9245434,,,,,,,,,,,,,,,,,,,,training,5,3,180,right,s,,,,,316.4665,317.0501,33.00598509,0.1875,-3.100006104,1,0,0,0.5835,fixationPoint,317.0501,317.1489,317.1489,318.3477,33.00598509,9430.281456,568.1744577,s,1,1.1838,,318.3478,318.5494,,,,,,,,23,-124,118,113,168,167,215,118,16,-163,-69,-79,-222,-216,-128,219,-168,114,-68,171,-24,-20,165,-73,160,180,360,270,90,90,270,360,360,90,180,360,,,,,,,,,,,318.5525,318.5529,,0,66,66,66,1,15,novel,,,,,,,,,,,,,,,,,,,,,,,,,,,,,,,,,,,,,,,,,,,,,,,,,
,,999,12,xxx,F,18,2023-11-01_14h39.51.717,MouseEye_CC,2023.2.2,MacIntel,60.0024001,1.178785182,,,2560,1440,54.175,3.47,"204.23, 165.85, 163.76, 158.73, 161.35, 145.4, 147.06",589.53,9.456281425,32.81329654,27.83653633,Passed,109.9245434,,,,,,,,,,,,,,,,,,,,training,5,4,180,right,s,,,,,318.5534,318.5693,33.00598509,0.1875,-3.100006104,1,0,0,0.0157,fixationPoint,318.5693,318.672,318.672,319.3821,33.00598509,9430.281456,568.1744577,s,1,0.6962,,319.3822,319.5707,,,,,,,,33,-116,66,164,29,172,166,172,76,-123,-161,-163,-69,-21,-172,120,-120,162,-65,210,-74,-166,163,-75,222,180,90,90,180,270,90,270,360,180,270,270,,,,,,,,,,,319.5708,319.5709,,0,67,67,67,1,3,repeated,,,,,,,,,,,,,,,,,,,,,,,,,,,,,,,,,,,,,,,,,,,,,,,,,
,,999,12,xxx,F,18,2023-11-01_14h39.51.717,MouseEye_CC,2023.2.2,MacIntel,60.0024001,1.178785182,,,2560,1440,54.175,3.47,"204.23, 165.85, 163.76, 158.73, 161.35, 145.4, 147.06",589.53,9.456281425,32.81329654,27.83653633,Passed,109.9245434,,,,,,,,,,,,,,,,,,,,training,5,5,0,left,a,,,,,319.5712,319.6034,33.00598509,0.1875,-3.100006104,1,0,0,0.0321,fixationPoint,319.6034,319.6967,319.6967,320.8153,33.00598509,9430.281456,568.1744577,a,1,1.101,,320.8156,321.0173,,,,,,,,83,-123,-161,215,164,167,215,16,173,-80,79,-211,161,-68,21,116,-167,26,-20,78,-16,-124,-64,-21,-172,90,270,360,180,270,180,180,270,270,180,270,,,,,,,,,,,321.0173,321.0175,,0,68,68,68,1,9,novel,,,,,,,,,,,,,,,,,,,,,,,,,,,,,,,,,,,,,,,,,,,,,,,,,
,,999,12,xxx,F,18,2023-11-01_14h39.51.717,MouseEye_CC,2023.2.2,MacIntel,60.0024001,1.178785182,,,2560,1440,54.175,3.47,"204.23, 165.85, 163.76, 158.73, 161.35, 145.4, 147.06",589.53,9.456281425,32.81329654,27.83653633,Passed,109.9245434,,,,,,,,,,,,,,,,,,,,training,5,6,0,left,a,,,,,321.0182,321.0383,33.00598509,0.1875,-3.100006104,1,0,0,0.0201,fixationPoint,321.0384,321.1331,321.1332,321.9634,33.00598509,9430.281456,568.1744577,a,1,0.8218,,321.9634,322.1618,,,,,,,,63,-124,-64,68,212,172,166,114,208,-209,25,-216,126,-212,70,214,-28,128,-25,210,-74,-123,-161,-70,-73,90,180,360,180,360,270,180,180,180,360,90,,,,,,,,,,,322.1619,322.1619,,0,69,69,69,1,10,novel,,,,,,,,,,,,,,,,,,,,,,,,,,,,,,,,,,,,,,,,,,,,,,,,,
,,999,12,xxx,F,18,2023-11-01_14h39.51.717,MouseEye_CC,2023.2.2,MacIntel,60.0024001,1.178785182,,,2560,1440,54.175,3.47,"204.23, 165.85, 163.76, 158.73, 161.35, 145.4, 147.06",589.53,9.456281425,32.81329654,27.83653633,Passed,109.9245434,,,,,,,,,,,,,,,,,,,,training,5,7,180,right,s,,,,,322.1621,322.1959,33.00598509,0.1875,-3.100006104,1,0,0,0.0337,fixationPoint,322.1959,322.2986,322.2986,323.0502,33.00598509,9430.281456,568.1744577,s,1,0.7401,,323.0502,323.249,,,,,,,,71,-216,-128,164,29,22,28,16,173,-73,160,-169,16,-160,124,214,-28,174,-216,219,-168,-161,-171,-69,-24,90,360,270,90,360,270,270,360,90,270,180,,,,,,,,,,,323.2491,323.2525,,0,70,70,70,1,6,repeated,,,,,,,,,,,,,,,,,,,,,,,,,,,,,,,,,,,,,,,,,,,,,,,,,
,,999,12,xxx,F,18,2023-11-01_14h39.51.717,MouseEye_CC,2023.2.2,MacIntel,60.0024001,1.178785182,,,2560,1440,54.175,3.47,"204.23, 165.85, 163.76, 158.73, 161.35, 145.4, 147.06",589.53,9.456281425,32.81329654,27.83653633,Passed,109.9245434,,,,,,,,,,,,,,,,,,,,training,5,8,180,right,s,,,,,323.2528,323.2668,33.00598509,0.1875,-3.100006104,1,0,0,0.0139,fixationPoint,323.2668,323.3654,323.3657,324.9834,33.00598509,9430.281456,568.1744577,s,1,1.6013,,324.9837,325.1791,,,,,,,,30,220,121,-75,222,-216,126,-32,76,-216,-220,-161,-171,-64,-164,125,-215,26,-20,20,-120,172,76,72,114,270,180,90,180,90,180,180,270,90,180,360,,,,,,,,,,,325.1791,325.1792,,0,71,71,71,1,14,novel,,,,,,,,,,,,,,,,,,,,,,,,,,,,,,,,,,,,,,,,,,,,,,,,,
,,999,12,xxx,F,18,2023-11-01_14h39.51.717,MouseEye_CC,2023.2.2,MacIntel,60.0024001,1.178785182,,,2560,1440,54.175,3.47,"204.23, 165.85, 163.76, 158.73, 161.35, 145.4, 147.06",589.53,9.456281425,32.81329654,27.83653633,Passed,109.9245434,,,,,,,,,,,,,,,,,,,,training,5,9,180,right,s,,,,,325.1794,326.3033,33.00598509,0.1875,-3.100006104,1,0,0,1.1238,fixationPoint,326.3034,326.3965,326.3966,327.8666,33.00598509,9430.281456,568.1744577,s,1,1.4564,,327.8668,328.0665,,,,,,,,78,120,-120,72,114,79,165,172,76,-68,21,-212,70,-116,214,-69,-24,-168,-124,-163,-69,174,-216,69,-213,270,180,360,180,180,360,360,270,360,360,360,,,,,,,,,,,328.0665,328.0665,,0,72,72,72,1,7,repeated,,,,,,,,,,,,,,,,,,,,,,,,,,,,,,,,,,,,,,,,,,,,,,,,,
,,999,12,xxx,F,18,2023-11-01_14h39.51.717,MouseEye_CC,2023.2.2,MacIntel,60.0024001,1.178785182,,,2560,1440,54.175,3.47,"204.23, 165.85, 163.76, 158.73, 161.35, 145.4, 147.06",589.53,9.456281425,32.81329654,27.83653633,Passed,109.9245434,,,,,,,,,,,,,,,,,,,,training,5,10,0,left,a,,,,,328.0668,328.5676,33.00598509,0.1875,-3.100006104,1,0,0,0.5007,fixationPoint,328.5677,328.671,328.671,329.4806,33.00598509,9430.281456,568.1744577,a,1,0.8004,,329.4808,329.6839,,,,,,,,59,171,-24,68,212,118,16,172,76,-116,66,-216,126,-32,76,-215,-162,-23,-24,-163,-69,214,-28,20,-120,180,90,90,180,90,270,360,180,90,270,180,,,,,,,,,,,329.6839,329.6842,,0,73,73,73,1,12,novel,,,,,,,,,,,,,,,,,,,,,,,,,,,,,,,,,,,,,,,,,,,,,,,,,
,,999,12,xxx,F,18,2023-11-01_14h39.51.717,MouseEye_CC,2023.2.2,MacIntel,60.0024001,1.178785182,,,2560,1440,54.175,3.47,"204.23, 165.85, 163.76, 158.73, 161.35, 145.4, 147.06",589.53,9.456281425,32.81329654,27.83653633,Passed,109.9245434,,,,,,,,,,,,,,,,,,,,training,5,11,180,right,s,,,,,329.6847,329.7582,33.00598509,0.1875,-3.100006104,1,0,0,0.0733,fixationPoint,329.7582,329.849,329.849,330.6807,33.00598509,9430.281456,568.1744577,s,1,0.825,,330.6808,330.8818,,,,,,,,68,114,-68,27,67,16,173,127,120,-75,222,-124,118,-32,222,-114,-214,-124,-64,-28,-70,64,-80,174,-216,180,270,90,360,180,180,180,270,270,270,270,,,,,,,,,,,330.8818,330.882,,0,74,74,74,1,11,novel,,,,,,,,,,,,,,,,,,,,,,,,,,,,,,,,,,,,,,,,,,,,,,,,,
,,999,12,xxx,F,18,2023-11-01_14h39.51.717,MouseEye_CC,2023.2.2,MacIntel,60.0024001,1.178785182,,,2560,1440,54.175,3.47,"204.23, 165.85, 163.76, 158.73, 161.35, 145.4, 147.06",589.53,9.456281425,32.81329654,27.83653633,Passed,109.9245434,,,,,,,,,,,,,,,,,,,,training,5,12,0,left,a,,,,,330.8828,330.916,33.00598509,0.1875,-3.100006104,1,0,0,0.032,fixationPoint,330.9161,331.0166,331.0167,331.8496,33.00598509,9430.281456,568.1744577,a,1,0.8169,,331.8499,332.0522,,,,,,,,69,162,-65,218,74,172,76,121,68,-160,124,-124,118,-209,25,-28,-70,-120,-32,-123,-161,114,-68,67,-164,360,360,360,180,90,270,90,90,180,360,90,,,,,,,,,,,332.0523,332.0524,,0,75,75,75,1,8,repeated,,,,,,,,,,,,,,,,,,,,,,,,,,,,,,,,,,,,,,,,,,,,,,,,,
,,999,12,xxx,F,18,2023-11-01_14h39.51.717,MouseEye_CC,2023.2.2,MacIntel,60.0024001,1.178785182,,,2560,1440,54.175,3.47,"204.23, 165.85, 163.76, 158.73, 161.35, 145.4, 147.06",589.53,9.456281425,32.81329654,27.83653633,Passed,109.9245434,,,,,,,,,,,,,,,,,,,,training,5,13,180,right,s,,,,,332.0528,332.0655,33.00598509,0.1875,-3.100006104,1,0,0,0.0113,fixationPoint,332.0665,332.169,332.169,333.9153,33.00598509,9430.281456,568.1744577,s,1,1.7392,,333.9154,334.1159,,,,,,,,18,113,168,-73,160,-116,66,-124,163,-120,-32,-114,-214,-32,-121,24,-166,169,-117,211,-128,164,29,17,212,360,90,360,180,90,360,180,90,180,360,180,,,,,,,,,,,334.1159,334.116,,0,76,76,76,1,1,repeated,,,,,,,,,,,,,,,,,,,,,,,,,,,,,,,,,,,,,,,,,,,,,,,,,
,,999,12,xxx,F,18,2023-11-01_14h39.51.717,MouseEye_CC,2023.2.2,MacIntel,60.0024001,1.178785182,,,2560,1440,54.175,3.47,"204.23, 165.85, 163.76, 158.73, 161.35, 145.4, 147.06",589.53,9.456281425,32.81329654,27.83653633,Passed,109.9245434,,,,,,,,,,,,,,,,,,,,training,5,14,0,left,a,,,,,334.1162,334.835,33.00598509,0.1875,-3.100006104,1,0,0,0.7187,fixationPoint,334.8351,334.9325,334.9325,335.917,33.00598509,9430.281456,568.1744577,a,1,0.9664,,335.9172,336.1177,,,,,,,,32,-171,68,160,125,220,121,167,215,-224,-25,-163,-69,-79,-222,80,-115,163,-175,21,-72,-80,79,-211,161,270,180,180,90,360,360,270,180,270,180,90,,,,,,,,,,,336.1178,336.1179,,0,77,77,77,1,16,novel,,,,,,,,,,,,,,,,,,,,,,,,,,,,,,,,,,,,,,,,,,,,,,,,,
,,999,12,xxx,F,18,2023-11-01_14h39.51.717,MouseEye_CC,2023.2.2,MacIntel,60.0024001,1.178785182,,,2560,1440,54.175,3.47,"204.23, 165.85, 163.76, 158.73, 161.35, 145.4, 147.06",589.53,9.456281425,32.81329654,27.83653633,Passed,109.9245434,,,,,,,,,,,,,,,,,,,,training,5,15,180,right,s,,,,,336.1192,336.5987,33.00598509,0.1875,-3.100006104,1,0,0,0.4793,fixationPoint,336.5987,336.6999,336.6999,337.5487,33.00598509,9430.281456,568.1744577,s,1,0.8323,,337.5488,337.7474,,,,,,,,42,-169,16,72,114,113,168,27,67,-215,-64,-216,-220,-215,-162,214,-28,114,-68,116,-167,-116,66,-124,118,90,360,360,270,360,360,180,270,270,180,360,,,,,,,,,,,337.7475,337.7493,,0,78,78,78,1,4,repeated,,,,,,,,,,,,,,,,,,,,,,,,,,,,,,,,,,,,,,,,,,,,,,,,,
,,999,12,xxx,F,18,2023-11-01_14h39.51.717,MouseEye_CC,2023.2.2,MacIntel,60.0024001,1.178785182,,,2560,1440,54.175,3.47,"204.23, 165.85, 163.76, 158.73, 161.35, 145.4, 147.06",589.53,9.456281425,32.81329654,27.83653633,Passed,109.9245434,,,,,,,,,,,,,,,,,,,,training,5,16,0,left,a,,,,,337.7498,338.1822,33.00598509,0.1875,-3.100006104,1,0,0,0.4318,fixationPoint,338.1822,338.2714,338.2716,339.2647,33.00598509,9430.281456,568.1744577,a,1,0.989,,339.2648,339.4664,,,,,,,,52,-163,-20,27,67,215,164,164,29,-160,124,-212,70,-171,68,169,-117,80,-115,116,-167,-163,-69,-216,-128,270,360,180,90,90,90,360,90,270,360,270,,,,,,,,,,,339.4665,340.7176,space,0,79,79,79,1,5,repeated,1.2335,,,,,,,,,,,,,,,,,,,,,,,,,,,,,,,,,,,,,,,,,,,,,,,,
,,999,12,xxx,F,18,2023-11-01_14h39.51.717,MouseEye_CC,2023.2.2,MacIntel,60.0024001,1.178785182,,,2560,1440,54.175,3.47,"204.23, 165.85, 163.76, 158.73, 161.35, 145.4, 147.06",589.53,9.456281425,32.81329654,27.83653633,Passed,109.9245434,,,,,,,,,,,,,,,,,,,,training,6,1,180,right,s,,,,,340.7184,341.5305,33.00598509,0.184387207,-3.100006104,1,0,0,0.812,fixationPoint,341.5305,341.6188,341.6188,342.2666,33.00598509,9430.281456,568.1744577,s,1,0.6358,,342.2666,342.4663,,,,,,,,52,-163,-20,27,67,215,164,164,29,-160,124,-212,70,-171,68,169,-117,80,-115,116,-167,-163,-69,-216,-128,180,90,270,90,360,270,270,270,270,360,360,,,,,,,,,,,342.4666,342.4689,,0,80,80,80,1,5,repeated,,,,,,,,,,,,,,,,,,,,,,,,,,,,,,,,,,,,,,,,,,,,,,,,,
,,999,12,xxx,F,18,2023-11-01_14h39.51.717,MouseEye_CC,2023.2.2,MacIntel,60.0024001,1.178785182,,,2560,1440,54.175,3.47,"204.23, 165.85, 163.76, 158.73, 161.35, 145.4, 147.06",589.53,9.456281425,32.81329654,27.83653633,Passed,109.9245434,,,,,,,,,,,,,,,,,,,,training,6,2,0,left,a,,,,,342.4694,343.1001,33.00598509,0.184387207,-3.100006104,1,0,0,0.6305,fixationPoint,343.1002,343.2039,343.2039,344.4324,33.00598509,9430.281456,568.1744577,a,1,1.2156,,344.4324,344.6339,,,,,,,,68,114,-68,218,74,210,221,65,80,-216,217,-211,161,-209,25,-215,-64,-163,-69,-32,-121,64,-80,20,-120,90,180,180,270,270,270,360,180,180,270,360,,,,,,,,,,,344.6339,344.6341,,0,81,81,81,1,11,novel,,,,,,,,,,,,,,,,,,,,,,,,,,,,,,,,,,,,,,,,,,,,,,,,,
,,999,12,xxx,F,18,2023-11-01_14h39.51.717,MouseEye_CC,2023.2.2,MacIntel,60.0024001,1.178785182,,,2560,1440,54.175,3.47,"204.23, 165.85, 163.76, 158.73, 161.35, 145.4, 147.06",589.53,9.456281425,32.81329654,27.83653633,Passed,109.9245434,,,,,,,,,,,,,,,,,,,,training,6,3,180,right,s,,,,,344.6345,345.2875,33.00598509,-0.678100586,-0.984375,1,0,0,0.6529,fixationPoint,345.2876,345.3825,345.3827,346.4313,33.00598509,9430.281456,568.1744577,s,1,1.0394,,346.4313,346.6194,,,,,,,,71,-216,-128,164,29,22,28,16,173,-73,160,-169,16,-160,124,214,-28,174,-216,219,-168,-161,-171,-69,-24,180,180,270,90,180,180,180,90,90,270,90,,,,,,,,,,,346.6194,346.6195,,0,82,82,82,1,6,repeated,,,,,,,,,,,,,,,,,,,,,,,,,,,,,,,,,,,,,,,,,,,,,,,,,
,,999,12,xxx,F,18,2023-11-01_14h39.51.717,MouseEye_CC,2023.2.2,MacIntel,60.0024001,1.178785182,,,2560,1440,54.175,3.47,"204.23, 165.85, 163.76, 158.73, 161.35, 145.4, 147.06",589.53,9.456281425,32.81329654,27.83653633,Passed,109.9245434,,,,,,,,,,,,,,,,,,,,training,6,4,180,right,s,,,,,346.6197,346.6313,33.00598509,-1.181213379,-0.484375,1,0,0,0.0114,fixationPoint,346.6313,346.7295,346.7295,349.4788,33.00598509,9430.281456,568.1744577,s,1,2.7306,,349.4789,349.6786,,,,,,,,49,164,29,-124,118,-212,70,-209,25,-124,-64,-64,-164,-32,-121,20,-120,80,-115,120,-120,167,215,79,165,270,360,270,90,360,180,270,90,360,180,90,,,,,,,,,,,349.6786,349.6787,,0,83,83,83,1,13,novel,,,,,,,,,,,,,,,,,,,,,,,,,,,,,,,,,,,,,,,,,,,,,,,,,
,,999,12,xxx,F,18,2023-11-01_14h39.51.717,MouseEye_CC,2023.2.2,MacIntel,60.0024001,1.178785182,,,2560,1440,54.175,3.47,"204.23, 165.85, 163.76, 158.73, 161.35, 145.4, 147.06",589.53,9.456281425,32.81329654,27.83653633,Passed,109.9245434,,,,,,,,,,,,,,,,,,,,training,6,5,0,left,a,,,,,349.6789,350.051,33.00598509,-1.181213379,-0.484375,1,0,0,0.3719,fixationPoint,350.051,350.1502,350.1503,351.1193,33.00598509,9430.281456,568.1744577,a,1,0.9539,,351.1193,351.3168,,,,,,,,42,-169,16,72,114,113,168,27,67,-215,-64,-216,-220,-215,-162,214,-28,114,-68,116,-167,-116,66,-124,118,180,180,180,360,180,90,90,180,270,90,90,,,,,,,,,,,351.3169,351.3171,,0,84,84,84,1,4,repeated,,,,,,,,,,,,,,,,,,,,,,,,,,,,,,,,,,,,,,,,,,,,,,,,,
,,999,12,xxx,F,18,2023-11-01_14h39.51.717,MouseEye_CC,2023.2.2,MacIntel,60.0024001,1.178785182,,,2560,1440,54.175,3.47,"204.23, 165.85, 163.76, 158.73, 161.35, 145.4, 147.06",589.53,9.456281425,32.81329654,27.83653633,Passed,109.9245434,,,,,,,,,,,,,,,,,,,,training,6,6,180,right,s,,,,,351.3184,351.4339,33.00598509,-1.181213379,-0.484375,1,0,0,0.1154,fixationPoint,351.434,351.5366,351.5366,352.6323,33.00598509,9430.281456,568.1744577,s,1,1.0819,,352.6324,352.8335,,,,,,,,78,120,-120,72,114,79,165,172,76,-68,21,-212,70,-116,214,-69,-24,-168,-124,-163,-69,174,-216,69,-213,360,90,90,270,360,270,180,180,180,180,270,,,,,,,,,,,352.8336,352.8339,,0,85,85,85,1,7,repeated,,,,,,,,,,,,,,,,,,,,,,,,,,,,,,,,,,,,,,,,,,,,,,,,,
,,999,12,xxx,F,18,2023-11-01_14h39.51.717,MouseEye_CC,2023.2.2,MacIntel,60.0024001,1.178785182,,,2560,1440,54.175,3.47,"204.23, 165.85, 163.76, 158.73, 161.35, 145.4, 147.06",589.53,9.456281425,32.81329654,27.83653633,Passed,109.9245434,,,,,,,,,,,,,,,,,,,,training,6,7,180,right,s,,,,,352.8343,352.9833,33.00598509,-1.181213379,-0.484375,1,0,0,0.1489,fixationPoint,352.9834,353.0797,353.0798,354.4825,33.00598509,9430.281456,568.1744577,s,1,1.3953,,354.4825,354.6891,,,,,,,,30,220,121,-20,165,-166,163,-80,79,-28,-70,-123,-161,-216,-128,20,-120,26,-209,224,-223,216,16,113,168,90,360,180,360,180,180,180,90,360,270,90,,,,,,,,,,,354.6891,354.6892,,0,86,86,86,1,14,novel,,,,,,,,,,,,,,,,,,,,,,,,,,,,,,,,,,,,,,,,,,,,,,,,,
,,999,12,xxx,F,18,2023-11-01_14h39.51.717,MouseEye_CC,2023.2.2,MacIntel,60.0024001,1.178785182,,,2560,1440,54.175,3.47,"204.23, 165.85, 163.76, 158.73, 161.35, 145.4, 147.06",589.53,9.456281425,32.81329654,27.83653633,Passed,109.9245434,,,,,,,,,,,,,,,,,,,,training,6,8,0,left,a,,,,,354.6895,354.7208,33.00598509,-1.181213379,-0.484375,1,0,0,0.0312,fixationPoint,354.7209,354.8194,354.8195,355.6832,33.00598509,9430.281456,568.1744577,a,1,0.8473,,355.6833,355.8826,,,,,,,,38,121,68,-75,222,-28,32,-171,68,-215,-162,-215,-64,-216,-128,21,-72,24,-166,210,-74,79,165,172,166,360,360,270,180,270,270,90,90,180,180,90,,,,,,,,,,,355.8827,355.8828,,0,87,87,87,1,2,repeated,,,,,,,,,,,,,,,,,,,,,,,,,,,,,,,,,,,,,,,,,,,,,,,,,
,,999,12,xxx,F,18,2023-11-01_14h39.51.717,MouseEye_CC,2023.2.2,MacIntel,60.0024001,1.178785182,,,2560,1440,54.175,3.47,"204.23, 165.85, 163.76, 158.73, 161.35, 145.4, 147.06",589.53,9.456281425,32.81329654,27.83653633,Passed,109.9245434,,,,,,,,,,,,,,,,,,,,training,6,9,0,left,a,,,,,355.8831,355.9504,33.00598509,-1.181213379,-0.484375,1,0,0,0.067,fixationPoint,355.9505,356.0487,356.0489,357.1141,33.00598509,9430.281456,568.1744577,a,1,1.0512,,357.1141,357.3175,,,,,,,,33,-116,66,164,29,172,166,172,76,-123,-161,-163,-69,-21,-172,120,-120,162,-65,210,-74,-166,163,-75,222,360,180,180,360,180,360,270,360,180,90,360,,,,,,,,,,,357.3176,357.3178,,0,88,88,88,1,3,repeated,,,,,,,,,,,,,,,,,,,,,,,,,,,,,,,,,,,,,,,,,,,,,,,,,
,,999,12,xxx,F,18,2023-11-01_14h39.51.717,MouseEye_CC,2023.2.2,MacIntel,60.0024001,1.178785182,,,2560,1440,54.175,3.47,"204.23, 165.85, 163.76, 158.73, 161.35, 145.4, 147.06",589.53,9.456281425,32.81329654,27.83653633,Passed,109.9245434,,,,,,,,,,,,,,,,,,,,training,6,10,0,left,a,,,,,357.3182,357.4181,33.00598509,-1.181213379,-0.484375,1,0,0,0.0998,fixationPoint,357.4181,357.5139,357.514,358.7507,33.00598509,9430.281456,568.1744577,a,1,1.2173,,358.7509,358.9491,,,,,,,,83,-123,-161,218,74,210,221,68,212,-75,222,-171,68,-170,218,219,-168,26,-20,211,-128,-124,-64,-29,-210,360,270,270,360,180,270,270,360,180,270,180,,,,,,,,,,,358.9491,358.9493,,0,89,89,89,1,9,novel,,,,,,,,,,,,,,,,,,,,,,,,,,,,,,,,,,,,,,,,,,,,,,,,,
,,999,12,xxx,F,18,2023-11-01_14h39.51.717,MouseEye_CC,2023.2.2,MacIntel,60.0024001,1.178785182,,,2560,1440,54.175,3.47,"204.23, 165.85, 163.76, 158.73, 161.35, 145.4, 147.06",589.53,9.456281425,32.81329654,27.83653633,Passed,109.9245434,,,,,,,,,,,,,,,,,,,,training,6,11,0,left,a,,,,,358.9508,358.966,33.00598509,-1.181213379,-0.484375,1,0,0,0.015,fixationPoint,358.966,359.0659,359.066,360.5315,33.00598509,9430.281456,568.1744577,a,1,1.4513,,360.5316,360.7321,,,,,,,,23,-124,118,22,114,215,164,68,212,-28,-70,-79,-222,-29,-210,64,-80,80,-115,120,-120,-166,163,-116,214,270,270,90,180,180,360,90,180,180,90,270,,,,,,,,,,,360.7321,360.7325,,0,90,90,90,1,15,novel,,,,,,,,,,,,,,,,,,,,,,,,,,,,,,,,,,,,,,,,,,,,,,,,,
,,999,12,xxx,F,18,2023-11-01_14h39.51.717,MouseEye_CC,2023.2.2,MacIntel,60.0024001,1.178785182,,,2560,1440,54.175,3.47,"204.23, 165.85, 163.76, 158.73, 161.35, 145.4, 147.06",589.53,9.456281425,32.81329654,27.83653633,Passed,109.9245434,,,,,,,,,,,,,,,,,,,,training,6,12,180,right,s,,,,,360.7334,360.7508,33.00598509,-1.181213379,-0.484375,1,0,0,0.0172,fixationPoint,360.7509,360.8482,360.8498,361.8001,33.00598509,9430.281456,568.1744577,s,1,0.9345,,361.8002,362.0032,,,,,,,,59,171,-24,160,125,22,28,16,173,-124,163,-80,79,-216,217,-124,-64,-123,-161,-216,-128,69,-213,116,-167,360,90,180,90,180,180,360,270,360,270,270,,,,,,,,,,,362.0034,362.0036,,0,91,91,91,1,12,novel,,,,,,,,,,,,,,,,,,,,,,,,,,,,,,,,,,,,,,,,,,,,,,,,,
,,999,12,xxx,F,18,2023-11-01_14h39.51.717,MouseEye_CC,2023.2.2,MacIntel,60.0024001,1.178785182,,,2560,1440,54.175,3.47,"204.23, 165.85, 163.76, 158.73, 161.35, 145.4, 147.06",589.53,9.456281425,32.81329654,27.83653633,Passed,109.9245434,,,,,,,,,,,,,,,,,,,,training,6,13,180,right,s,,,,,362.0042,362.867,33.00598509,-1.181213379,-0.484375,1,0,0,0.8627,fixationPoint,362.867,362.9638,362.964,364.0498,33.00598509,9430.281456,568.1744577,s,1,1.0798,,364.0499,364.2458,,,,,,,,32,-171,68,16,173,172,76,22,28,-114,-214,-21,-172,-64,-164,26,-20,174,-216,26,-209,-124,118,-124,163,90,90,360,360,360,180,270,270,180,180,180,,,,,,,,,,,364.2458,364.2459,,0,92,92,92,1,16,novel,,,,,,,,,,,,,,,,,,,,,,,,,,,,,,,,,,,,,,,,,,,,,,,,,
,,999,12,xxx,F,18,2023-11-01_14h39.51.717,MouseEye_CC,2023.2.2,MacIntel,60.0024001,1.178785182,,,2560,1440,54.175,3.47,"204.23, 165.85, 163.76, 158.73, 161.35, 145.4, 147.06",589.53,9.456281425,32.81329654,27.83653633,Passed,109.9245434,,,,,,,,,,,,,,,,,,,,training,6,14,0,left,a,,,,,364.2461,364.9664,33.00598509,-1.181213379,-0.484375,1,0,0,0.7202,fixationPoint,364.9665,365.067,365.0676,367.0629,33.00598509,9430.281456,568.1744577,a,1,1.9826,,367.063,367.2654,,,,,,,,18,113,168,-73,160,-116,66,-124,163,-120,-32,-114,-214,-32,-121,24,-166,169,-117,211,-128,164,29,17,212,180,270,360,360,360,360,180,90,360,270,90,,,,,,,,,,,367.2654,367.2655,,0,93,93,93,1,1,repeated,,,,,,,,,,,,,,,,,,,,,,,,,,,,,,,,,,,,,,,,,,,,,,,,,
,,999,12,xxx,F,18,2023-11-01_14h39.51.717,MouseEye_CC,2023.2.2,MacIntel,60.0024001,1.178785182,,,2560,1440,54.175,3.47,"204.23, 165.85, 163.76, 158.73, 161.35, 145.4, 147.06",589.53,9.456281425,32.81329654,27.83653633,Passed,109.9245434,,,,,,,,,,,,,,,,,,,,training,6,15,0,left,a,,,,,367.2656,367.299,33.00598509,-1.181213379,-0.484375,1,0,0,0.0333,fixationPoint,367.299,367.3988,367.3988,368.8165,33.00598509,9430.281456,568.1744577,a,1,1.4022,,368.8166,369.0174,,,,,,,,69,162,-65,218,74,172,76,121,68,-160,124,-124,118,-209,25,-28,-70,-120,-32,-123,-161,114,-68,67,-164,180,270,270,270,270,360,270,270,180,90,180,,,,,,,,,,,369.0175,369.0176,,0,94,94,94,1,8,repeated,,,,,,,,,,,,,,,,,,,,,,,,,,,,,,,,,,,,,,,,,,,,,,,,,
,,999,12,xxx,F,18,2023-11-01_14h39.51.717,MouseEye_CC,2023.2.2,MacIntel,60.0024001,1.178785182,,,2560,1440,54.175,3.47,"204.23, 165.85, 163.76, 158.73, 161.35, 145.4, 147.06",589.53,9.456281425,32.81329654,27.83653633,Passed,109.9245434,,,,,,,,,,,,,,,,,,,,training,6,16,180,right,s,,,,,369.0181,369.6802,33.00598509,-1.181213379,-0.484375,1,0,0,0.6621,fixationPoint,369.6803,369.7825,369.7831,370.8504,33.00598509,9430.281456,568.1744577,s,1,1.0605,,370.8504,371.05,,,,,,,,63,-124,-64,210,221,68,212,160,125,-216,126,-20,165,-116,27,163,-175,67,-164,80,-115,-163,-20,-216,-128,180,180,270,360,180,360,270,90,180,360,90,,,,,,,,,,,371.0534,373.5327,space,0,95,95,95,1,10,novel,2.4679,,,,,,,,,,,,,,,,,,,,,,,,,,,,,,,,,,,,,,,,,,,,,,,,
,,999,12,xxx,F,18,2023-11-01_14h39.51.717,MouseEye_CC,2023.2.2,MacIntel,60.0024001,1.178785182,,,2560,1440,54.175,3.47,"204.23, 165.85, 163.76, 158.73, 161.35, 145.4, 147.06",589.53,9.456281425,32.81329654,27.83653633,Passed,109.9245434,,,,,,,,,,,,,,,,,,,,training,7,1,180,right,s,,,,,373.5405,376.4054,33.00598509,-2.496887207,-0.484375,1,0,0,2.8649,fixationPoint,376.4055,376.4993,376.4994,378.5493,33.00598509,9430.281456,568.1744577,s,1,2.04,,378.5493,378.7372,,,,,,,,18,113,168,-73,160,-116,66,-124,163,-120,-32,-114,-214,-32,-121,24,-166,169,-117,211,-128,164,29,17,212,360,360,180,360,90,180,270,270,270,90,90,,,,,,,,,,,378.7372,378.7378,,0,96,96,96,1,1,repeated,,,,,,,,,,,,,,,,,,,,,,,,,,,,,,,,,,,,,,,,,,,,,,,,,
,,999,12,xxx,F,18,2023-11-01_14h39.51.717,MouseEye_CC,2023.2.2,MacIntel,60.0024001,1.178785182,,,2560,1440,54.175,3.47,"204.23, 165.85, 163.76, 158.73, 161.35, 145.4, 147.06",589.53,9.456281425,32.81329654,27.83653633,Passed,109.9245434,,,,,,,,,,,,,,,,,,,,training,7,2,180,right,s,,,,,378.7379,379.413,33.00598509,-2.496887207,-0.484375,1,0,0,0.6749,fixationPoint,379.413,379.5151,379.517,380.6988,33.00598509,9430.281456,568.1744577,s,1,1.1721,,380.6989,380.9015,,,,,,,,32,-171,68,17,212,220,121,27,67,-161,-171,-224,-25,-123,-161,120,-120,210,-74,169,-117,-80,79,-169,16,90,270,270,180,360,360,180,180,90,90,270,,,,,,,,,,,380.9015,380.9017,,0,97,97,97,1,16,novel,,,,,,,,,,,,,,,,,,,,,,,,,,,,,,,,,,,,,,,,,,,,,,,,,
,,999,12,xxx,F,18,2023-11-01_14h39.51.717,MouseEye_CC,2023.2.2,MacIntel,60.0024001,1.178785182,,,2560,1440,54.175,3.47,"204.23, 165.85, 163.76, 158.73, 161.35, 145.4, 147.06",589.53,9.456281425,32.81329654,27.83653633,Passed,109.9245434,,,,,,,,,,,,,,,,,,,,training,7,3,0,left,a,,,,,380.9019,380.964,33.00598509,-2.496887207,-0.484375,1,0,0,0.062,fixationPoint,380.964,381.0701,381.0701,381.9006,33.00598509,9430.281456,568.1744577,a,1,0.8221,,381.9007,382.0993,,,,,,,,38,121,68,-75,222,-28,32,-171,68,-215,-162,-215,-64,-216,-128,21,-72,24,-166,210,-74,79,165,172,166,270,180,90,90,180,90,270,90,360,90,360,,,,,,,,,,,382.0993,382.0996,,0,98,98,98,1,2,repeated,,,,,,,,,,,,,,,,,,,,,,,,,,,,,,,,,,,,,,,,,,,,,,,,,
,,999,12,xxx,F,18,2023-11-01_14h39.51.717,MouseEye_CC,2023.2.2,MacIntel,60.0024001,1.178785182,,,2560,1440,54.175,3.47,"204.23, 165.85, 163.76, 158.73, 161.35, 145.4, 147.06",589.53,9.456281425,32.81329654,27.83653633,Passed,109.9245434,,,,,,,,,,,,,,,,,,,,training,7,4,180,right,s,,,,,382.1001,382.6837,33.00598509,-2.496887207,-0.484375,1,0,0,0.5831,fixationPoint,382.6838,382.7831,382.7832,384.0495,33.00598509,9430.281456,568.1744577,s,1,1.2477,,384.0496,384.2506,,,,,,,,71,-216,-128,164,29,22,28,16,173,-73,160,-169,16,-160,124,214,-28,174,-216,219,-168,-161,-171,-69,-24,90,90,360,360,90,90,90,270,270,360,270,,,,,,,,,,,384.2506,384.2509,,0,99,99,99,1,6,repeated,,,,,,,,,,,,,,,,,,,,,,,,,,,,,,,,,,,,,,,,,,,,,,,,,
,,999,12,xxx,F,18,2023-11-01_14h39.51.717,MouseEye_CC,2023.2.2,MacIntel,60.0024001,1.178785182,,,2560,1440,54.175,3.47,"204.23, 165.85, 163.76, 158.73, 161.35, 145.4, 147.06",589.53,9.456281425,32.81329654,27.83653633,Passed,109.9245434,,,,,,,,,,,,,,,,,,,,training,7,5,0,left,a,,,,,384.2515,384.3008,33.00598509,-2.496887207,-0.484375,1,0,0,0.0492,fixationPoint,384.3009,384.4007,384.4007,385.2991,33.00598509,9430.281456,568.1744577,a,1,0.8853,,385.2991,385.5006,,,,,,,,49,164,29,-80,79,-169,16,-116,214,-161,-171,-32,-121,-124,-64,128,-25,24,-166,125,-215,76,31,113,168,180,360,270,180,90,180,270,90,270,180,270,,,,,,,,,,,385.5007,385.5015,,0,100,100,100,1,13,novel,,,,,,,,,,,,,,,,,,,,,,,,,,,,,,,,,,,,,,,,,,,,,,,,,
,,999,12,xxx,F,18,2023-11-01_14h39.51.717,MouseEye_CC,2023.2.2,MacIntel,60.0024001,1.178785182,,,2560,1440,54.175,3.47,"204.23, 165.85, 163.76, 158.73, 161.35, 145.4, 147.06",589.53,9.456281425,32.81329654,27.83653633,Passed,109.9245434,,,,,,,,,,,,,,,,,,,,training,7,6,180,right,s,,,,,385.5023,386.0644,33.00598509,-2.496887207,-0.484375,1,0,0,0.562,fixationPoint,386.0645,386.1678,386.1678,387.0329,33.00598509,9430.281456,568.1744577,s,1,0.8507,,387.033,387.2367,,,,,,,,59,171,-24,76,31,72,114,113,168,-211,161,-209,25,-116,27,-161,-171,-64,-164,-215,-64,67,-164,64,-80,360,180,90,360,270,270,180,90,180,270,90,,,,,,,,,,,387.2367,387.2369,,0,101,101,101,1,12,novel,,,,,,,,,,,,,,,,,,,,,,,,,,,,,,,,,,,,,,,,,,,,,,,,,
,,999,12,xxx,F,18,2023-11-01_14h39.51.717,MouseEye_CC,2023.2.2,MacIntel,60.0024001,1.178785182,,,2560,1440,54.175,3.47,"204.23, 165.85, 163.76, 158.73, 161.35, 145.4, 147.06",589.53,9.456281425,32.81329654,27.83653633,Passed,109.9245434,,,,,,,,,,,,,,,,,,,,training,7,7,0,left,a,,,,,387.2371,387.7508,33.00598509,-2.496887207,-0.484375,1,0,0,0.5135,fixationPoint,387.7509,387.852,387.8522,389.4154,33.00598509,9430.281456,568.1744577,a,1,1.5547,,389.4154,389.6192,,,,,,,,83,-123,-161,218,74,216,16,118,16,-75,222,-32,76,-124,163,171,-24,64,-80,163,-175,-64,-164,-216,-220,180,360,270,90,180,180,90,180,270,90,90,,,,,,,,,,,389.6193,389.6193,,0,102,102,102,1,9,novel,,,,,,,,,,,,,,,,,,,,,,,,,,,,,,,,,,,,,,,,,,,,,,,,,
,,999,12,xxx,F,18,2023-11-01_14h39.51.717,MouseEye_CC,2023.2.2,MacIntel,60.0024001,1.178785182,,,2560,1440,54.175,3.47,"204.23, 165.85, 163.76, 158.73, 161.35, 145.4, 147.06",589.53,9.456281425,32.81329654,27.83653633,Passed,109.9245434,,,,,,,,,,,,,,,,,,,,training,7,8,180,right,s,,,,,389.6194,390.2012,33.00598509,-2.496887207,-0.484375,1,0,0,0.5816,fixationPoint,390.2013,390.3031,390.3031,391.2328,33.00598509,9430.281456,568.1744577,s,1,0.9245,,391.2328,391.4326,,,,,,,,63,-124,-64,76,31,127,120,160,125,-216,126,-160,124,-68,21,128,-25,163,-175,64,-80,-120,-32,-29,-210,180,180,90,90,180,360,270,90,180,90,90,,,,,,,,,,,391.4326,391.4329,,0,103,103,103,1,10,novel,,,,,,,,,,,,,,,,,,,,,,,,,,,,,,,,,,,,,,,,,,,,,,,,,
,,999,12,xxx,F,18,2023-11-01_14h39.51.717,MouseEye_CC,2023.2.2,MacIntel,60.0024001,1.178785182,,,2560,1440,54.175,3.47,"204.23, 165.85, 163.76, 158.73, 161.35, 145.4, 147.06",589.53,9.456281425,32.81329654,27.83653633,Passed,109.9245434,,,,,,,,,,,,,,,,,,,,training,7,9,180,right,s,,,,,391.4357,391.4515,33.00598509,-2.496887207,-0.484375,1,0,0,0.0158,fixationPoint,391.4516,391.5512,391.5512,392.6012,33.00598509,9430.281456,568.1744577,s,1,1.0337,,392.6014,392.8001,,,,,,,,52,-163,-20,27,67,215,164,164,29,-160,124,-212,70,-171,68,169,-117,80,-115,116,-167,-163,-69,-216,-128,360,90,90,180,360,90,270,180,90,90,360,,,,,,,,,,,392.8006,392.8009,,0,104,104,104,1,5,repeated,,,,,,,,,,,,,,,,,,,,,,,,,,,,,,,,,,,,,,,,,,,,,,,,,
,,999,12,xxx,F,18,2023-11-01_14h39.51.717,MouseEye_CC,2023.2.2,MacIntel,60.0024001,1.178785182,,,2560,1440,54.175,3.47,"204.23, 165.85, 163.76, 158.73, 161.35, 145.4, 147.06",589.53,9.456281425,32.81329654,27.83653633,Passed,109.9245434,,,,,,,,,,,,,,,,,,,,training,7,10,180,right,s,,,,,392.8023,393.4157,33.00598509,-2.496887207,-0.484375,1,0,0,0.6128,fixationPoint,393.4158,393.5136,393.5136,394.7494,33.00598509,9430.281456,568.1744577,s,1,1.2194,,394.7496,394.9492,,,,,,,,69,162,-65,218,74,172,76,121,68,-160,124,-124,118,-209,25,-28,-70,-120,-32,-123,-161,114,-68,67,-164,360,270,270,270,180,180,270,360,90,270,360,,,,,,,,,,,394.9492,394.9496,,0,105,105,105,1,8,repeated,,,,,,,,,,,,,,,,,,,,,,,,,,,,,,,,,,,,,,,,,,,,,,,,,
,,999,12,xxx,F,18,2023-11-01_14h39.51.717,MouseEye_CC,2023.2.2,MacIntel,60.0024001,1.178785182,,,2560,1440,54.175,3.47,"204.23, 165.85, 163.76, 158.73, 161.35, 145.4, 147.06",589.53,9.456281425,32.81329654,27.83653633,Passed,109.9245434,,,,,,,,,,,,,,,,,,,,training,7,11,0,left,a,,,,,394.9501,395.0508,33.00598509,-2.496887207,-0.484375,1,0,0,0.1006,fixationPoint,395.051,395.1499,395.15,396.5355,33.00598509,9430.281456,568.1744577,a,1,1.3812,,396.5357,396.732,,,,,,,,33,-116,66,164,29,172,166,172,76,-123,-161,-163,-69,-21,-172,120,-120,162,-65,210,-74,-166,163,-75,222,360,270,90,180,360,180,180,270,180,180,180,,,,,,,,,,,396.732,396.7347,,0,106,106,106,1,3,repeated,,,,,,,,,,,,,,,,,,,,,,,,,,,,,,,,,,,,,,,,,,,,,,,,,
,,999,12,xxx,F,18,2023-11-01_14h39.51.717,MouseEye_CC,2023.2.2,MacIntel,60.0024001,1.178785182,,,2560,1440,54.175,3.47,"204.23, 165.85, 163.76, 158.73, 161.35, 145.4, 147.06",589.53,9.456281425,32.81329654,27.83653633,Passed,109.9245434,,,,,,,,,,,,,,,,,,,,training,7,12,0,left,a,,,,,396.7352,397.4011,33.00598509,-2.496887207,-0.484375,1,0,0,0.6654,fixationPoint,397.4012,397.4983,397.4984,398.7498,33.00598509,9430.281456,568.1744577,a,1,1.2361,,398.7499,398.953,,,,,,,,68,114,-68,216,16,76,31,172,166,-73,160,-116,66,-209,25,-123,-161,-114,-214,-64,-164,24,-166,21,-72,360,180,270,90,270,270,360,270,360,90,360,,,,,,,,,,,398.9531,398.9534,,0,107,107,107,1,11,novel,,,,,,,,,,,,,,,,,,,,,,,,,,,,,,,,,,,,,,,,,,,,,,,,,
,,999,12,xxx,F,18,2023-11-01_14h39.51.717,MouseEye_CC,2023.2.2,MacIntel,60.0024001,1.178785182,,,2560,1440,54.175,3.47,"204.23, 165.85, 163.76, 158.73, 161.35, 145.4, 147.06",589.53,9.456281425,32.81329654,27.83653633,Passed,109.9245434,,,,,,,,,,,,,,,,,,,,training,7,13,0,left,a,,,,,398.9539,398.9654,33.00598509,-2.496887207,-0.484375,1,0,0,0.0112,fixationPoint,398.9657,399.0639,399.0639,399.8963,33.00598509,9430.281456,568.1744577,a,1,0.8182,,399.8964,400.101,,,,,,,,42,-169,16,72,114,113,168,27,67,-215,-64,-216,-220,-215,-162,214,-28,114,-68,116,-167,-116,66,-124,118,270,360,90,90,180,270,90,360,180,90,360,,,,,,,,,,,400.1011,400.1012,,0,108,108,108,1,4,repeated,,,,,,,,,,,,,,,,,,,,,,,,,,,,,,,,,,,,,,,,,,,,,,,,,
,,999,12,xxx,F,18,2023-11-01_14h39.51.717,MouseEye_CC,2023.2.2,MacIntel,60.0024001,1.178785182,,,2560,1440,54.175,3.47,"204.23, 165.85, 163.76, 158.73, 161.35, 145.4, 147.06",589.53,9.456281425,32.81329654,27.83653633,Passed,109.9245434,,,,,,,,,,,,,,,,,,,,training,7,14,0,left,a,,,,,400.1016,400.2028,33.00598509,-2.496887207,-0.484375,1,0,0,0.1007,fixationPoint,400.2028,400.3009,400.301,402.3503,33.00598509,9430.281456,568.1744577,a,1,2.0388,,402.3503,402.549,,,,,,,,23,-124,118,65,80,118,16,76,31,-215,-64,-216,-220,-32,-121,67,-164,114,-68,219,-168,-68,21,-116,66,270,360,270,360,360,270,180,180,360,270,180,,,,,,,,,,,402.5491,402.5493,,0,109,109,109,1,15,novel,,,,,,,,,,,,,,,,,,,,,,,,,,,,,,,,,,,,,,,,,,,,,,,,,
,,999,12,xxx,F,18,2023-11-01_14h39.51.717,MouseEye_CC,2023.2.2,MacIntel,60.0024001,1.178785182,,,2560,1440,54.175,3.47,"204.23, 165.85, 163.76, 158.73, 161.35, 145.4, 147.06",589.53,9.456281425,32.81329654,27.83653633,Passed,109.9245434,,,,,,,,,,,,,,,,,,,,training,7,15,0,left,a,,,,,402.5504,402.6008,33.00598509,-2.496887207,-0.484375,1,0,0,0.0502,fixationPoint,402.6009,402.7011,402.7012,403.9664,33.00598509,9430.281456,568.1744577,a,1,1.2534,,403.9664,404.1658,,,,,,,,78,120,-120,72,114,79,165,172,76,-68,21,-212,70,-116,214,-69,-24,-168,-124,-163,-69,174,-216,69,-213,360,270,90,180,90,360,360,90,180,90,360,,,,,,,,,,,404.1659,404.1661,,0,110,110,110,1,7,repeated,,,,,,,,,,,,,,,,,,,,,,,,,,,,,,,,,,,,,,,,,,,,,,,,,
,,999,12,xxx,F,18,2023-11-01_14h39.51.717,MouseEye_CC,2023.2.2,MacIntel,60.0024001,1.178785182,,,2560,1440,54.175,3.47,"204.23, 165.85, 163.76, 158.73, 161.35, 145.4, 147.06",589.53,9.456281425,32.81329654,27.83653633,Passed,109.9245434,,,,,,,,,,,,,,,,,,,,training,7,16,180,right,s,,,,,404.1665,404.2516,33.00598509,-2.496887207,-0.484375,1,0,0,0.0848,fixationPoint,404.2516,404.3506,404.3507,405.4484,33.00598509,9430.281456,568.1744577,s,1,1.086,,405.4484,405.6485,,,,,,,,30,220,121,-32,222,-216,217,-116,214,-28,-70,-215,-64,-79,-222,24,-166,174,-216,125,-215,65,80,68,212,90,180,180,270,270,180,270,180,180,270,180,,,,,,,,,,,405.6485,406.9988,space,0,111,111,111,1,14,novel,1.3336,,,,,,,,,,,,,,,,,,,,,,,,,,,,,,,,,,,,,,,,,,,,,,,,
,,999,12,xxx,F,18,2023-11-01_14h39.51.717,MouseEye_CC,2023.2.2,MacIntel,60.0024001,1.178785182,,,2560,1440,54.175,3.47,"204.23, 165.85, 163.76, 158.73, 161.35, 145.4, 147.06",589.53,9.456281425,32.81329654,27.83653633,Passed,109.9245434,,,,,,,,,,,,,,,,,,,,training,8,1,0,left,a,,,,,406.9997,407.8647,33.00598509,-2.674987793,-0.484375,1,0,0,0.8648,fixationPoint,407.8649,407.9528,407.9529,410.3331,33.00598509,9430.281456,568.1744577,a,1,2.3743,,410.3331,410.5332,,,,,,,,18,113,168,-73,160,-116,66,-124,163,-120,-32,-114,-214,-32,-121,24,-166,169,-117,211,-128,164,29,17,212,270,360,90,180,360,270,90,90,90,360,360,,,,,,,,,,,410.5332,410.5352,,0,112,112,112,1,1,repeated,,,,,,,,,,,,,,,,,,,,,,,,,,,,,,,,,,,,,,,,,,,,,,,,,
