InstrStartPage.started,InstrStartPage.stopped,participant,designid,prolificid,Gender,Age,date,expName,psychopyVersion,OS,frameRate,ratio_monitor2CRT,VirtualChinrest.started,VirtualChinrest.stopped,xRes,yRes,viewingdistance_cm,pixeldensity_px2mm,BallPos,squarePos,mm2degree,px2degree,CRT_px2degree,PassVirtualChinrest,foveaRadius_inPixel,InstrRedo.started,InstrRedo.stopped,VirtualChinrest_Redo.started,VirtualChinrest_Redo.stopped,Instruction1.started,Instruction1.stopped,keyPractice.started,keyPractice.stopped,key_keyprac.keys,key_keyprac.corr,key_keyprac.rt,key_keyprac.duration,keyPracFeedback.started,keyPracFeedback.stopped,keyPracLoop.thisRepN,keyPracLoop.thisTrialN,keyPracLoop.thisN,keyPracLoop.thisIndex,keyPracLoop.ran,phase,block,trial,targOrientdeg,targOrient,corrAnswer,Instruction2.started,Instruction2.stopped,Instruction3.started,Instruction3.stopped,fixation.started,fixation.stopped,fixationSize,mouseintial.x,mouseintial.y,mouseintial.leftButton,mouseintial.midButton,mouseintial.rightButton,mouseintial.time,mouseintial.clicked_name,greenFixation.started,greenFixation.stopped,trial.started,trial.stopped,letterSize,apertureSize,searchsize,key_respMain.keys,key_respMain.corr,key_respMain.rt,key_respMain.duration,trialFeedback.started,trialFeedback.stopped,trialsPractice.thisRepN,trialsPractice.thisTrialN,trialsPractice.thisN,trialsPractice.thisIndex,trialsPractice.ran,targetQuad,Tcondition,targcell,tlocx,tlocy,d1x,d1y,d2x,d2y,d3x,d3y,d4x,d4y,d5x,d5y,d6x,d6y,d7x,d7y,d8x,d8y,d9x,d9y,d10x,d10y,d11x,d11y,d1Orient,d2Orient,d3Orient,d4Orient,d5Orient,d6Orient,d7Orient,d8Orient,d9Orient,d10Orient,d11Orient,CheckInstr.started,CheckInstr.stopped,key_checkInstr.keys,key_checkInstr.corr,key_checkInstr.rt,key_checkInstr.duration,CheckInstr_FB.started,CheckInstr_FB.stopped,Instruction_MainExp.started,Instruction_MainExp.stopped,TakeABreak.started,TakeABreak.stopped,key_respBreak.keys,trials.thisRepN,trials.thisTrialN,trials.thisN,trials.thisIndex,trials.ran,configurationNumber,CCCondition,key_respBreak.rt,key_respBreak.duration,displayTestingPhase.started,displayTestingPhase.stopped,key_respTesting.keys,key_respTesting.corr,key_respTesting.rt,key_respTesting.duration,TakeABreak2.started,TakeABreak2.stopped,key_RespBreak.keys,Testingtrials.thisRepN,Testingtrials.thisTrialN,Testingtrials.thisN,Testingtrials.thisIndex,Testingtrials.ran,key_RespBreak.rt,key_RespBreak.duration,RecogQuestion.started,RecogQuestion.stopped,key_AnswerQues.keys,key_AnswerQues.rt,key_AnswerQues.duration,Disclose.started,Disclose.stopped,InstrRT.started,InstrRT.stopped,fixation_RT.started,fixation_RT.stopped,mouseInitial.x,mouseInitial.y,mouseInitial.leftButton,mouseInitial.midButton,mouseInitial.rightButton,mouseInitial.time,mouseInitial.clicked_name,displayRT.started,displayRT.stopped,key_respRT.keys,key_respRT.corr,key_respRT.rt,key_respRT.duration,RTtrials.thisRepN,RTtrials.thisTrialN,RTtrials.thisN,RTtrials.thisIndex,RTtrials.ran,EndOfExperiment.started,EndOfExperiment.stopped
0.0003,1.0235,9,9,${e://Field/PROLIFIC_PID,M,19,2023-11-03_06h55.32.379,MouseEye_CC,2023.2.2,Win32,59.99520038,1,,,,,,,,,,,,,,,,,,,,,,,,,,,,,,,,,,,,,,,,,,,,,,,,,,,,,,,,,,,,,,,,,,,,,,,,,,,,,,,,,,,,,,,,,,,,,,,,,,,,,,,,,,,,,,,,,,,,,,,,,,,,,,,,,,,,,,,,,,,,,,,,,,,,,,,,,,,,,,,,,,,,,,,,,,,,,,,,,
,,9,9,${e://Field/PROLIFIC_PID,M,19,2023-11-03_06h55.32.379,MouseEye_CC,2023.2.2,Win32,59.99520038,1.136738762,1.0246,45.8689,1536,864,41.013999999999996,4.42,"327.58, 317.23, 323.29, 324.45, 330.65, 330.99, 314.03",759.86,7.15902033,31.64286986,27.83653633,Passed,106.003614,,,,,,,,,,,,,,,,,,,,,,,,,,,,,,,,,,,,,,,,,,,,,,,,,,,,,,,,,,,,,,,,,,,,,,,,,,,,,,,,,,,,,,,,,,,,,,,,,,,,,,,,,,,,,,,,,,,,,,,,,,,,,,,,,,,,,,,,,,,,,,,,,,,,,,,,,,,,,,,,,,,,
,,9,9,${e://Field/PROLIFIC_PID,M,19,2023-11-03_06h55.32.379,MouseEye_CC,2023.2.2,Win32,59.99520038,1.136738762,,,1536,864,41.013999999999996,4.42,"327.58, 317.23, 323.29, 324.45, 330.65, 330.99, 314.03",759.86,7.15902033,31.64286986,27.83653633,Passed,106.003614,45.8692,45.8709,,,,,,,,,,,,,,,,,,,,,,,,,,,,,,,,,,,,,,,,,,,,,,,,,,,,,,,,,,,,,,,,,,,,,,,,,,,,,,,,,,,,,,,,,,,,,,,,,,,,,,,,,,,,,,,,,,,,,,,,,,,,,,,,,,,,,,,,,,,,,,,,,,,,,,,,,,,,,,,,,,
,,9,9,${e://Field/PROLIFIC_PID,M,19,2023-11-03_06h55.32.379,MouseEye_CC,2023.2.2,Win32,59.99520038,1.115861625,,,1536,864,42.269,4.21,"327.58, 317.23, 323.29, 324.45, 330.65, 330.99, 314.03",759.86,7.378081395,31.06172267,27.83653633,Passed,104.0567709,,,45.8712,89.1794,,,,,,,,,,,,,,,,,,,,,,,,,,,,,,,,,,,,,,,,,,,,,,,,,,,,,,,,,,,,,,,,,,,,,,,,,,,,,,,,,,,,,,,,,,,,,,,,,,,,,,,,,,,,,,,,,,,,,,,,,,,,,,,,,,,,,,,,,,,,,,,,,,,,,,,,,,,,,,,,
,,9,9,${e://Field/PROLIFIC_PID,M,19,2023-11-03_06h55.32.379,MouseEye_CC,2023.2.2,Win32,59.99520038,1.115861625,,,1536,864,42.269,4.21,"327.58, 317.23, 323.29, 324.45, 330.65, 330.99, 314.03",759.86,7.378081395,31.06172267,27.83653633,Passed,104.0567709,,,,,89.1796,112.1246,,,,,,,,,,,,,,,,,,,,,,,,,,,,,,,,,,,,,,,,,,,,,,,,,,,,,,,,,,,,,,,,,,,,,,,,,,,,,,,,,,,,,,,,,,,,,,,,,,,,,,,,,,,,,,,,,,,,,,,,,,,,,,,,,,,,,,,,,,,,,,,,,,,,,,,,,,,,,,
,,9,9,${e://Field/PROLIFIC_PID,M,19,2023-11-03_06h55.32.379,MouseEye_CC,2023.2.2,Win32,59.99520038,1.115861625,,,1536,864,42.269,4.21,"327.58, 317.23, 323.29, 324.45, 330.65, 330.99, 314.03",759.86,7.378081395,31.06172267,27.83653633,Passed,104.0567709,,,,,,,112.1513,117.8891,a,1,5.2143,,117.8895,118.39,0,0,0,0,1,practice,1,1,0,left,a,,,,,,,,,,,,,,,,,,,,,,,,,,,,,,,,,,,,,,,,,,,,,,,,,,,,,,,,,,,,,,,,,,,,,,,,,,,,,,,,,,,,,,,,,,,,,,,,,,,,,,,,,,,,,,,,,,,,,,,,,,,,,,,,,,,,,,,,,,,
,,9,9,${e://Field/PROLIFIC_PID,M,19,2023-11-03_06h55.32.379,MouseEye_CC,2023.2.2,Win32,59.99520038,1.115861625,,,1536,864,42.269,4.21,"327.58, 317.23, 323.29, 324.45, 330.65, 330.99, 314.03",759.86,7.378081395,31.06172267,27.83653633,Passed,104.0567709,,,,,,,118.394,119.8881,s,0,0.9688,,119.8883,120.3882,0,1,1,1,1,practice,1,2,0,left,a,,,,,,,,,,,,,,,,,,,,,,,,,,,,,,,,,,,,,,,,,,,,,,,,,,,,,,,,,,,,,,,,,,,,,,,,,,,,,,,,,,,,,,,,,,,,,,,,,,,,,,,,,,,,,,,,,,,,,,,,,,,,,,,,,,,,,,,,,,,
,,9,9,${e://Field/PROLIFIC_PID,M,19,2023-11-03_06h55.32.379,MouseEye_CC,2023.2.2,Win32,59.99520038,1.115861625,,,1536,864,42.269,4.21,"327.58, 317.23, 323.29, 324.45, 330.65, 330.99, 314.03",759.86,7.378081395,31.06172267,27.83653633,Passed,104.0567709,,,,,,,120.3892,122.1714,a,1,1.2543,,122.1716,122.6714,0,2,2,2,1,practice,1,3,0,left,a,,,,,,,,,,,,,,,,,,,,,,,,,,,,,,,,,,,,,,,,,,,,,,,,,,,,,,,,,,,,,,,,,,,,,,,,,,,,,,,,,,,,,,,,,,,,,,,,,,,,,,,,,,,,,,,,,,,,,,,,,,,,,,,,,,,,,,,,,,,
,,9,9,${e://Field/PROLIFIC_PID,M,19,2023-11-03_06h55.32.379,MouseEye_CC,2023.2.2,Win32,59.99520038,1.115861625,,,1536,864,42.269,4.21,"327.58, 317.23, 323.29, 324.45, 330.65, 330.99, 314.03",759.86,7.378081395,31.06172267,27.83653633,Passed,104.0567709,,,,,,,122.6722,124.171,s,1,0.9709,,124.1711,124.6709,0,3,3,3,1,practice,1,4,180,right,s,,,,,,,,,,,,,,,,,,,,,,,,,,,,,,,,,,,,,,,,,,,,,,,,,,,,,,,,,,,,,,,,,,,,,,,,,,,,,,,,,,,,,,,,,,,,,,,,,,,,,,,,,,,,,,,,,,,,,,,,,,,,,,,,,,,,,,,,,,,
,,9,9,${e://Field/PROLIFIC_PID,M,19,2023-11-03_06h55.32.379,MouseEye_CC,2023.2.2,Win32,59.99520038,1.115861625,,,1536,864,42.269,4.21,"327.58, 317.23, 323.29, 324.45, 330.65, 330.99, 314.03",759.86,7.378081395,31.06172267,27.83653633,Passed,104.0567709,,,,,,,124.6718,125.7382,s,1,0.5361,,125.7382,126.2373,0,4,4,4,1,practice,1,5,180,right,s,,,,,,,,,,,,,,,,,,,,,,,,,,,,,,,,,,,,,,,,,,,,,,,,,,,,,,,,,,,,,,,,,,,,,,,,,,,,,,,,,,,,,,,,,,,,,,,,,,,,,,,,,,,,,,,,,,,,,,,,,,,,,,,,,,,,,,,,,,,
,,9,9,${e://Field/PROLIFIC_PID,M,19,2023-11-03_06h55.32.379,MouseEye_CC,2023.2.2,Win32,59.99520038,1.115861625,,,1536,864,42.269,4.21,"327.58, 317.23, 323.29, 324.45, 330.65, 330.99, 314.03",759.86,7.378081395,31.06172267,27.83653633,Passed,104.0567709,,,,,,,126.2387,127.3872,a,1,0.6164,,127.3873,127.8872,0,5,5,5,1,practice,1,6,0,left,a,,,,,,,,,,,,,,,,,,,,,,,,,,,,,,,,,,,,,,,,,,,,,,,,,,,,,,,,,,,,,,,,,,,,,,,,,,,,,,,,,,,,,,,,,,,,,,,,,,,,,,,,,,,,,,,,,,,,,,,,,,,,,,,,,,,,,,,,,,,
,,9,9,${e://Field/PROLIFIC_PID,M,19,2023-11-03_06h55.32.379,MouseEye_CC,2023.2.2,Win32,59.99520038,1.115861625,,,1536,864,42.269,4.21,"327.58, 317.23, 323.29, 324.45, 330.65, 330.99, 314.03",759.86,7.378081395,31.06172267,27.83653633,Passed,104.0567709,,,,,,,127.8886,129.3368,s,1,0.9141,,129.3369,129.8374,0,6,6,6,1,practice,1,7,180,right,s,,,,,,,,,,,,,,,,,,,,,,,,,,,,,,,,,,,,,,,,,,,,,,,,,,,,,,,,,,,,,,,,,,,,,,,,,,,,,,,,,,,,,,,,,,,,,,,,,,,,,,,,,,,,,,,,,,,,,,,,,,,,,,,,,,,,,,,,,,,
,,9,9,${e://Field/PROLIFIC_PID,M,19,2023-11-03_06h55.32.379,MouseEye_CC,2023.2.2,Win32,59.99520038,1.115861625,,,1536,864,42.269,4.21,"327.58, 317.23, 323.29, 324.45, 330.65, 330.99, 314.03",759.86,7.378081395,31.06172267,27.83653633,Passed,104.0567709,,,,,,,,,,,,,,,,,,,,,,,,,,129.8383,164.2844,,,,,,,,,,,,,,,,,,,,,,,,,,,,,,,,,,,,,,,,,,,,,,,,,,,,,,,,,,,,,,,,,,,,,,,,,,,,,,,,,,,,,,,,,,,,,,,,,,,,,,,,,,,,,,,,,,,,,,,,,,,,,,,,,,,,,,,,,
,,9,9,${e://Field/PROLIFIC_PID,M,19,2023-11-03_06h55.32.379,MouseEye_CC,2023.2.2,Win32,59.99520038,1.115861625,,,1536,864,42.269,4.21,"327.58, 317.23, 323.29, 324.45, 330.65, 330.99, 314.03",759.86,7.378081395,31.06172267,27.83653633,Passed,104.0567709,,,,,,,,,,,,,,,,,,,,,,,,,,,,164.2849,165.7331,,,,,,,,,,,,,,,,,,,,,,,,,,,,,,,,,,,,,,,,,,,,,,,,,,,,,,,,,,,,,,,,,,,,,,,,,,,,,,,,,,,,,,,,,,,,,,,,,,,,,,,,,,,,,,,,,,,,,,,,,,,,,,,,,,,,,,,
,,9,9,${e://Field/PROLIFIC_PID,M,19,2023-11-03_06h55.32.379,MouseEye_CC,2023.2.2,Win32,59.99520038,1.115861625,,,1536,864,42.269,4.21,"327.58, 317.23, 323.29, 324.45, 330.65, 330.99, 314.03",759.86,7.378081395,31.06172267,27.83653633,Passed,104.0567709,,,,,,,,,,,,,,,,,,,,practice,0,1,0,left,a,,,,,165.7749,172.3162,31.24412551,2.5,-6.100006104,1,0,0,6.5406,fixationPoint,172.3173,172.4149,172.4156,173.966,31.24412551,8926.893002,537.8453033,s,0,1.5241,,173.9662,177.9653,0,0,0,0,1,4,sparse,90,217,-164,68,123,222,26,214,216,-218,159,-120,223,-110,82,-115,-130,-224,-120,-68,-219,79,-175,19,-128,90,270,360,90,270,270,180,90,90,90,270,,,,,,,,,,,,,,,,,,,,,,,,,,,,,,,,,,,,,,,,,,,,,,,,,,,,,,,,,,,,,,,,,,,,,
,,9,9,${e://Field/PROLIFIC_PID,M,19,2023-11-03_06h55.32.379,MouseEye_CC,2023.2.2,Win32,59.99520038,1.115861625,,,1536,864,42.269,4.21,"327.58, 317.23, 323.29, 324.45, 330.65, 330.99, 314.03",759.86,7.378081395,31.06172267,27.83653633,Passed,104.0567709,,,,,,,,,,,,,,,,,,,,practice,0,2,0,left,a,,,,,177.9682,179.3983,31.24412551,2.5,-6.100006104,1,0,0,1.4292,fixationPoint,179.3987,179.4975,179.4977,182.7811,31.24412551,8926.893002,537.8453033,s,0,3.2698,,182.7814,186.7798,0,1,1,1,1,1,rich,39,169,66,-126,125,-169,169,-130,19,-169,-116,-125,-167,-224,-216,218,-129,171,-218,18,-208,166,26,17,170,180,90,360,270,90,90,90,270,180,180,270,,,,,,,,,,,,,,,,,,,,,,,,,,,,,,,,,,,,,,,,,,,,,,,,,,,,,,,,,,,,,,,,,,,,,
,,9,9,${e://Field/PROLIFIC_PID,M,19,2023-11-03_06h55.32.379,MouseEye_CC,2023.2.2,Win32,59.99520038,1.115861625,,,1536,864,42.269,4.21,"327.58, 317.23, 323.29, 324.45, 330.65, 330.99, 314.03",759.86,7.378081395,31.06172267,27.83653633,Passed,104.0567709,,,,,,,,,,,,,,,,,,,,practice,0,3,0,left,a,,,,,186.7823,196.3458,31.24412551,-1.5,-2.100006104,1,0,0,9.5625,fixationPoint,196.3459,196.445,196.4451,198.9947,31.24412551,8926.893002,537.8453033,a,1,2.5291,,198.9948,199.1945,0,2,2,2,1,2,sparse,22,-162,126,222,26,17,170,126,172,-25,-117,-175,-206,-224,-216,116,-19,130,-174,217,-164,-218,159,-21,162,90,90,180,360,360,270,360,360,360,360,180,,,,,,,,,,,,,,,,,,,,,,,,,,,,,,,,,,,,,,,,,,,,,,,,,,,,,,,,,,,,,,,,,,,,,
,,9,9,${e://Field/PROLIFIC_PID,M,19,2023-11-03_06h55.32.379,MouseEye_CC,2023.2.2,Win32,59.99520038,1.115861625,,,1536,864,42.269,4.21,"327.58, 317.23, 323.29, 324.45, 330.65, 330.99, 314.03",759.86,7.378081395,31.06172267,27.83653633,Passed,104.0567709,,,,,,,,,,,,,,,,,,,,practice,0,4,180,right,s,,,,,199.1963,201.2777,31.24412551,-1.5,-2.100006104,1,0,0,2.0808,fixationPoint,201.2778,201.3777,201.3778,203.4281,31.24412551,8926.893002,537.8453033,s,1,2.0388,,203.4284,203.6276,0,3,3,3,1,4,sparse,76,19,-128,159,121,214,216,219,165,-218,159,-162,126,-219,119,-169,-116,-111,-31,-175,-206,18,-208,81,-114,90,270,180,180,270,180,360,360,360,270,360,,,,,,,,,,,,,,,,,,,,,,,,,,,,,,,,,,,,,,,,,,,,,,,,,,,,,,,,,,,,,,,,,,,,,
,,9,9,${e://Field/PROLIFIC_PID,M,19,2023-11-03_06h55.32.379,MouseEye_CC,2023.2.2,Win32,59.99520038,1.115861625,,,1536,864,42.269,4.21,"327.58, 317.23, 323.29, 324.45, 330.65, 330.99, 314.03",759.86,7.378081395,31.06172267,27.83653633,Passed,104.0567709,,,,,,,,,,,,,,,,,,,,practice,0,5,180,right,s,,,,,203.6292,211.5605,31.24412551,-1.5,-2.100006104,1,0,0,7.9309,fixationPoint,211.5606,211.6597,211.6598,212.2101,31.24412551,8926.893002,537.8453033,s,1,0.5332,,212.2104,212.4098,0,4,4,4,1,3,sparse,85,-19,-173,219,165,68,123,214,216,-160,68,-64,120,-226,34,162,-21,224,-216,167,-163,-167,-74,-224,-216,360,360,360,90,180,270,90,360,270,270,360,,,,,,,,,,,,,,,,,,,,,,,,,,,,,,,,,,,,,,,,,,,,,,,,,,,,,,,,,,,,,,,,,,,,,
,,9,9,${e://Field/PROLIFIC_PID,M,19,2023-11-03_06h55.32.379,MouseEye_CC,2023.2.2,Win32,59.99520038,1.115861625,,,1536,864,42.269,4.21,"327.58, 317.23, 323.29, 324.45, 330.65, 330.99, 314.03",759.86,7.378081395,31.06172267,27.83653633,Passed,104.0567709,,,,,,,,,,,,,,,,,,,,practice,0,6,180,right,s,,,,,212.4115,213.526,31.24412551,-1.5,-2.100006104,1,0,0,1.1139,fixationPoint,213.5261,213.6262,213.6263,214.36,31.24412551,8926.893002,537.8453033,s,1,0.7211,,214.3602,214.5593,0,5,5,5,1,3,sparse,95,-21,-224,126,172,219,165,166,26,-166,207,-223,206,-219,119,169,-75,18,-208,224,-216,-72,-121,-115,-130,180,180,360,180,360,180,270,180,90,180,360,,,,,,,,,,,,,,,,,,,,,,,,,,,,,,,,,,,,,,,,,,,,,,,,,,,,,,,,,,,,,,,,,,,,,
,,9,9,${e://Field/PROLIFIC_PID,M,19,2023-11-03_06h55.32.379,MouseEye_CC,2023.2.2,Win32,59.99520038,1.115861625,,,1536,864,42.269,4.21,"327.58, 317.23, 323.29, 324.45, 330.65, 330.99, 314.03",759.86,7.378081395,31.06172267,27.83653633,Passed,104.0567709,,,,,,,,,,,,,,,,,,,,practice,0,7,0,left,a,,,,,214.5607,215.5426,31.24412551,-1.5,-2.100006104,1,0,0,0.9816,fixationPoint,215.5428,215.6426,215.6427,216.1592,31.24412551,8926.893002,537.8453033,a,1,0.4958,,216.1593,216.3595,0,6,6,6,1,1,rich,7,62,223,-166,207,-226,34,-162,126,-169,-116,-168,-160,-161,-27,15,-162,162,-21,79,-175,219,165,219,129,180,180,360,180,270,360,180,360,270,180,360,,,,,,,,,,,,,,,,,,,,,,,,,,,,,,,,,,,,,,,,,,,,,,,,,,,,,,,,,,,,,,,,,,,,,
,,9,9,${e://Field/PROLIFIC_PID,M,19,2023-11-03_06h55.32.379,MouseEye_CC,2023.2.2,Win32,59.99520038,1.115861625,,,1536,864,42.269,4.21,"327.58, 317.23, 323.29, 324.45, 330.65, 330.99, 314.03",759.86,7.378081395,31.06172267,27.83653633,Passed,104.0567709,,,,,,,,,,,,,,,,,,,,practice,0,8,180,right,s,,,,,216.363,217.1933,31.24412551,-1.5,-2.100006104,1,0,0,0.8292,fixationPoint,217.1937,217.2923,217.2924,218.1924,31.24412551,8926.893002,537.8453033,s,1,0.883,,218.1925,218.3921,0,7,7,7,1,2,sparse,24,-64,120,18,215,126,172,33,121,-206,-170,-64,-162,-218,-78,130,-174,211,-74,168,-130,-164,32,-21,162,90,180,270,360,180,90,180,180,180,360,270,,,,,,,,,,,,,,,,,,,,,,,,,,,,,,,,,,,,,,,,,,,,,,,,,,,,,,,,,,,,,,,,,,,,,
,,9,9,${e://Field/PROLIFIC_PID,M,19,2023-11-03_06h55.32.379,MouseEye_CC,2023.2.2,Win32,59.99520038,1.115861625,,,1536,864,42.269,4.21,"327.58, 317.23, 323.29, 324.45, 330.65, 330.99, 314.03",759.86,7.378081395,31.06172267,27.83653633,Passed,104.0567709,,,,,,,,,,,,,,,,,,,,practice,0,9,180,right,s,,,,,218.3937,218.9254,31.24412551,-1.5,-2.100006104,1,0,0,0.5309,fixationPoint,218.9255,219.0266,219.0267,219.826,31.24412551,8926.893002,537.8453033,a,0,0.7772,,219.8263,223.8246,0,8,8,8,1,3,sparse,85,-19,-173,127,30,62,223,217,67,-110,82,-21,162,-80,218,167,-163,126,-79,130,-174,-125,-167,-68,-219,360,360,360,180,360,360,180,270,90,360,180,,,,,,,,,,,,,,,,,,,,,,,,,,,,,,,,,,,,,,,,,,,,,,,,,,,,,,,,,,,,,,,,,,,,,
,,9,9,${e://Field/PROLIFIC_PID,M,19,2023-11-03_06h55.32.379,MouseEye_CC,2023.2.2,Win32,59.99520038,1.115861625,,,1536,864,42.269,4.21,"327.58, 317.23, 323.29, 324.45, 330.65, 330.99, 314.03",759.86,7.378081395,31.06172267,27.83653633,Passed,104.0567709,,,,,,,,,,,,,,,,,,,,practice,0,10,180,right,s,,,,,223.8257,225.1746,31.24412551,-1.5,-2.100006104,1,0,0,1.3488,fixationPoint,225.1747,225.2744,225.2744,226.2914,31.24412551,8926.893002,537.8453033,s,1,1.0005,,226.2914,226.4918,0,9,9,9,1,1,rich,9,160,209,-166,207,-226,34,-120,223,-224,-120,-118,-217,-218,-78,112,-209,126,-113,169,-75,178,160,110,129,180,90,90,270,360,270,360,180,360,180,360,,,,,,,,,,,,,,,,,,,,,,,,,,,,,,,,,,,,,,,,,,,,,,,,,,,,,,,,,,,,,,,,,,,,,
,,9,9,${e://Field/PROLIFIC_PID,M,19,2023-11-03_06h55.32.379,MouseEye_CC,2023.2.2,Win32,59.99520038,1.115861625,,,1536,864,42.269,4.21,"327.58, 317.23, 323.29, 324.45, 330.65, 330.99, 314.03",759.86,7.378081395,31.06172267,27.83653633,Passed,104.0567709,,,,,,,,,,,,,,,,,,,,practice,0,11,180,right,s,,,,,226.4938,227.2744,31.24412551,-1.5,-2.100006104,1,0,0,0.7801,fixationPoint,227.2745,227.3744,227.3745,228.3243,31.24412551,8926.893002,537.8453033,s,1,0.9428,,228.3245,228.5242,0,10,10,10,1,4,sparse,80,218,-129,62,223,159,121,110,129,-218,159,-223,206,-75,173,-169,-116,-118,-217,-125,-167,217,-164,169,-75,360,270,360,180,360,180,180,270,360,180,90,,,,,,,,,,,,,,,,,,,,,,,,,,,,,,,,,,,,,,,,,,,,,,,,,,,,,,,,,,,,,,,,,,,,,
,,9,9,${e://Field/PROLIFIC_PID,M,19,2023-11-03_06h55.32.379,MouseEye_CC,2023.2.2,Win32,59.99520038,1.115861625,,,1536,864,42.269,4.21,"327.58, 317.23, 323.29, 324.45, 330.65, 330.99, 314.03",759.86,7.378081395,31.06172267,27.83653633,Passed,104.0567709,,,,,,,,,,,,,,,,,,,,practice,0,12,0,left,a,,,,,228.5257,229.4915,31.24412551,-1.5,-2.100006104,1,0,0,0.9648,fixationPoint,229.4917,229.5908,229.5914,230.4915,31.24412551,8926.893002,537.8453033,a,1,0.8833,,230.4917,230.6905,0,11,11,11,1,3,sparse,75,-25,-117,110,129,125,63,214,216,-164,32,-27,117,-126,125,171,-218,126,-113,167,-163,-21,-224,-212,-21,270,180,180,360,180,270,360,270,360,180,270,,,,,,,,,,,,,,,,,,,,,,,,,,,,,,,,,,,,,,,,,,,,,,,,,,,,,,,,,,,,,,,,,,,,,
,,9,9,${e://Field/PROLIFIC_PID,M,19,2023-11-03_06h55.32.379,MouseEye_CC,2023.2.2,Win32,59.99520038,1.115861625,,,1536,864,42.269,4.21,"327.58, 317.23, 323.29, 324.45, 330.65, 330.99, 314.03",759.86,7.378081395,31.06172267,27.83653633,Passed,104.0567709,,,,,,,,,,,,,,,,,,,,,,,,,,,,,,,,,,,,,,,,,,,,,,,,,,,,,,,,,,,,,,,,,,,,,,,,,,,,,,,,,,,,,,,,,,,,,,,,230.6911,233.7578,a,1,3.0477,,,,,,,,,,,,,,,,,,,,,,,,,,,,,,,,,,,,,,,,,,,,,,,,,,,,,,,,,,,,,,,,
,,9,9,${e://Field/PROLIFIC_PID,M,19,2023-11-03_06h55.32.379,MouseEye_CC,2023.2.2,Win32,59.99520038,1.115861625,,,1536,864,42.269,4.21,"327.58, 317.23, 323.29, 324.45, 330.65, 330.99, 314.03",759.86,7.378081395,31.06172267,27.83653633,Passed,104.0567709,,,,,,,,,,,,,,,,,,,,,,,,,,,,,,,,,,,,,,,,,,,,,,,,,,,,,,,,,,,,,,,,,,,,,,,,,,,,,,,,,,,,,,,,,,,,,,,,,,,,,,233.7581,234.708,,,,,,,,,,,,,,,,,,,,,,,,,,,,,,,,,,,,,,,,,,,,,,,,,,,,,,,,,,,,,
,,9,9,${e://Field/PROLIFIC_PID,M,19,2023-11-03_06h55.32.379,MouseEye_CC,2023.2.2,Win32,59.99520038,1.115861625,,,1536,864,42.269,4.21,"327.58, 317.23, 323.29, 324.45, 330.65, 330.99, 314.03",759.86,7.378081395,31.06172267,27.83653633,Passed,104.0567709,,,,,,,,,,,,,,,,,,,,,,,,,,,,,,,,,,,,,,,,,,,,,,,,,,,,,,,,,,,,,,,,,,,,,,,,,,,,,,,,,,,,,,,,,,,,,,,,,,,,,,,,234.7083,236.6735,,,,,,,,,,,,,,,,,,,,,,,,,,,,,,,,,,,,,,,,,,,,,,,,,,,,,,,,,,,
,,9,9,${e://Field/PROLIFIC_PID,M,19,2023-11-03_06h55.32.379,MouseEye_CC,2023.2.2,Win32,59.99520038,1.115861625,,,1536,864,42.269,4.21,"327.58, 317.23, 323.29, 324.45, 330.65, 330.99, 314.03",759.86,7.378081395,31.06172267,27.83653633,Passed,104.0567709,,,,,,,,,,,,,,,,,,,,training,1,1,0,left,a,,,,,236.8108,238.5563,31.24412551,-1.5,-2.100006104,1,0,0,1.7454,fixationPoint,238.5565,238.6563,238.6565,239.623,31.24412551,8926.893002,537.8453033,a,1,0.9459,,239.6231,239.8238,,,,,,,,6,17,210,-218,124,-18,73,-24,224,-116,-24,-176,-224,-17,-64,167,-25,67,-128,217,-32,118,66,71,24,90,90,180,270,180,270,360,90,90,270,180,,,,,,,,,,,239.8256,239.8346,,0,0,0,0,1,14,novel,,,,,,,,,,,,,,,,,,,,,,,,,,,,,,,,,,,,,,,,,,,,,,,,,
,,9,9,${e://Field/PROLIFIC_PID,M,19,2023-11-03_06h55.32.379,MouseEye_CC,2023.2.2,Win32,59.99520038,1.115861625,,,1536,864,42.269,4.21,"327.58, 317.23, 323.29, 324.45, 330.65, 330.99, 314.03",759.86,7.378081395,31.06172267,27.83653633,Passed,104.0567709,,,,,,,,,,,,,,,,,,,,training,1,2,0,left,a,,,,,239.8358,240.4896,31.24412551,-1.5,-2.100006104,1,0,0,0.6535,fixationPoint,240.4896,240.5915,240.5916,244.0732,31.24412551,8926.893002,537.8453033,a,1,3.4609,,244.0732,244.2726,,,,,,,,50,224,31,-28,120,-68,19,-169,222,-21,-118,-224,-220,-176,-224,21,-169,22,-26,167,-25,118,66,162,219,270,270,90,270,270,180,270,360,270,270,90,,,,,,,,,,,244.2727,244.273,,0,1,1,1,1,13,novel,,,,,,,,,,,,,,,,,,,,,,,,,,,,,,,,,,,,,,,,,,,,,,,,,
,,9,9,${e://Field/PROLIFIC_PID,M,19,2023-11-03_06h55.32.379,MouseEye_CC,2023.2.2,Win32,59.99520038,1.115861625,,,1536,864,42.269,4.21,"327.58, 317.23, 323.29, 324.45, 330.65, 330.99, 314.03",759.86,7.378081395,31.06172267,27.83653633,Passed,104.0567709,,,,,,,,,,,,,,,,,,,,training,1,3,180,right,s,,,,,244.2753,245.1722,31.24412551,-1.5,-2.100006104,1,0,0,0.8966,fixationPoint,245.1724,245.273,245.273,245.9236,31.24412551,8926.893002,537.8453033,s,1,0.6325,,245.924,246.1221,,,,,,,,60,217,-32,122,124,220,72,127,173,-174,19,-218,124,-25,172,-160,-69,-176,-224,-211,-115,117,-172,165,-68,360,180,90,360,270,180,90,90,270,180,90,,,,,,,,,,,246.1222,246.1226,,0,2,2,2,1,7,repeated,,,,,,,,,,,,,,,,,,,,,,,,,,,,,,,,,,,,,,,,,,,,,,,,,
,,9,9,${e://Field/PROLIFIC_PID,M,19,2023-11-03_06h55.32.379,MouseEye_CC,2023.2.2,Win32,59.99520038,1.115861625,,,1536,864,42.269,4.21,"327.58, 317.23, 323.29, 324.45, 330.65, 330.99, 314.03",759.86,7.378081395,31.06172267,27.83653633,Passed,104.0567709,,,,,,,,,,,,,,,,,,,,training,1,4,180,right,s,,,,,246.1242,247.1218,31.24412551,-1.5,-2.100006104,1,0,0,0.9973,fixationPoint,247.1219,247.222,247.222,247.9394,31.24412551,8926.893002,537.8453033,s,1,0.7025,,247.9396,248.1386,,,,,,,,48,116,31,-66,176,-68,19,-77,71,-69,-122,-76,-17,-21,-118,160,-168,22,-26,121,-128,168,22,222,117,90,180,180,180,270,90,360,90,90,180,90,,,,,,,,,,,248.1387,248.1396,,0,3,3,3,1,1,repeated,,,,,,,,,,,,,,,,,,,,,,,,,,,,,,,,,,,,,,,,,,,,,,,,,
,,9,9,${e://Field/PROLIFIC_PID,M,19,2023-11-03_06h55.32.379,MouseEye_CC,2023.2.2,Win32,59.99520038,1.115861625,,,1536,864,42.269,4.21,"327.58, 317.23, 323.29, 324.45, 330.65, 330.99, 314.03",759.86,7.378081395,31.06172267,27.83653633,Passed,104.0567709,,,,,,,,,,,,,,,,,,,,training,1,5,0,left,a,,,,,248.1416,248.7388,31.24412551,-1.5,-2.100006104,1,0,0,0.597,fixationPoint,248.7388,248.8391,248.8392,249.4882,31.24412551,8926.893002,537.8453033,a,1,0.6365,,249.4883,249.6915,,,,,,,,95,-26,-222,69,168,26,161,66,213,-25,172,-174,19,-163,77,121,-128,123,-79,117,-172,-68,-165,-160,-69,270,180,360,360,90,360,270,360,90,360,90,,,,,,,,,,,249.6915,249.6918,,0,4,4,4,1,6,repeated,,,,,,,,,,,,,,,,,,,,,,,,,,,,,,,,,,,,,,,,,,,,,,,,,
,,9,9,${e://Field/PROLIFIC_PID,M,19,2023-11-03_06h55.32.379,MouseEye_CC,2023.2.2,Win32,59.99520038,1.115861625,,,1536,864,42.269,4.21,"327.58, 317.23, 323.29, 324.45, 330.65, 330.99, 314.03",759.86,7.378081395,31.06172267,27.83653633,Passed,104.0567709,,,,,,,,,,,,,,,,,,,,training,1,6,180,right,s,,,,,249.6924,250.372,31.24412551,-1.5,-2.100006104,1,0,0,0.6794,fixationPoint,250.3721,250.4718,250.4719,251.0893,31.24412551,8926.893002,537.8453033,s,1,0.6039,,251.0897,251.2887,,,,,,,,41,-216,24,28,72,26,161,168,65,-166,-20,-76,-17,-220,-72,68,-68,160,-168,113,-21,-30,26,-169,222,270,180,180,180,270,270,270,90,180,270,360,,,,,,,,,,,251.2887,251.2894,,0,5,5,5,1,15,novel,,,,,,,,,,,,,,,,,,,,,,,,,,,,,,,,,,,,,,,,,,,,,,,,,
,,9,9,${e://Field/PROLIFIC_PID,M,19,2023-11-03_06h55.32.379,MouseEye_CC,2023.2.2,Win32,59.99520038,1.115861625,,,1536,864,42.269,4.21,"327.58, 317.23, 323.29, 324.45, 330.65, 330.99, 314.03",759.86,7.378081395,31.06172267,27.83653633,Passed,104.0567709,,,,,,,,,,,,,,,,,,,,training,1,7,180,right,s,,,,,251.2908,251.8211,31.24412551,-1.5,-2.100006104,1,0,0,0.5302,fixationPoint,251.8212,251.9211,251.9212,252.538,31.24412551,8926.893002,537.8453033,s,1,0.6002,,252.5381,252.7378,,,,,,,,98,112,-215,116,31,69,168,112,220,-71,215,-24,224,-120,66,-67,-77,-160,-69,-220,-166,221,-162,162,-123,180,270,90,90,90,270,270,360,180,90,360,,,,,,,,,,,252.7378,252.7383,,0,6,6,6,1,12,novel,,,,,,,,,,,,,,,,,,,,,,,,,,,,,,,,,,,,,,,,,,,,,,,,,
,,9,9,${e://Field/PROLIFIC_PID,M,19,2023-11-03_06h55.32.379,MouseEye_CC,2023.2.2,Win32,59.99520038,1.115861625,,,1536,864,42.269,4.21,"327.58, 317.23, 323.29, 324.45, 330.65, 330.99, 314.03",759.86,7.378081395,31.06172267,27.83653633,Passed,104.0567709,,,,,,,,,,,,,,,,,,,,training,1,8,0,left,a,,,,,252.7395,253.5715,31.24412551,-1.5,-2.100006104,1,0,0,0.8314,fixationPoint,253.5716,253.671,253.6711,254.6068,31.24412551,8926.893002,537.8453033,s,0,0.9195,,254.607,258.6063,,,,,,,,76,25,-124,26,22,17,210,222,117,-161,112,-163,77,-218,124,-120,-120,-211,-115,-212,-20,67,-221,79,-28,270,360,180,270,360,180,360,90,360,360,90,,,,,,,,,,,258.6064,258.6068,,0,7,7,7,1,8,repeated,,,,,,,,,,,,,,,,,,,,,,,,,,,,,,,,,,,,,,,,,,,,,,,,,
,,9,9,${e://Field/PROLIFIC_PID,M,19,2023-11-03_06h55.32.379,MouseEye_CC,2023.2.2,Win32,59.99520038,1.115861625,,,1536,864,42.269,4.21,"327.58, 317.23, 323.29, 324.45, 330.65, 330.99, 314.03",759.86,7.378081395,31.06172267,27.83653633,Passed,104.0567709,,,,,,,,,,,,,,,,,,,,training,1,9,0,left,a,,,,,258.6083,259.9045,31.24412551,-1.5,-2.100006104,1,0,0,1.2959,fixationPoint,259.9047,260.0042,260.0043,260.587,31.24412551,8926.893002,537.8453033,a,1,0.5678,,260.5871,260.7876,,,,,,,,25,-28,120,71,24,26,161,168,22,-68,-165,-172,-175,-21,-118,68,-68,22,-26,21,-169,-174,19,-120,66,90,270,180,270,90,360,270,180,360,180,270,,,,,,,,,,,260.7876,260.788,,0,8,8,8,1,16,novel,,,,,,,,,,,,,,,,,,,,,,,,,,,,,,,,,,,,,,,,,,,,,,,,,
,,9,9,${e://Field/PROLIFIC_PID,M,19,2023-11-03_06h55.32.379,MouseEye_CC,2023.2.2,Win32,59.99520038,1.115861625,,,1536,864,42.269,4.21,"327.58, 317.23, 323.29, 324.45, 330.65, 330.99, 314.03",759.86,7.378081395,31.06172267,27.83653633,Passed,104.0567709,,,,,,,,,,,,,,,,,,,,training,1,10,180,right,s,,,,,260.7903,261.3032,31.24412551,-1.5,-2.100006104,1,0,0,0.5126,fixationPoint,261.3032,261.4033,261.4034,262.17,31.24412551,8926.893002,537.8453033,s,1,0.7554,,262.1702,262.3699,,,,,,,,58,113,-21,122,124,118,66,168,22,-30,26,-28,120,-120,213,-17,-64,-121,-162,-120,-120,160,-220,21,-169,270,180,90,180,90,90,360,90,270,270,90,,,,,,,,,,,262.37,262.3705,,0,9,9,9,1,11,novel,,,,,,,,,,,,,,,,,,,,,,,,,,,,,,,,,,,,,,,,,,,,,,,,,
,,9,9,${e://Field/PROLIFIC_PID,M,19,2023-11-03_06h55.32.379,MouseEye_CC,2023.2.2,Win32,59.99520038,1.115861625,,,1536,864,42.269,4.21,"327.58, 317.23, 323.29, 324.45, 330.65, 330.99, 314.03",759.86,7.378081395,31.06172267,27.83653633,Passed,104.0567709,,,,,,,,,,,,,,,,,,,,training,1,11,180,right,s,,,,,262.3717,262.8365,31.24412551,-1.5,-2.100006104,1,0,0,0.4641,fixationPoint,262.8365,262.9364,262.9364,263.7197,31.24412551,8926.893002,537.8453033,s,1,0.7606,,263.7198,263.9203,,,,,,,,43,-112,20,28,72,224,31,26,161,-224,-220,-18,-172,-116,-24,25,-124,22,-26,113,-21,-172,170,-25,172,180,270,270,90,90,270,360,180,180,360,180,,,,,,,,,,,263.9206,263.9216,,0,10,10,10,1,3,repeated,,,,,,,,,,,,,,,,,,,,,,,,,,,,,,,,,,,,,,,,,,,,,,,,,
,,9,9,${e://Field/PROLIFIC_PID,M,19,2023-11-03_06h55.32.379,MouseEye_CC,2023.2.2,Win32,59.99520038,1.115861625,,,1536,864,42.269,4.21,"327.58, 317.23, 323.29, 324.45, 330.65, 330.99, 314.03",759.86,7.378081395,31.06172267,27.83653633,Passed,104.0567709,,,,,,,,,,,,,,,,,,,,training,1,12,180,right,s,,,,,263.9243,264.3871,31.24412551,-1.5,-2.100006104,1,0,0,0.4624,fixationPoint,264.3873,264.4867,264.4868,265.2529,31.24412551,8926.893002,537.8453033,s,1,0.7486,,265.2531,265.4531,,,,,,,,61,-220,-72,162,219,224,210,67,77,-216,223,-169,222,-218,124,28,-68,113,-21,209,-115,-172,-175,-116,-224,180,360,270,90,180,180,360,180,90,180,360,,,,,,,,,,,265.4531,265.4535,,0,11,11,11,1,10,novel,,,,,,,,,,,,,,,,,,,,,,,,,,,,,,,,,,,,,,,,,,,,,,,,,
,,9,9,${e://Field/PROLIFIC_PID,M,19,2023-11-03_06h55.32.379,MouseEye_CC,2023.2.2,Win32,59.99520038,1.115861625,,,1536,864,42.269,4.21,"327.58, 317.23, 323.29, 324.45, 330.65, 330.99, 314.03",759.86,7.378081395,31.06172267,27.83653633,Passed,104.0567709,,,,,,,,,,,,,,,,,,,,training,1,13,180,right,s,,,,,265.4552,265.9862,31.24412551,-1.5,-2.100006104,1,0,0,0.5307,fixationPoint,265.9863,266.0861,266.0861,266.7862,31.24412551,8926.893002,537.8453033,s,1,0.677,,266.7863,266.986,,,,,,,,40,220,72,-25,172,-112,20,-120,213,-76,-17,-21,-118,-26,-222,121,-128,221,-162,219,-212,222,169,20,127,270,90,90,360,90,360,270,360,90,90,180,,,,,,,,,,,266.986,266.9863,,0,12,12,12,1,2,repeated,,,,,,,,,,,,,,,,,,,,,,,,,,,,,,,,,,,,,,,,,,,,,,,,,
,,9,9,${e://Field/PROLIFIC_PID,M,19,2023-11-03_06h55.32.379,MouseEye_CC,2023.2.2,Win32,59.99520038,1.115861625,,,1536,864,42.269,4.21,"327.58, 317.23, 323.29, 324.45, 330.65, 330.99, 314.03",759.86,7.378081395,31.06172267,27.83653633,Passed,104.0567709,,,,,,,,,,,,,,,,,,,,training,1,14,0,left,a,,,,,266.9874,267.5529,31.24412551,-1.5,-2.100006104,1,0,0,0.565,fixationPoint,267.553,267.6531,267.6532,269.0692,31.24412551,8926.893002,537.8453033,a,1,1.3989,,269.0693,269.2687,,,,,,,,53,-116,-24,69,168,17,210,67,77,-169,222,-28,120,-120,115,113,-21,221,-74,67,-128,-116,-80,-120,-120,90,90,360,180,180,270,270,90,360,360,360,,,,,,,,,,,269.2688,269.2692,,0,13,13,13,1,9,novel,,,,,,,,,,,,,,,,,,,,,,,,,,,,,,,,,,,,,,,,,,,,,,,,,
,,9,9,${e://Field/PROLIFIC_PID,M,19,2023-11-03_06h55.32.379,MouseEye_CC,2023.2.2,Win32,59.99520038,1.115861625,,,1536,864,42.269,4.21,"327.58, 317.23, 323.29, 324.45, 330.65, 330.99, 314.03",759.86,7.378081395,31.06172267,27.83653633,Passed,104.0567709,,,,,,,,,,,,,,,,,,,,training,1,15,0,left,a,,,,,269.2706,269.9024,31.24412551,-1.5,-2.100006104,1,0,0,0.6309,fixationPoint,269.9025,270.0021,270.0022,272.0204,31.24412551,8926.893002,537.8453033,a,1,1.9978,,272.0207,272.2186,,,,,,,,51,-212,-20,26,22,222,169,122,124,-71,215,-216,223,-163,77,67,-221,167,-25,165,-68,-172,-175,-116,-80,270,360,90,270,360,270,180,360,180,270,360,,,,,,,,,,,272.2187,272.219,,0,14,14,14,1,5,repeated,,,,,,,,,,,,,,,,,,,,,,,,,,,,,,,,,,,,,,,,,,,,,,,,,
,,9,9,${e://Field/PROLIFIC_PID,M,19,2023-11-03_06h55.32.379,MouseEye_CC,2023.2.2,Win32,59.99520038,1.115861625,,,1536,864,42.269,4.21,"327.58, 317.23, 323.29, 324.45, 330.65, 330.99, 314.03",759.86,7.378081395,31.06172267,27.83653633,Passed,104.0567709,,,,,,,,,,,,,,,,,,,,training,1,16,0,left,a,,,,,272.2214,272.6069,31.24412551,-1.5,-2.100006104,1,0,0,0.3852,fixationPoint,272.607,272.7019,272.7019,274.8186,31.24412551,8926.893002,537.8453033,a,1,2.1018,,274.8188,275.0183,,,,,,,,3,-120,213,220,72,122,124,66,213,-120,-120,-116,-224,-21,-118,219,-212,217,-32,79,-28,-30,26,-216,24,360,360,360,270,90,360,180,360,180,90,90,,,,,,,,,,,275.0184,277.5187,space,0,15,15,15,1,4,repeated,2.4722,,,,,,,,,,,,,,,,,,,,,,,,,,,,,,,,,,,,,,,,,,,,,,,,
,,9,9,${e://Field/PROLIFIC_PID,M,19,2023-11-03_06h55.32.379,MouseEye_CC,2023.2.2,Win32,59.99520038,1.115861625,,,1536,864,42.269,4.21,"327.58, 317.23, 323.29, 324.45, 330.65, 330.99, 314.03",759.86,7.378081395,31.06172267,27.83653633,Passed,104.0567709,,,,,,,,,,,,,,,,,,,,training,2,1,180,right,s,,,,,277.5202,278.3182,31.24412551,-3.100006104,-5.300018311,1,0,0,0.7975,fixationPoint,278.3184,278.4178,278.4178,280.9008,31.24412551,8926.893002,537.8453033,s,1,2.471,,280.9009,281.1009,,,,,,,,53,-116,-24,161,116,220,72,127,173,-28,120,-68,19,-169,222,25,-124,162,-123,160,-220,-76,-17,-224,-220,90,270,180,180,90,360,180,90,180,270,360,,,,,,,,,,,281.1011,281.1042,,0,16,16,16,1,9,novel,,,,,,,,,,,,,,,,,,,,,,,,,,,,,,,,,,,,,,,,,,,,,,,,,
,,9,9,${e://Field/PROLIFIC_PID,M,19,2023-11-03_06h55.32.379,MouseEye_CC,2023.2.2,Win32,59.99520038,1.115861625,,,1536,864,42.269,4.21,"327.58, 317.23, 323.29, 324.45, 330.65, 330.99, 314.03",759.86,7.378081395,31.06172267,27.83653633,Passed,104.0567709,,,,,,,,,,,,,,,,,,,,training,2,2,0,left,a,,,,,281.1059,281.7673,31.24412551,-3.100006104,-5.300018311,1,0,0,0.6611,fixationPoint,281.7675,281.8671,281.8672,282.784,31.24412551,8926.893002,537.8453033,a,1,0.9021,,282.7841,282.9837,,,,,,,,43,-112,20,28,72,224,31,26,161,-224,-220,-18,-172,-116,-24,25,-124,22,-26,113,-21,-172,170,-25,172,90,180,180,180,270,270,90,90,270,270,90,,,,,,,,,,,282.9838,282.984,,0,17,17,17,1,3,repeated,,,,,,,,,,,,,,,,,,,,,,,,,,,,,,,,,,,,,,,,,,,,,,,,,
,,9,9,${e://Field/PROLIFIC_PID,M,19,2023-11-03_06h55.32.379,MouseEye_CC,2023.2.2,Win32,59.99520038,1.115861625,,,1536,864,42.269,4.21,"327.58, 317.23, 323.29, 324.45, 330.65, 330.99, 314.03",759.86,7.378081395,31.06172267,27.83653633,Passed,104.0567709,,,,,,,,,,,,,,,,,,,,training,2,3,0,left,a,,,,,282.9851,283.5852,31.24412551,-3.100006104,-5.300018311,1,0,0,0.5998,fixationPoint,283.5854,283.6836,283.6837,284.5671,31.24412551,8926.893002,537.8453033,a,1,0.8717,,284.5672,284.768,,,,,,,,50,224,31,-112,20,-25,172,-24,224,-21,-118,-116,-24,-121,-162,67,-128,64,-167,217,-32,127,173,116,31,90,90,270,90,180,270,270,270,360,180,270,,,,,,,,,,,284.7682,284.769,,0,18,18,18,1,13,novel,,,,,,,,,,,,,,,,,,,,,,,,,,,,,,,,,,,,,,,,,,,,,,,,,
,,9,9,${e://Field/PROLIFIC_PID,M,19,2023-11-03_06h55.32.379,MouseEye_CC,2023.2.2,Win32,59.99520038,1.115861625,,,1536,864,42.269,4.21,"327.58, 317.23, 323.29, 324.45, 330.65, 330.99, 314.03",759.86,7.378081395,31.06172267,27.83653633,Passed,104.0567709,,,,,,,,,,,,,,,,,,,,training,2,4,180,right,s,,,,,284.7713,285.2843,31.24412551,-3.100006104,-5.300018311,1,0,0,0.5124,fixationPoint,285.2844,285.3833,285.3834,286.4008,31.24412551,8926.893002,537.8453033,s,1,1.0027,,286.4009,286.6002,,,,,,,,95,-26,-222,69,168,26,161,66,213,-25,172,-174,19,-163,77,121,-128,123,-79,117,-172,-68,-165,-160,-69,270,90,360,270,180,90,90,90,180,90,270,,,,,,,,,,,286.6003,286.6007,,0,19,19,19,1,6,repeated,,,,,,,,,,,,,,,,,,,,,,,,,,,,,,,,,,,,,,,,,,,,,,,,,
,,9,9,${e://Field/PROLIFIC_PID,M,19,2023-11-03_06h55.32.379,MouseEye_CC,2023.2.2,Win32,59.99520038,1.115861625,,,1536,864,42.269,4.21,"327.58, 317.23, 323.29, 324.45, 330.65, 330.99, 314.03",759.86,7.378081395,31.06172267,27.83653633,Passed,104.0567709,,,,,,,,,,,,,,,,,,,,training,2,5,0,left,a,,,,,286.6026,287.0334,31.24412551,-3.100006104,-5.300018311,1,0,0,0.4304,fixationPoint,287.0334,287.1333,287.1334,288.0839,31.24412551,8926.893002,537.8453033,a,1,0.9319,,288.0841,288.2832,,,,,,,,60,217,-32,122,124,220,72,127,173,-174,19,-218,124,-25,172,-160,-69,-176,-224,-211,-115,117,-172,165,-68,360,360,270,90,360,90,270,270,90,90,360,,,,,,,,,,,288.2833,288.2837,,0,20,20,20,1,7,repeated,,,,,,,,,,,,,,,,,,,,,,,,,,,,,,,,,,,,,,,,,,,,,,,,,
,,9,9,${e://Field/PROLIFIC_PID,M,19,2023-11-03_06h55.32.379,MouseEye_CC,2023.2.2,Win32,59.99520038,1.115861625,,,1536,864,42.269,4.21,"327.58, 317.23, 323.29, 324.45, 330.65, 330.99, 314.03",759.86,7.378081395,31.06172267,27.83653633,Passed,104.0567709,,,,,,,,,,,,,,,,,,,,training,2,6,180,right,s,,,,,288.285,288.7497,31.24412551,-3.100006104,-5.300018311,1,0,0,0.4639,fixationPoint,288.7497,288.8517,288.8531,289.9186,31.24412551,8926.893002,537.8453033,s,1,1.0565,,289.9191,290.1164,,,,,,,,76,25,-124,26,22,17,210,222,117,-161,112,-163,77,-218,124,-120,-120,-211,-115,-212,-20,67,-221,79,-28,90,90,270,90,180,90,90,180,270,360,90,,,,,,,,,,,290.1165,290.1169,,0,21,21,21,1,8,repeated,,,,,,,,,,,,,,,,,,,,,,,,,,,,,,,,,,,,,,,,,,,,,,,,,
,,9,9,${e://Field/PROLIFIC_PID,M,19,2023-11-03_06h55.32.379,MouseEye_CC,2023.2.2,Win32,59.99520038,1.115861625,,,1536,864,42.269,4.21,"327.58, 317.23, 323.29, 324.45, 330.65, 330.99, 314.03",759.86,7.378081395,31.06172267,27.83653633,Passed,104.0567709,,,,,,,,,,,,,,,,,,,,training,2,7,0,left,a,,,,,290.1177,290.5662,31.24412551,-3.100006104,-5.300018311,1,0,0,0.4468,fixationPoint,290.5663,290.6667,290.6669,291.5671,31.24412551,8926.893002,537.8453033,a,1,0.8792,,291.5672,291.7661,,,,,,,,41,-216,24,28,72,26,22,26,161,-17,-64,-160,-69,-170,-114,167,-25,28,-68,117,-172,-120,115,-218,124,180,270,360,360,180,270,180,180,180,360,360,,,,,,,,,,,291.7662,291.7664,,0,22,22,22,1,15,novel,,,,,,,,,,,,,,,,,,,,,,,,,,,,,,,,,,,,,,,,,,,,,,,,,
,,9,9,${e://Field/PROLIFIC_PID,M,19,2023-11-03_06h55.32.379,MouseEye_CC,2023.2.2,Win32,59.99520038,1.115861625,,,1536,864,42.269,4.21,"327.58, 317.23, 323.29, 324.45, 330.65, 330.99, 314.03",759.86,7.378081395,31.06172267,27.83653633,Passed,104.0567709,,,,,,,,,,,,,,,,,,,,training,2,8,0,left,a,,,,,291.7676,292.2499,31.24412551,-3.100006104,-5.300018311,1,0,0,0.4821,fixationPoint,292.2501,292.3495,292.3496,293.833,31.24412551,8926.893002,537.8453033,a,1,1.4638,,293.8332,294.0332,,,,,,,,6,17,210,-120,115,-216,24,-68,19,-17,-64,-80,-208,-121,-162,79,-28,167,-25,121,-128,161,160,161,116,90,360,360,270,90,90,270,360,180,360,360,,,,,,,,,,,294.0334,294.0343,,0,23,23,23,1,14,novel,,,,,,,,,,,,,,,,,,,,,,,,,,,,,,,,,,,,,,,,,,,,,,,,,
,,9,9,${e://Field/PROLIFIC_PID,M,19,2023-11-03_06h55.32.379,MouseEye_CC,2023.2.2,Win32,59.99520038,1.115861625,,,1536,864,42.269,4.21,"327.58, 317.23, 323.29, 324.45, 330.65, 330.99, 314.03",759.86,7.378081395,31.06172267,27.83653633,Passed,104.0567709,,,,,,,,,,,,,,,,,,,,training,2,9,0,left,a,,,,,294.038,294.2989,31.24412551,-3.100006104,-5.300018311,1,0,0,0.2607,fixationPoint,294.2991,294.3989,294.399,295.8326,31.24412551,8926.893002,537.8453033,a,1,1.4206,,295.8327,296.033,,,,,,,,58,113,-21,224,210,168,22,69,119,-216,24,-163,77,-68,19,-224,-220,-21,-118,-121,-162,221,-74,209,-115,180,360,180,180,270,270,90,360,90,360,90,,,,,,,,,,,296.033,296.0333,,0,24,24,24,1,11,novel,,,,,,,,,,,,,,,,,,,,,,,,,,,,,,,,,,,,,,,,,,,,,,,,,
,,9,9,${e://Field/PROLIFIC_PID,M,19,2023-11-03_06h55.32.379,MouseEye_CC,2023.2.2,Win32,59.99520038,1.115861625,,,1536,864,42.269,4.21,"327.58, 317.23, 323.29, 324.45, 330.65, 330.99, 314.03",759.86,7.378081395,31.06172267,27.83653633,Passed,104.0567709,,,,,,,,,,,,,,,,,,,,training,2,10,180,right,s,,,,,296.0344,296.4155,31.24412551,-3.100006104,-5.300018311,1,0,0,0.3805,fixationPoint,296.4156,296.5157,296.5158,297.6182,31.24412551,8926.893002,537.8453033,s,1,1.0804,,297.6183,297.8157,,,,,,,,51,-212,-20,26,22,222,169,122,124,-71,215,-216,223,-163,77,67,-221,167,-25,165,-68,-172,-175,-116,-80,90,360,360,360,270,180,360,90,180,90,270,,,,,,,,,,,297.8158,297.8166,,0,25,25,25,1,5,repeated,,,,,,,,,,,,,,,,,,,,,,,,,,,,,,,,,,,,,,,,,,,,,,,,,
,,9,9,${e://Field/PROLIFIC_PID,M,19,2023-11-03_06h55.32.379,MouseEye_CC,2023.2.2,Win32,59.99520038,1.115861625,,,1536,864,42.269,4.21,"327.58, 317.23, 323.29, 324.45, 330.65, 330.99, 314.03",759.86,7.378081395,31.06172267,27.83653633,Passed,104.0567709,,,,,,,,,,,,,,,,,,,,training,2,11,0,left,a,,,,,297.8193,298.2993,31.24412551,-3.100006104,-5.300018311,1,0,0,0.4796,fixationPoint,298.3002,298.3989,298.399,299.9317,31.24412551,8926.893002,537.8453033,a,1,1.5206,,299.9318,300.1327,,,,,,,,3,-120,213,220,72,122,124,66,213,-120,-120,-116,-224,-21,-118,219,-212,217,-32,79,-28,-30,26,-216,24,360,180,360,360,90,180,270,90,360,270,180,,,,,,,,,,,300.1329,300.1337,,0,26,26,26,1,4,repeated,,,,,,,,,,,,,,,,,,,,,,,,,,,,,,,,,,,,,,,,,,,,,,,,,
,,9,9,${e://Field/PROLIFIC_PID,M,19,2023-11-03_06h55.32.379,MouseEye_CC,2023.2.2,Win32,59.99520038,1.115861625,,,1536,864,42.269,4.21,"327.58, 317.23, 323.29, 324.45, 330.65, 330.99, 314.03",759.86,7.378081395,31.06172267,27.83653633,Passed,104.0567709,,,,,,,,,,,,,,,,,,,,training,2,12,180,right,s,,,,,300.1361,300.7482,31.24412551,-3.100006104,-5.300018311,1,0,0,0.6118,fixationPoint,300.7482,300.8483,300.8483,302.0495,31.24412551,8926.893002,537.8453033,s,1,1.1852,,302.0499,302.2482,,,,,,,,61,-220,-72,69,119,222,117,116,31,-169,222,-120,115,-18,73,209,-115,67,-221,112,-215,-116,-224,-18,-172,360,270,180,360,180,270,180,90,180,90,180,,,,,,,,,,,302.2482,302.2484,,0,27,27,27,1,10,novel,,,,,,,,,,,,,,,,,,,,,,,,,,,,,,,,,,,,,,,,,,,,,,,,,
,,9,9,${e://Field/PROLIFIC_PID,M,19,2023-11-03_06h55.32.379,MouseEye_CC,2023.2.2,Win32,59.99520038,1.115861625,,,1536,864,42.269,4.21,"327.58, 317.23, 323.29, 324.45, 330.65, 330.99, 314.03",759.86,7.378081395,31.06172267,27.83653633,Passed,104.0567709,,,,,,,,,,,,,,,,,,,,training,2,13,0,left,a,,,,,302.2497,302.8146,31.24412551,-3.100006104,-5.300018311,1,0,0,0.564,fixationPoint,302.8147,302.9144,302.9145,304.2022,31.24412551,8926.893002,537.8453033,s,0,1.2668,,304.2023,308.1973,,,,,,,,25,-28,120,69,168,162,219,17,210,-166,-20,-212,-20,-21,-31,117,-172,123,-79,162,-123,-218,124,-30,26,360,270,180,180,270,270,360,360,180,180,270,,,,,,,,,,,308.1974,308.1977,,0,28,28,28,1,16,novel,,,,,,,,,,,,,,,,,,,,,,,,,,,,,,,,,,,,,,,,,,,,,,,,,
,,9,9,${e://Field/PROLIFIC_PID,M,19,2023-11-03_06h55.32.379,MouseEye_CC,2023.2.2,Win32,59.99520038,1.115861625,,,1536,864,42.269,4.21,"327.58, 317.23, 323.29, 324.45, 330.65, 330.99, 314.03",759.86,7.378081395,31.06172267,27.83653633,Passed,104.0567709,,,,,,,,,,,,,,,,,,,,training,2,14,180,right,s,,,,,308.1991,309.3641,31.24412551,-3.100006104,-5.300018311,1,0,0,1.1641,fixationPoint,309.3642,309.4638,309.4639,310.1142,31.24412551,8926.893002,537.8453033,s,1,0.6349,,310.1143,310.314,,,,,,,,40,220,72,-25,172,-112,20,-120,213,-76,-17,-21,-118,-26,-222,121,-128,221,-162,219,-212,222,169,20,127,270,270,360,360,360,90,180,90,360,360,180,,,,,,,,,,,310.3141,310.3145,,0,29,29,29,1,2,repeated,,,,,,,,,,,,,,,,,,,,,,,,,,,,,,,,,,,,,,,,,,,,,,,,,
,,9,9,${e://Field/PROLIFIC_PID,M,19,2023-11-03_06h55.32.379,MouseEye_CC,2023.2.2,Win32,59.99520038,1.115861625,,,1536,864,42.269,4.21,"327.58, 317.23, 323.29, 324.45, 330.65, 330.99, 314.03",759.86,7.378081395,31.06172267,27.83653633,Passed,104.0567709,,,,,,,,,,,,,,,,,,,,training,2,15,180,right,s,,,,,310.3166,311.5995,31.24412551,-3.100006104,-5.300018311,1,0,0,1.2825,fixationPoint,311.5995,311.6966,311.6967,312.4968,31.24412551,8926.893002,537.8453033,s,1,0.7788,,312.497,312.6968,,,,,,,,98,112,-215,162,219,28,72,220,72,-169,222,-120,213,-172,170,-21,-118,-121,-162,-170,-114,167,-25,67,-221,360,270,90,180,180,90,270,270,360,90,90,,,,,,,,,,,312.6969,312.6973,,0,30,30,30,1,12,novel,,,,,,,,,,,,,,,,,,,,,,,,,,,,,,,,,,,,,,,,,,,,,,,,,
,,9,9,${e://Field/PROLIFIC_PID,M,19,2023-11-03_06h55.32.379,MouseEye_CC,2023.2.2,Win32,59.99520038,1.115861625,,,1536,864,42.269,4.21,"327.58, 317.23, 323.29, 324.45, 330.65, 330.99, 314.03",759.86,7.378081395,31.06172267,27.83653633,Passed,104.0567709,,,,,,,,,,,,,,,,,,,,training,2,16,180,right,s,,,,,312.6988,313.8132,31.24412551,-3.100006104,-5.300018311,1,0,0,1.114,fixationPoint,313.8134,313.9132,313.9134,314.9299,31.24412551,8926.893002,537.8453033,s,1,1.0023,,314.93,315.1306,,,,,,,,48,116,31,-66,176,-68,19,-77,71,-69,-122,-76,-17,-21,-118,160,-168,22,-26,121,-128,168,22,222,117,360,360,180,360,360,270,180,270,180,90,90,,,,,,,,,,,315.1307,316.6797,space,0,31,31,31,1,1,repeated,1.5367,,,,,,,,,,,,,,,,,,,,,,,,,,,,,,,,,,,,,,,,,,,,,,,,
,,9,9,${e://Field/PROLIFIC_PID,M,19,2023-11-03_06h55.32.379,MouseEye_CC,2023.2.2,Win32,59.99520038,1.115861625,,,1536,864,42.269,4.21,"327.58, 317.23, 323.29, 324.45, 330.65, 330.99, 314.03",759.86,7.378081395,31.06172267,27.83653633,Passed,104.0567709,,,,,,,,,,,,,,,,,,,,training,3,1,0,left,a,,,,,316.6823,317.1132,31.24412551,-3.100006104,-5.300018311,1,0,0,0.4305,fixationPoint,317.1133,317.2128,317.2128,320.6459,31.24412551,8926.893002,537.8453033,a,1,3.4206,,320.6461,320.8456,,,,,,,,58,113,-21,116,31,161,160,162,219,-71,215,-68,19,-208,74,-21,-31,-116,-224,-224,-220,160,-168,28,-68,180,90,270,270,180,90,360,90,90,360,360,,,,,,,,,,,320.8456,320.8487,,0,32,32,32,1,11,novel,,,,,,,,,,,,,,,,,,,,,,,,,,,,,,,,,,,,,,,,,,,,,,,,,
,,9,9,${e://Field/PROLIFIC_PID,M,19,2023-11-03_06h55.32.379,MouseEye_CC,2023.2.2,Win32,59.99520038,1.115861625,,,1536,864,42.269,4.21,"327.58, 317.23, 323.29, 324.45, 330.65, 330.99, 314.03",759.86,7.378081395,31.06172267,27.83653633,Passed,104.0567709,,,,,,,,,,,,,,,,,,,,training,3,2,180,right,s,,,,,320.8501,321.3456,31.24412551,-3.100006104,-5.300018311,1,0,0,0.4953,fixationPoint,321.3457,321.4461,321.4462,322.247,31.24412551,8926.893002,537.8453033,s,1,0.784,,322.2471,322.4462,,,,,,,,43,-112,20,28,72,224,31,26,161,-224,-220,-18,-172,-116,-24,25,-124,22,-26,113,-21,-172,170,-25,172,180,180,90,360,90,180,270,360,180,90,90,,,,,,,,,,,322.4463,322.4476,,0,33,33,33,1,3,repeated,,,,,,,,,,,,,,,,,,,,,,,,,,,,,,,,,,,,,,,,,,,,,,,,,
,,9,9,${e://Field/PROLIFIC_PID,M,19,2023-11-03_06h55.32.379,MouseEye_CC,2023.2.2,Win32,59.99520038,1.115861625,,,1536,864,42.269,4.21,"327.58, 317.23, 323.29, 324.45, 330.65, 330.99, 314.03",759.86,7.378081395,31.06172267,27.83653633,Passed,104.0567709,,,,,,,,,,,,,,,,,,,,training,3,3,180,right,s,,,,,322.4505,322.9624,31.24412551,-3.100006104,-5.300018311,1,0,0,0.5116,fixationPoint,322.9624,323.062,323.062,323.6788,31.24412551,8926.893002,537.8453033,s,1,0.599,,323.6789,323.8791,,,,,,,,76,25,-124,26,22,17,210,222,117,-161,112,-163,77,-218,124,-120,-120,-211,-115,-212,-20,67,-221,79,-28,180,270,270,360,360,270,90,180,90,270,360,,,,,,,,,,,323.8792,323.8796,,0,34,34,34,1,8,repeated,,,,,,,,,,,,,,,,,,,,,,,,,,,,,,,,,,,,,,,,,,,,,,,,,
,,9,9,${e://Field/PROLIFIC_PID,M,19,2023-11-03_06h55.32.379,MouseEye_CC,2023.2.2,Win32,59.99520038,1.115861625,,,1536,864,42.269,4.21,"327.58, 317.23, 323.29, 324.45, 330.65, 330.99, 314.03",759.86,7.378081395,31.06172267,27.83653633,Passed,104.0567709,,,,,,,,,,,,,,,,,,,,training,3,4,0,left,a,,,,,323.8813,324.2451,31.24412551,-3.100006104,-5.300018311,1,0,0,0.3633,fixationPoint,324.2452,324.3455,324.3455,325.0289,31.24412551,8926.893002,537.8453033,a,1,0.6688,,325.0291,325.2289,,,,,,,,61,-220,-72,69,119,161,116,222,169,-28,120,-216,223,-163,77,117,-172,162,-123,221,-162,-67,-77,-116,-24,180,180,360,90,90,90,180,90,360,90,360,,,,,,,,,,,325.229,325.2297,,0,35,35,35,1,10,novel,,,,,,,,,,,,,,,,,,,,,,,,,,,,,,,,,,,,,,,,,,,,,,,,,
,,9,9,${e://Field/PROLIFIC_PID,M,19,2023-11-03_06h55.32.379,MouseEye_CC,2023.2.2,Win32,59.99520038,1.115861625,,,1536,864,42.269,4.21,"327.58, 317.23, 323.29, 324.45, 330.65, 330.99, 314.03",759.86,7.378081395,31.06172267,27.83653633,Passed,104.0567709,,,,,,,,,,,,,,,,,,,,training,3,5,180,right,s,,,,,325.2318,325.6119,31.24412551,-3.100006104,-5.300018311,1,0,0,0.3796,fixationPoint,325.6123,325.7116,325.7117,326.5785,31.24412551,8926.893002,537.8453033,s,1,0.8487,,326.5786,326.7782,,,,,,,,25,-28,120,168,22,127,173,20,127,-220,-166,-224,-220,-21,-118,209,-115,221,-74,221,-162,-77,71,-68,19,90,360,360,360,360,270,180,360,90,90,180,,,,,,,,,,,326.7783,326.7787,,0,36,36,36,1,16,novel,,,,,,,,,,,,,,,,,,,,,,,,,,,,,,,,,,,,,,,,,,,,,,,,,
,,9,9,${e://Field/PROLIFIC_PID,M,19,2023-11-03_06h55.32.379,MouseEye_CC,2023.2.2,Win32,59.99520038,1.115861625,,,1536,864,42.269,4.21,"327.58, 317.23, 323.29, 324.45, 330.65, 330.99, 314.03",759.86,7.378081395,31.06172267,27.83653633,Passed,104.0567709,,,,,,,,,,,,,,,,,,,,training,3,6,0,left,a,,,,,326.7802,327.1958,31.24412551,-3.100006104,-5.300018311,1,0,0,0.4149,fixationPoint,327.1959,327.295,327.295,327.9949,31.24412551,8926.893002,537.8453033,a,1,0.6849,,327.995,328.1947,,,,,,,,3,-120,213,220,72,122,124,66,213,-120,-120,-116,-224,-21,-118,219,-212,217,-32,79,-28,-30,26,-216,24,180,360,180,90,360,270,180,360,180,360,360,,,,,,,,,,,328.1948,328.1952,,0,37,37,37,1,4,repeated,,,,,,,,,,,,,,,,,,,,,,,,,,,,,,,,,,,,,,,,,,,,,,,,,
,,9,9,${e://Field/PROLIFIC_PID,M,19,2023-11-03_06h55.32.379,MouseEye_CC,2023.2.2,Win32,59.99520038,1.115861625,,,1536,864,42.269,4.21,"327.58, 317.23, 323.29, 324.45, 330.65, 330.99, 314.03",759.86,7.378081395,31.06172267,27.83653633,Passed,104.0567709,,,,,,,,,,,,,,,,,,,,training,3,7,180,right,s,,,,,328.1975,328.7114,31.24412551,-3.100006104,-5.300018311,1,0,0,0.5135,fixationPoint,328.7115,328.8113,328.8113,329.7611,31.24412551,8926.893002,537.8453033,s,1,0.9353,,329.7612,329.9622,,,,,,,,98,112,-215,17,210,168,22,162,219,-163,77,-28,120,-66,176,-170,-114,-116,-224,-76,-17,64,-167,117,-172,270,180,90,180,360,180,270,180,180,180,90,,,,,,,,,,,329.9623,329.9633,,0,38,38,38,1,12,novel,,,,,,,,,,,,,,,,,,,,,,,,,,,,,,,,,,,,,,,,,,,,,,,,,
,,9,9,${e://Field/PROLIFIC_PID,M,19,2023-11-03_06h55.32.379,MouseEye_CC,2023.2.2,Win32,59.99520038,1.115861625,,,1536,864,42.269,4.21,"327.58, 317.23, 323.29, 324.45, 330.65, 330.99, 314.03",759.86,7.378081395,31.06172267,27.83653633,Passed,104.0567709,,,,,,,,,,,,,,,,,,,,training,3,8,180,right,s,,,,,329.9662,330.3445,31.24412551,-3.100006104,-5.300018311,1,0,0,0.3779,fixationPoint,330.3445,330.4446,330.4447,331.245,31.24412551,8926.893002,537.8453033,s,1,0.7877,,331.2452,331.4445,,,,,,,,51,-212,-20,26,22,222,169,122,124,-71,215,-216,223,-163,77,67,-221,167,-25,165,-68,-172,-175,-116,-80,270,180,180,360,360,90,180,360,180,270,360,,,,,,,,,,,331.4445,331.4448,,0,39,39,39,1,5,repeated,,,,,,,,,,,,,,,,,,,,,,,,,,,,,,,,,,,,,,,,,,,,,,,,,
,,9,9,${e://Field/PROLIFIC_PID,M,19,2023-11-03_06h55.32.379,MouseEye_CC,2023.2.2,Win32,59.99520038,1.115861625,,,1536,864,42.269,4.21,"327.58, 317.23, 323.29, 324.45, 330.65, 330.99, 314.03",759.86,7.378081395,31.06172267,27.83653633,Passed,104.0567709,,,,,,,,,,,,,,,,,,,,training,3,9,0,left,a,,,,,331.4462,332.5613,31.24412551,-3.100006104,-5.300018311,1,0,0,1.1147,fixationPoint,332.5614,332.6608,332.6609,333.2607,31.24412551,8926.893002,537.8453033,a,1,0.5833,,333.2609,333.4609,,,,,,,,6,17,210,-76,121,-161,112,-172,170,-160,-69,-18,-172,-69,-122,26,-219,79,-28,162,-123,66,213,222,169,270,360,90,180,90,90,270,180,90,360,360,,,,,,,,,,,333.461,333.4616,,0,40,40,40,1,14,novel,,,,,,,,,,,,,,,,,,,,,,,,,,,,,,,,,,,,,,,,,,,,,,,,,
,,9,9,${e://Field/PROLIFIC_PID,M,19,2023-11-03_06h55.32.379,MouseEye_CC,2023.2.2,Win32,59.99520038,1.115861625,,,1536,864,42.269,4.21,"327.58, 317.23, 323.29, 324.45, 330.65, 330.99, 314.03",759.86,7.378081395,31.06172267,27.83653633,Passed,104.0567709,,,,,,,,,,,,,,,,,,,,training,3,10,0,left,a,,,,,333.4634,333.9942,31.24412551,-3.100006104,-5.300018311,1,0,0,0.5301,fixationPoint,333.9943,334.094,334.0941,335.3283,31.24412551,8926.893002,537.8453033,a,1,1.2227,,335.3285,335.5277,,,,,,,,41,-216,24,66,213,17,210,26,22,-160,-69,-26,-222,-69,-122,160,-168,112,-215,217,-32,-18,73,-208,74,360,180,180,360,90,180,270,270,180,90,270,,,,,,,,,,,335.5279,335.5285,,0,41,41,41,1,15,novel,,,,,,,,,,,,,,,,,,,,,,,,,,,,,,,,,,,,,,,,,,,,,,,,,
,,9,9,${e://Field/PROLIFIC_PID,M,19,2023-11-03_06h55.32.379,MouseEye_CC,2023.2.2,Win32,59.99520038,1.115861625,,,1536,864,42.269,4.21,"327.58, 317.23, 323.29, 324.45, 330.65, 330.99, 314.03",759.86,7.378081395,31.06172267,27.83653633,Passed,104.0567709,,,,,,,,,,,,,,,,,,,,training,3,11,180,right,s,,,,,335.5327,336.0773,31.24412551,-3.100006104,-5.300018311,1,0,0,0.5443,fixationPoint,336.0775,336.1772,336.1773,337.6104,31.24412551,8926.893002,537.8453033,s,1,1.4182,,337.6104,337.8111,,,,,,,,95,-26,-222,69,168,26,161,66,213,-25,172,-174,19,-163,77,121,-128,123,-79,117,-172,-68,-165,-160,-69,90,90,360,180,270,180,360,270,180,180,90,,,,,,,,,,,337.8112,337.8118,,0,42,42,42,1,6,repeated,,,,,,,,,,,,,,,,,,,,,,,,,,,,,,,,,,,,,,,,,,,,,,,,,
,,9,9,${e://Field/PROLIFIC_PID,M,19,2023-11-03_06h55.32.379,MouseEye_CC,2023.2.2,Win32,59.99520038,1.115861625,,,1536,864,42.269,4.21,"327.58, 317.23, 323.29, 324.45, 330.65, 330.99, 314.03",759.86,7.378081395,31.06172267,27.83653633,Passed,104.0567709,,,,,,,,,,,,,,,,,,,,training,3,12,0,left,a,,,,,337.8146,338.2273,31.24412551,-3.100006104,-5.300018311,1,0,0,0.4121,fixationPoint,338.2273,338.3268,338.3268,341.2932,31.24412551,8926.893002,537.8453033,a,1,2.949,,341.2933,341.4932,,,,,,,,53,-116,-24,224,210,67,77,224,31,-18,73,-216,223,-66,176,160,-220,117,-172,121,-128,-68,-165,-67,-77,360,360,360,90,360,90,90,180,270,90,360,,,,,,,,,,,341.4933,341.4936,,0,43,43,43,1,9,novel,,,,,,,,,,,,,,,,,,,,,,,,,,,,,,,,,,,,,,,,,,,,,,,,,
,,9,9,${e://Field/PROLIFIC_PID,M,19,2023-11-03_06h55.32.379,MouseEye_CC,2023.2.2,Win32,59.99520038,1.115861625,,,1536,864,42.269,4.21,"327.58, 317.23, 323.29, 324.45, 330.65, 330.99, 314.03",759.86,7.378081395,31.06172267,27.83653633,Passed,104.0567709,,,,,,,,,,,,,,,,,,,,training,3,13,0,left,a,,,,,341.4944,341.7929,31.24412551,-3.100006104,-5.300018311,1,0,0,0.2981,fixationPoint,341.793,341.8934,341.8935,343.7596,31.24412551,8926.893002,537.8453033,a,1,1.8545,,343.7597,343.9475,,,,,,,,50,224,31,-30,26,-216,24,-224,160,-160,-69,-121,-162,-80,-208,22,-26,160,-220,26,-219,112,220,127,173,270,90,270,360,180,360,360,90,90,90,270,,,,,,,,,,,343.9475,343.9477,,0,44,44,44,1,13,novel,,,,,,,,,,,,,,,,,,,,,,,,,,,,,,,,,,,,,,,,,,,,,,,,,
,,9,9,${e://Field/PROLIFIC_PID,M,19,2023-11-03_06h55.32.379,MouseEye_CC,2023.2.2,Win32,59.99520038,1.115861625,,,1536,864,42.269,4.21,"327.58, 317.23, 323.29, 324.45, 330.65, 330.99, 314.03",759.86,7.378081395,31.06172267,27.83653633,Passed,104.0567709,,,,,,,,,,,,,,,,,,,,training,3,14,180,right,s,,,,,343.9487,344.3595,31.24412551,-3.100006104,-5.300018311,1,0,0,0.4106,fixationPoint,344.3597,344.4593,344.4594,346.11,31.24412551,8926.893002,537.8453033,s,1,1.6402,,346.1103,346.3094,,,,,,,,40,220,72,-25,172,-112,20,-120,213,-76,-17,-21,-118,-26,-222,121,-128,221,-162,219,-212,222,169,20,127,90,270,270,180,360,270,360,360,90,90,270,,,,,,,,,,,346.3094,346.3096,,0,45,45,45,1,2,repeated,,,,,,,,,,,,,,,,,,,,,,,,,,,,,,,,,,,,,,,,,,,,,,,,,
,,9,9,${e://Field/PROLIFIC_PID,M,19,2023-11-03_06h55.32.379,MouseEye_CC,2023.2.2,Win32,59.99520038,1.115861625,,,1536,864,42.269,4.21,"327.58, 317.23, 323.29, 324.45, 330.65, 330.99, 314.03",759.86,7.378081395,31.06172267,27.83653633,Passed,104.0567709,,,,,,,,,,,,,,,,,,,,training,3,15,0,left,a,,,,,346.3111,346.6432,31.24412551,-3.100006104,-5.300018311,1,0,0,0.3317,fixationPoint,346.6432,346.7428,346.743,348.5594,31.24412551,8926.893002,537.8453033,s,0,1.7965,,348.5595,352.5587,,,,,,,,60,217,-32,122,124,220,72,127,173,-174,19,-218,124,-25,172,-160,-69,-176,-224,-211,-115,117,-172,165,-68,270,270,90,360,270,360,360,180,90,270,180,,,,,,,,,,,352.5589,352.5595,,0,46,46,46,1,7,repeated,,,,,,,,,,,,,,,,,,,,,,,,,,,,,,,,,,,,,,,,,,,,,,,,,
,,9,9,${e://Field/PROLIFIC_PID,M,19,2023-11-03_06h55.32.379,MouseEye_CC,2023.2.2,Win32,59.99520038,1.115861625,,,1536,864,42.269,4.21,"327.58, 317.23, 323.29, 324.45, 330.65, 330.99, 314.03",759.86,7.378081395,31.06172267,27.83653633,Passed,104.0567709,,,,,,,,,,,,,,,,,,,,training,3,16,180,right,s,,,,,352.5624,352.9922,31.24412551,-3.100006104,-5.300018311,1,0,0,0.4294,fixationPoint,352.9924,353.0919,353.092,354.4249,31.24412551,8926.893002,537.8453033,s,1,1.3206,,354.425,354.6251,,,,,,,,48,116,31,-66,176,-68,19,-77,71,-69,-122,-76,-17,-21,-118,160,-168,22,-26,121,-128,168,22,222,117,90,360,270,360,270,180,360,270,90,360,270,,,,,,,,,,,354.6253,356.2082,space,0,47,47,47,1,1,repeated,1.5594,,,,,,,,,,,,,,,,,,,,,,,,,,,,,,,,,,,,,,,,,,,,,,,,
,,9,9,${e://Field/PROLIFIC_PID,M,19,2023-11-03_06h55.32.379,MouseEye_CC,2023.2.2,Win32,59.99520038,1.115861625,,,1536,864,42.269,4.21,"327.58, 317.23, 323.29, 324.45, 330.65, 330.99, 314.03",759.86,7.378081395,31.06172267,27.83653633,Passed,104.0567709,,,,,,,,,,,,,,,,,,,,training,4,1,0,left,a,,,,,356.2106,356.5922,31.24412551,4.899993896,-3.700012207,1,0,0,0.3814,fixationPoint,356.5923,356.6912,356.6913,357.8088,31.24412551,8926.893002,537.8453033,a,1,1.1057,,357.809,358.0085,,,,,,,,53,-116,-24,17,210,222,117,118,66,-169,222,-216,24,-208,74,160,-220,79,-28,221,-74,-224,-220,-69,-122,270,270,180,270,180,270,180,270,180,360,90,,,,,,,,,,,358.0085,358.0123,,0,48,48,48,1,9,novel,,,,,,,,,,,,,,,,,,,,,,,,,,,,,,,,,,,,,,,,,,,,,,,,,
,,9,9,${e://Field/PROLIFIC_PID,M,19,2023-11-03_06h55.32.379,MouseEye_CC,2023.2.2,Win32,59.99520038,1.115861625,,,1536,864,42.269,4.21,"327.58, 317.23, 323.29, 324.45, 330.65, 330.99, 314.03",759.86,7.378081395,31.06172267,27.83653633,Passed,104.0567709,,,,,,,,,,,,,,,,,,,,training,4,2,180,right,s,,,,,358.0133,358.5579,31.24412551,4.899993896,-3.700012207,1,0,0,0.5443,fixationPoint,358.558,358.6578,358.658,360.1243,31.24412551,8926.893002,537.8453033,s,1,1.4499,,360.1246,360.3242,,,,,,,,50,224,31,-172,170,-71,215,-25,172,-176,-224,-166,-20,-76,-17,64,-167,160,-220,67,-128,69,168,69,119,360,90,180,360,270,270,270,180,90,270,360,,,,,,,,,,,360.3243,360.3246,,0,49,49,49,1,13,novel,,,,,,,,,,,,,,,,,,,,,,,,,,,,,,,,,,,,,,,,,,,,,,,,,
,,9,9,${e://Field/PROLIFIC_PID,M,19,2023-11-03_06h55.32.379,MouseEye_CC,2023.2.2,Win32,59.99520038,1.115861625,,,1536,864,42.269,4.21,"327.58, 317.23, 323.29, 324.45, 330.65, 330.99, 314.03",759.86,7.378081395,31.06172267,27.83653633,Passed,104.0567709,,,,,,,,,,,,,,,,,,,,training,4,3,0,left,a,,,,,360.326,360.6109,31.24412551,4.899993896,-3.700012207,1,0,0,0.2844,fixationPoint,360.6109,360.7072,360.7074,362.2577,31.24412551,8926.893002,537.8453033,a,1,1.5372,,362.2578,362.458,,,,,,,,25,-28,120,162,219,26,22,168,22,-80,-208,-21,-31,-121,-162,167,-25,68,-68,221,-74,-76,121,-77,71,360,360,270,270,270,270,90,180,360,360,90,,,,,,,,,,,362.4583,362.459,,0,50,50,50,1,16,novel,,,,,,,,,,,,,,,,,,,,,,,,,,,,,,,,,,,,,,,,,,,,,,,,,
,,9,9,${e://Field/PROLIFIC_PID,M,19,2023-11-03_06h55.32.379,MouseEye_CC,2023.2.2,Win32,59.99520038,1.115861625,,,1536,864,42.269,4.21,"327.58, 317.23, 323.29, 324.45, 330.65, 330.99, 314.03",759.86,7.378081395,31.06172267,27.83653633,Passed,104.0567709,,,,,,,,,,,,,,,,,,,,training,4,4,0,left,a,,,,,362.4626,362.7903,31.24412551,4.899993896,-3.700012207,1,0,0,0.3274,fixationPoint,362.7906,362.8902,362.8903,364.224,31.24412551,8926.893002,537.8453033,a,1,1.3267,,364.2241,364.4239,,,,,,,,51,-212,-20,26,22,222,169,122,124,-71,215,-216,223,-163,77,67,-221,167,-25,165,-68,-172,-175,-116,-80,270,360,180,180,270,180,360,360,270,90,360,,,,,,,,,,,364.4241,364.4247,,0,51,51,51,1,5,repeated,,,,,,,,,,,,,,,,,,,,,,,,,,,,,,,,,,,,,,,,,,,,,,,,,
,,9,9,${e://Field/PROLIFIC_PID,M,19,2023-11-03_06h55.32.379,MouseEye_CC,2023.2.2,Win32,59.99520038,1.115861625,,,1536,864,42.269,4.21,"327.58, 317.23, 323.29, 324.45, 330.65, 330.99, 314.03",759.86,7.378081395,31.06172267,27.83653633,Passed,104.0567709,,,,,,,,,,,,,,,,,,,,training,4,5,180,right,s,,,,,364.4276,364.6568,31.24412551,4.899993896,-3.700012207,1,0,0,0.2288,fixationPoint,364.6568,364.7566,364.7567,365.7574,31.24412551,8926.893002,537.8453033,s,1,0.9862,,365.7576,365.9572,,,,,,,,40,220,72,-25,172,-112,20,-120,213,-76,-17,-21,-118,-26,-222,121,-128,221,-162,219,-212,222,169,20,127,180,90,360,180,180,90,270,270,270,360,180,,,,,,,,,,,365.9573,365.9579,,0,52,52,52,1,2,repeated,,,,,,,,,,,,,,,,,,,,,,,,,,,,,,,,,,,,,,,,,,,,,,,,,
,,9,9,${e://Field/PROLIFIC_PID,M,19,2023-11-03_06h55.32.379,MouseEye_CC,2023.2.2,Win32,59.99520038,1.115861625,,,1536,864,42.269,4.21,"327.58, 317.23, 323.29, 324.45, 330.65, 330.99, 314.03",759.86,7.378081395,31.06172267,27.83653633,Passed,104.0567709,,,,,,,,,,,,,,,,,,,,training,4,6,180,right,s,,,,,365.9596,366.1731,31.24412551,4.899993896,-3.700012207,1,0,0,0.2128,fixationPoint,366.1733,366.2731,366.2732,366.6899,31.24412551,8926.893002,537.8453033,s,1,0.3971,,366.6901,366.8899,,,,,,,,98,112,-215,122,124,222,117,220,72,-218,124,-120,115,-113,176,-18,-172,-26,-222,-211,-115,219,-212,165,-68,270,90,180,270,90,270,180,180,360,180,90,,,,,,,,,,,366.8899,366.8903,,0,53,53,53,1,12,novel,,,,,,,,,,,,,,,,,,,,,,,,,,,,,,,,,,,,,,,,,,,,,,,,,
,,9,9,${e://Field/PROLIFIC_PID,M,19,2023-11-03_06h55.32.379,MouseEye_CC,2023.2.2,Win32,59.99520038,1.115861625,,,1536,864,42.269,4.21,"327.58, 317.23, 323.29, 324.45, 330.65, 330.99, 314.03",759.86,7.378081395,31.06172267,27.83653633,Passed,104.0567709,,,,,,,,,,,,,,,,,,,,training,4,7,180,right,s,,,,,366.8914,367.2238,31.24412551,4.899993896,-3.700012207,1,0,0,0.3316,fixationPoint,367.2242,367.3235,367.3235,367.5564,31.24412551,8926.893002,537.8453033,s,1,0.2194,,367.5566,367.7564,,,,,,,,48,116,31,-66,176,-68,19,-77,71,-69,-122,-76,-17,-21,-118,160,-168,22,-26,121,-128,168,22,222,117,360,360,360,90,90,270,270,270,270,90,180,,,,,,,,,,,367.7565,367.7568,,0,54,54,54,1,1,repeated,,,,,,,,,,,,,,,,,,,,,,,,,,,,,,,,,,,,,,,,,,,,,,,,,
,,9,9,${e://Field/PROLIFIC_PID,M,19,2023-11-03_06h55.32.379,MouseEye_CC,2023.2.2,Win32,59.99520038,1.115861625,,,1536,864,42.269,4.21,"327.58, 317.23, 323.29, 324.45, 330.65, 330.99, 314.03",759.86,7.378081395,31.06172267,27.83653633,Passed,104.0567709,,,,,,,,,,,,,,,,,,,,training,4,8,0,left,a,,,,,367.7578,367.9902,31.24412551,4.899993896,-3.700012207,1,0,0,0.232,fixationPoint,367.9903,368.0898,368.0899,371.6725,31.24412551,8926.893002,537.8453033,a,1,3.573,,371.6727,371.8724,,,,,,,,3,-120,213,220,72,122,124,66,213,-120,-120,-116,-224,-21,-118,219,-212,217,-32,79,-28,-30,26,-216,24,360,270,270,270,270,180,270,270,360,270,90,,,,,,,,,,,371.8725,371.8728,,0,55,55,55,1,4,repeated,,,,,,,,,,,,,,,,,,,,,,,,,,,,,,,,,,,,,,,,,,,,,,,,,
,,9,9,${e://Field/PROLIFIC_PID,M,19,2023-11-03_06h55.32.379,MouseEye_CC,2023.2.2,Win32,59.99520038,1.115861625,,,1536,864,42.269,4.21,"327.58, 317.23, 323.29, 324.45, 330.65, 330.99, 314.03",759.86,7.378081395,31.06172267,27.83653633,Passed,104.0567709,,,,,,,,,,,,,,,,,,,,training,4,9,0,left,a,,,,,371.875,372.1897,31.24412551,4.899993896,-3.700012207,1,0,0,0.3144,fixationPoint,372.1898,372.2892,372.2893,373.6722,31.24412551,8926.893002,537.8453033,a,1,1.367,,373.6724,373.8729,,,,,,,,6,17,210,-76,121,-77,71,-28,120,-211,-115,-21,-118,-121,-162,25,-124,221,-74,113,-21,116,31,71,24,270,180,90,360,360,180,270,90,180,270,270,,,,,,,,,,,373.873,373.8738,,0,56,56,56,1,14,novel,,,,,,,,,,,,,,,,,,,,,,,,,,,,,,,,,,,,,,,,,,,,,,,,,
,,9,9,${e://Field/PROLIFIC_PID,M,19,2023-11-03_06h55.32.379,MouseEye_CC,2023.2.2,Win32,59.99520038,1.115861625,,,1536,864,42.269,4.21,"327.58, 317.23, 323.29, 324.45, 330.65, 330.99, 314.03",759.86,7.378081395,31.06172267,27.83653633,Passed,104.0567709,,,,,,,,,,,,,,,,,,,,training,4,10,180,right,s,,,,,373.8763,374.1556,31.24412551,4.899993896,-3.700012207,1,0,0,0.279,fixationPoint,374.1557,374.2556,374.2557,375.3562,31.24412551,8926.893002,537.8453033,s,1,1.0807,,375.3565,375.5564,,,,,,,,43,-112,20,28,72,224,31,26,161,-224,-220,-18,-172,-116,-24,25,-124,22,-26,113,-21,-172,170,-25,172,180,180,360,270,180,270,270,270,180,270,90,,,,,,,,,,,375.5564,375.5567,,0,57,57,57,1,3,repeated,,,,,,,,,,,,,,,,,,,,,,,,,,,,,,,,,,,,,,,,,,,,,,,,,
,,9,9,${e://Field/PROLIFIC_PID,M,19,2023-11-03_06h55.32.379,MouseEye_CC,2023.2.2,Win32,59.99520038,1.115861625,,,1536,864,42.269,4.21,"327.58, 317.23, 323.29, 324.45, 330.65, 330.99, 314.03",759.86,7.378081395,31.06172267,27.83653633,Passed,104.0567709,,,,,,,,,,,,,,,,,,,,training,4,11,0,left,a,,,,,375.5587,375.8221,31.24412551,4.899993896,-3.700012207,1,0,0,0.2632,fixationPoint,375.8222,375.9221,375.9222,376.7565,31.24412551,8926.893002,537.8453033,a,1,0.8185,,376.7566,376.9554,,,,,,,,95,-26,-222,69,168,26,161,66,213,-25,172,-174,19,-163,77,121,-128,123,-79,117,-172,-68,-165,-160,-69,90,270,270,360,360,180,270,270,270,360,90,,,,,,,,,,,376.9556,376.9561,,0,58,58,58,1,6,repeated,,,,,,,,,,,,,,,,,,,,,,,,,,,,,,,,,,,,,,,,,,,,,,,,,
,,9,9,${e://Field/PROLIFIC_PID,M,19,2023-11-03_06h55.32.379,MouseEye_CC,2023.2.2,Win32,59.99520038,1.115861625,,,1536,864,42.269,4.21,"327.58, 317.23, 323.29, 324.45, 330.65, 330.99, 314.03",759.86,7.378081395,31.06172267,27.83653633,Passed,104.0567709,,,,,,,,,,,,,,,,,,,,training,4,12,180,right,s,,,,,376.9589,377.2553,31.24412551,4.899993896,-3.700012207,1,0,0,0.296,fixationPoint,377.2554,377.358,377.3583,378.1069,31.24412551,8926.893002,537.8453033,s,1,0.7351,,378.1071,378.3071,,,,,,,,58,113,-21,168,65,69,168,224,31,-172,170,-216,223,-18,73,-211,-115,-21,-118,-21,-31,112,-215,160,-220,360,360,270,180,90,180,360,90,270,360,270,,,,,,,,,,,378.3076,378.3083,,0,59,59,59,1,11,novel,,,,,,,,,,,,,,,,,,,,,,,,,,,,,,,,,,,,,,,,,,,,,,,,,
,,9,9,${e://Field/PROLIFIC_PID,M,19,2023-11-03_06h55.32.379,MouseEye_CC,2023.2.2,Win32,59.99520038,1.115861625,,,1536,864,42.269,4.21,"327.58, 317.23, 323.29, 324.45, 330.65, 330.99, 314.03",759.86,7.378081395,31.06172267,27.83653633,Passed,104.0567709,,,,,,,,,,,,,,,,,,,,training,4,13,0,left,a,,,,,378.3109,378.4717,31.24412551,4.899993896,-3.700012207,1,0,0,0.1605,fixationPoint,378.4718,378.5722,378.5722,379.5902,31.24412551,8926.893002,537.8453033,a,1,1.0037,,379.5904,379.788,,,,,,,,41,-216,24,69,119,168,65,26,22,-176,-224,-121,-162,-21,-31,219,-212,123,-79,68,-68,-218,124,-18,73,180,270,360,360,90,360,180,90,90,270,180,,,,,,,,,,,379.7881,379.7883,,0,60,60,60,1,15,novel,,,,,,,,,,,,,,,,,,,,,,,,,,,,,,,,,,,,,,,,,,,,,,,,,
,,9,9,${e://Field/PROLIFIC_PID,M,19,2023-11-03_06h55.32.379,MouseEye_CC,2023.2.2,Win32,59.99520038,1.115861625,,,1536,864,42.269,4.21,"327.58, 317.23, 323.29, 324.45, 330.65, 330.99, 314.03",759.86,7.378081395,31.06172267,27.83653633,Passed,104.0567709,,,,,,,,,,,,,,,,,,,,training,4,14,180,right,s,,,,,379.7894,380.1548,31.24412551,4.899993896,-3.700012207,1,0,0,0.3651,fixationPoint,380.1552,380.2548,380.2549,381.2547,31.24412551,8926.893002,537.8453033,s,1,0.9927,,381.2548,381.4551,,,,,,,,61,-220,-72,28,72,26,22,168,22,-163,77,-120,115,-172,170,64,-167,25,-124,209,-115,-212,-20,-17,-64,90,270,90,270,270,360,90,270,360,90,270,,,,,,,,,,,381.4553,381.4558,,0,61,61,61,1,10,novel,,,,,,,,,,,,,,,,,,,,,,,,,,,,,,,,,,,,,,,,,,,,,,,,,
,,9,9,${e://Field/PROLIFIC_PID,M,19,2023-11-03_06h55.32.379,MouseEye_CC,2023.2.2,Win32,59.99520038,1.115861625,,,1536,864,42.269,4.21,"327.58, 317.23, 323.29, 324.45, 330.65, 330.99, 314.03",759.86,7.378081395,31.06172267,27.83653633,Passed,104.0567709,,,,,,,,,,,,,,,,,,,,training,4,15,0,left,a,,,,,381.4578,381.8047,31.24412551,4.899993896,-3.700012207,1,0,0,0.3464,fixationPoint,381.8047,381.9058,381.9059,383.2545,31.24412551,8926.893002,537.8453033,a,1,1.3329,,383.2547,383.4552,,,,,,,,60,217,-32,122,124,220,72,127,173,-174,19,-218,124,-25,172,-160,-69,-176,-224,-211,-115,117,-172,165,-68,180,90,90,180,90,90,270,270,90,360,90,,,,,,,,,,,383.4552,383.4554,,0,62,62,62,1,7,repeated,,,,,,,,,,,,,,,,,,,,,,,,,,,,,,,,,,,,,,,,,,,,,,,,,
,,9,9,${e://Field/PROLIFIC_PID,M,19,2023-11-03_06h55.32.379,MouseEye_CC,2023.2.2,Win32,59.99520038,1.115861625,,,1536,864,42.269,4.21,"327.58, 317.23, 323.29, 324.45, 330.65, 330.99, 314.03",759.86,7.378081395,31.06172267,27.83653633,Passed,104.0567709,,,,,,,,,,,,,,,,,,,,training,4,16,180,right,s,,,,,383.4565,383.9377,31.24412551,4.899993896,-3.700012207,1,0,0,0.4809,fixationPoint,383.9381,384.0379,384.038,385.3212,31.24412551,8926.893002,537.8453033,s,1,1.2672,,385.3213,385.5208,,,,,,,,76,25,-124,26,22,17,210,222,117,-161,112,-163,77,-218,124,-120,-120,-211,-115,-212,-20,67,-221,79,-28,90,90,270,90,90,90,180,270,270,180,360,,,,,,,,,,,385.5208,387.0082,space,0,63,63,63,1,8,repeated,1.4638,,,,,,,,,,,,,,,,,,,,,,,,,,,,,,,,,,,,,,,,,,,,,,,,
,,9,9,${e://Field/PROLIFIC_PID,M,19,2023-11-03_06h55.32.379,MouseEye_CC,2023.2.2,Win32,59.99520038,1.115861625,,,1536,864,42.269,4.21,"327.58, 317.23, 323.29, 324.45, 330.65, 330.99, 314.03",759.86,7.378081395,31.06172267,27.83653633,Passed,104.0567709,,,,,,,,,,,,,,,,,,,,training,5,1,0,left,a,,,,,387.0094,387.4373,31.24412551,4.899993896,-3.700012207,1,0,0,0.4277,fixationPoint,387.4373,387.5373,387.5373,389.1536,31.24412551,8926.893002,537.8453033,s,0,1.5988,,389.1537,393.1538,,,,,,,,60,217,-32,122,124,220,72,127,173,-174,19,-218,124,-25,172,-160,-69,-176,-224,-211,-115,117,-172,165,-68,270,270,90,90,180,360,180,270,180,90,90,,,,,,,,,,,393.154,393.1595,,0,64,64,64,1,7,repeated,,,,,,,,,,,,,,,,,,,,,,,,,,,,,,,,,,,,,,,,,,,,,,,,,
,,9,9,${e://Field/PROLIFIC_PID,M,19,2023-11-03_06h55.32.379,MouseEye_CC,2023.2.2,Win32,59.99520038,1.115861625,,,1536,864,42.269,4.21,"327.58, 317.23, 323.29, 324.45, 330.65, 330.99, 314.03",759.86,7.378081395,31.06172267,27.83653633,Passed,104.0567709,,,,,,,,,,,,,,,,,,,,training,5,2,180,right,s,,,,,393.1633,393.6705,31.24412551,4.899993896,-3.700012207,1,0,0,0.5066,fixationPoint,393.6707,393.7698,393.7699,394.3035,31.24412551,8926.893002,537.8453033,s,1,0.5159,,394.3036,394.503,,,,,,,,48,116,31,-66,176,-68,19,-77,71,-69,-122,-76,-17,-21,-118,160,-168,22,-26,121,-128,168,22,222,117,360,90,360,360,360,180,270,90,180,180,360,,,,,,,,,,,394.5031,394.5034,,0,65,65,65,1,1,repeated,,,,,,,,,,,,,,,,,,,,,,,,,,,,,,,,,,,,,,,,,,,,,,,,,
,,9,9,${e://Field/PROLIFIC_PID,M,19,2023-11-03_06h55.32.379,MouseEye_CC,2023.2.2,Win32,59.99520038,1.115861625,,,1536,864,42.269,4.21,"327.58, 317.23, 323.29, 324.45, 330.65, 330.99, 314.03",759.86,7.378081395,31.06172267,27.83653633,Passed,104.0567709,,,,,,,,,,,,,,,,,,,,training,5,3,0,left,a,,,,,394.5041,394.7365,31.24412551,4.899993896,-3.700012207,1,0,0,0.2321,fixationPoint,394.7366,394.8377,394.8378,395.6364,31.24412551,8926.893002,537.8453033,a,1,0.7817,,395.6366,395.836,,,,,,,,58,113,-21,122,124,17,210,127,173,-113,176,-120,213,-169,222,-212,-20,-17,-64,-116,-80,162,-123,217,-32,360,90,270,360,360,90,360,180,270,270,180,,,,,,,,,,,395.8361,395.8365,,0,66,66,66,1,11,novel,,,,,,,,,,,,,,,,,,,,,,,,,,,,,,,,,,,,,,,,,,,,,,,,,
,,9,9,${e://Field/PROLIFIC_PID,M,19,2023-11-03_06h55.32.379,MouseEye_CC,2023.2.2,Win32,59.99520038,1.115861625,,,1536,864,42.269,4.21,"327.58, 317.23, 323.29, 324.45, 330.65, 330.99, 314.03",759.86,7.378081395,31.06172267,27.83653633,Passed,104.0567709,,,,,,,,,,,,,,,,,,,,training,5,4,180,right,s,,,,,395.8376,396.2024,31.24412551,4.899993896,-3.700012207,1,0,0,0.3645,fixationPoint,396.2025,396.3027,396.3027,397.0033,31.24412551,8926.893002,537.8453033,s,1,0.6826,,397.0035,397.2025,,,,,,,,98,112,-215,112,220,220,72,118,66,-77,71,-120,66,-169,222,-160,-69,-17,-64,-80,-208,79,-28,121,-128,270,360,360,360,270,180,90,270,360,90,360,,,,,,,,,,,397.2025,397.2029,,0,67,67,67,1,12,novel,,,,,,,,,,,,,,,,,,,,,,,,,,,,,,,,,,,,,,,,,,,,,,,,,
,,9,9,${e://Field/PROLIFIC_PID,M,19,2023-11-03_06h55.32.379,MouseEye_CC,2023.2.2,Win32,59.99520038,1.115861625,,,1536,864,42.269,4.21,"327.58, 317.23, 323.29, 324.45, 330.65, 330.99, 314.03",759.86,7.378081395,31.06172267,27.83653633,Passed,104.0567709,,,,,,,,,,,,,,,,,,,,training,5,5,0,left,a,,,,,397.2045,397.6192,31.24412551,4.899993896,-3.700012207,1,0,0,0.4141,fixationPoint,397.6193,397.719,397.7191,398.7024,31.24412551,8926.893002,537.8453033,a,1,0.9672,,398.7025,398.9024,,,,,,,,40,220,72,-25,172,-112,20,-120,213,-76,-17,-21,-118,-26,-222,121,-128,221,-162,219,-212,222,169,20,127,360,180,360,180,270,90,180,90,90,270,360,,,,,,,,,,,398.9026,398.9032,,0,68,68,68,1,2,repeated,,,,,,,,,,,,,,,,,,,,,,,,,,,,,,,,,,,,,,,,,,,,,,,,,
,,9,9,${e://Field/PROLIFIC_PID,M,19,2023-11-03_06h55.32.379,MouseEye_CC,2023.2.2,Win32,59.99520038,1.115861625,,,1536,864,42.269,4.21,"327.58, 317.23, 323.29, 324.45, 330.65, 330.99, 314.03",759.86,7.378081395,31.06172267,27.83653633,Passed,104.0567709,,,,,,,,,,,,,,,,,,,,training,5,6,180,right,s,,,,,398.9055,399.0189,31.24412551,4.899993896,-3.700012207,1,0,0,0.1129,fixationPoint,399.019,399.1188,399.1189,400.0524,31.24412551,8926.893002,537.8453033,s,1,0.9253,,400.0525,400.2528,,,,,,,,6,17,210,-28,120,-216,223,-218,124,-69,-122,-18,-172,-80,-208,79,-28,165,-68,123,-79,116,31,71,24,270,90,180,270,360,180,90,360,180,180,180,,,,,,,,,,,400.253,400.2533,,0,69,69,69,1,14,novel,,,,,,,,,,,,,,,,,,,,,,,,,,,,,,,,,,,,,,,,,,,,,,,,,
,,9,9,${e://Field/PROLIFIC_PID,M,19,2023-11-03_06h55.32.379,MouseEye_CC,2023.2.2,Win32,59.99520038,1.115861625,,,1536,864,42.269,4.21,"327.58, 317.23, 323.29, 324.45, 330.65, 330.99, 314.03",759.86,7.378081395,31.06172267,27.83653633,Passed,104.0567709,,,,,,,,,,,,,,,,,,,,training,5,7,180,right,s,,,,,400.255,400.4855,31.24412551,4.899993896,-3.700012207,1,0,0,0.2301,fixationPoint,400.4857,400.5878,400.5883,401.5364,31.24412551,8926.893002,537.8453033,s,1,0.9322,,401.5369,401.7355,,,,,,,,25,-28,120,116,31,222,117,224,210,-18,-172,-160,-69,-176,-224,165,-68,219,-212,123,-79,-18,73,-161,112,270,90,360,90,180,180,270,180,180,180,180,,,,,,,,,,,401.7356,401.736,,0,70,70,70,1,16,novel,,,,,,,,,,,,,,,,,,,,,,,,,,,,,,,,,,,,,,,,,,,,,,,,,
,,9,9,${e://Field/PROLIFIC_PID,M,19,2023-11-03_06h55.32.379,MouseEye_CC,2023.2.2,Win32,59.99520038,1.115861625,,,1536,864,42.269,4.21,"327.58, 317.23, 323.29, 324.45, 330.65, 330.99, 314.03",759.86,7.378081395,31.06172267,27.83653633,Passed,104.0567709,,,,,,,,,,,,,,,,,,,,training,5,8,0,left,a,,,,,401.7372,401.8854,31.24412551,4.899993896,-3.700012207,1,0,0,0.1477,fixationPoint,401.8855,401.986,401.9863,402.852,31.24412551,8926.893002,537.8453033,a,1,0.8504,,402.8522,403.0516,,,,,,,,76,25,-124,26,22,17,210,222,117,-161,112,-163,77,-218,124,-120,-120,-211,-115,-212,-20,67,-221,79,-28,90,270,90,360,90,180,90,270,360,180,90,,,,,,,,,,,403.0518,403.0521,,0,71,71,71,1,8,repeated,,,,,,,,,,,,,,,,,,,,,,,,,,,,,,,,,,,,,,,,,,,,,,,,,
,,9,9,${e://Field/PROLIFIC_PID,M,19,2023-11-03_06h55.32.379,MouseEye_CC,2023.2.2,Win32,59.99520038,1.115861625,,,1536,864,42.269,4.21,"327.58, 317.23, 323.29, 324.45, 330.65, 330.99, 314.03",759.86,7.378081395,31.06172267,27.83653633,Passed,104.0567709,,,,,,,,,,,,,,,,,,,,training,5,9,180,right,s,,,,,403.0531,403.2018,31.24412551,4.899993896,-3.700012207,1,0,0,0.1483,fixationPoint,403.2018,403.3025,403.3026,404.2517,31.24412551,8926.893002,537.8453033,s,1,0.9296,,404.2518,404.4523,,,,,,,,53,-116,-24,26,22,224,31,224,210,-112,20,-218,124,-172,170,221,-162,121,-128,64,-167,-116,-80,-69,-122,90,180,180,360,180,180,90,180,180,180,90,,,,,,,,,,,404.4523,404.4529,,0,72,72,72,1,9,novel,,,,,,,,,,,,,,,,,,,,,,,,,,,,,,,,,,,,,,,,,,,,,,,,,
,,9,9,${e://Field/PROLIFIC_PID,M,19,2023-11-03_06h55.32.379,MouseEye_CC,2023.2.2,Win32,59.99520038,1.115861625,,,1536,864,42.269,4.21,"327.58, 317.23, 323.29, 324.45, 330.65, 330.99, 314.03",759.86,7.378081395,31.06172267,27.83653633,Passed,104.0567709,,,,,,,,,,,,,,,,,,,,training,5,10,0,left,a,,,,,404.4555,404.6518,31.24412551,4.899993896,-3.700012207,1,0,0,0.1956,fixationPoint,404.652,404.7512,404.7514,405.6182,31.24412551,8926.893002,537.8453033,a,1,0.8485,,405.6184,405.819,,,,,,,,43,-112,20,28,72,224,31,26,161,-224,-220,-18,-172,-116,-24,25,-124,22,-26,113,-21,-172,170,-25,172,90,360,90,90,270,90,180,90,270,90,270,,,,,,,,,,,405.8191,405.8196,,0,73,73,73,1,3,repeated,,,,,,,,,,,,,,,,,,,,,,,,,,,,,,,,,,,,,,,,,,,,,,,,,
,,9,9,${e://Field/PROLIFIC_PID,M,19,2023-11-03_06h55.32.379,MouseEye_CC,2023.2.2,Win32,59.99520038,1.115861625,,,1536,864,42.269,4.21,"327.58, 317.23, 323.29, 324.45, 330.65, 330.99, 314.03",759.86,7.378081395,31.06172267,27.83653633,Passed,104.0567709,,,,,,,,,,,,,,,,,,,,training,5,11,180,right,s,,,,,405.8215,406.1181,31.24412551,4.899993896,-3.700012207,1,0,0,0.296,fixationPoint,406.1182,406.2182,406.2183,406.8846,31.24412551,8926.893002,537.8453033,s,1,0.6467,,406.8848,407.0846,,,,,,,,50,224,31,-66,176,-161,112,-24,224,-67,-77,-26,-222,-21,-118,167,-25,221,-74,22,-26,161,116,168,65,90,360,180,270,360,180,270,90,90,180,360,,,,,,,,,,,407.0848,407.085,,0,74,74,74,1,13,novel,,,,,,,,,,,,,,,,,,,,,,,,,,,,,,,,,,,,,,,,,,,,,,,,,
,,9,9,${e://Field/PROLIFIC_PID,M,19,2023-11-03_06h55.32.379,MouseEye_CC,2023.2.2,Win32,59.99520038,1.115861625,,,1536,864,42.269,4.21,"327.58, 317.23, 323.29, 324.45, 330.65, 330.99, 314.03",759.86,7.378081395,31.06172267,27.83653633,Passed,104.0567709,,,,,,,,,,,,,,,,,,,,training,5,12,0,left,a,,,,,407.0864,407.469,31.24412551,4.899993896,-3.700012207,1,0,0,0.3819,fixationPoint,407.4692,407.5678,407.5679,408.2015,31.24412551,8926.893002,537.8453033,a,1,0.6182,,408.2017,408.4009,,,,,,,,51,-212,-20,26,22,222,169,122,124,-71,215,-216,223,-163,77,67,-221,167,-25,165,-68,-172,-175,-116,-80,360,360,180,90,180,360,180,360,270,270,90,,,,,,,,,,,408.4011,408.4015,,0,75,75,75,1,5,repeated,,,,,,,,,,,,,,,,,,,,,,,,,,,,,,,,,,,,,,,,,,,,,,,,,
,,9,9,${e://Field/PROLIFIC_PID,M,19,2023-11-03_06h55.32.379,MouseEye_CC,2023.2.2,Win32,59.99520038,1.115861625,,,1536,864,42.269,4.21,"327.58, 317.23, 323.29, 324.45, 330.65, 330.99, 314.03",759.86,7.378081395,31.06172267,27.83653633,Passed,104.0567709,,,,,,,,,,,,,,,,,,,,training,5,13,180,right,s,,,,,408.403,408.901,31.24412551,4.899993896,-3.700012207,1,0,0,0.4971,fixationPoint,408.9011,409.0012,409.0013,409.6203,31.24412551,8926.893002,537.8453033,s,1,0.6064,,409.6207,409.8178,,,,,,,,95,-26,-222,69,168,26,161,66,213,-25,172,-174,19,-163,77,121,-128,123,-79,117,-172,-68,-165,-160,-69,180,360,90,180,90,90,360,90,90,90,180,,,,,,,,,,,409.8179,409.818,,0,76,76,76,1,6,repeated,,,,,,,,,,,,,,,,,,,,,,,,,,,,,,,,,,,,,,,,,,,,,,,,,
,,9,9,${e://Field/PROLIFIC_PID,M,19,2023-11-03_06h55.32.379,MouseEye_CC,2023.2.2,Win32,59.99520038,1.115861625,,,1536,864,42.269,4.21,"327.58, 317.23, 323.29, 324.45, 330.65, 330.99, 314.03",759.86,7.378081395,31.06172267,27.83653633,Passed,104.0567709,,,,,,,,,,,,,,,,,,,,training,5,14,180,right,s,,,,,409.8195,410.2853,31.24412551,4.899993896,-3.700012207,1,0,0,0.4652,fixationPoint,410.2854,410.3841,410.3841,411.2519,31.24412551,8926.893002,537.8453033,s,1,0.8509,,411.2521,411.4513,,,,,,,,41,-216,24,161,116,161,160,224,210,-67,-77,-26,-222,-220,-166,22,-26,64,-167,160,-168,-218,124,-161,112,180,180,360,270,360,180,180,360,90,360,180,,,,,,,,,,,411.4513,411.4516,,0,77,77,77,1,15,novel,,,,,,,,,,,,,,,,,,,,,,,,,,,,,,,,,,,,,,,,,,,,,,,,,
,,9,9,${e://Field/PROLIFIC_PID,M,19,2023-11-03_06h55.32.379,MouseEye_CC,2023.2.2,Win32,59.99520038,1.115861625,,,1536,864,42.269,4.21,"327.58, 317.23, 323.29, 324.45, 330.65, 330.99, 314.03",759.86,7.378081395,31.06172267,27.83653633,Passed,104.0567709,,,,,,,,,,,,,,,,,,,,training,5,15,0,left,a,,,,,411.4532,413.6035,31.24412551,4.899993896,-3.700012207,1,0,0,2.1491,fixationPoint,413.6037,413.7004,413.7009,413.8839,31.24412551,8926.893002,537.8453033,a,1,0.1676,,413.8839,414.0852,,,,,,,,61,-220,-72,122,124,66,213,222,117,-24,224,-66,176,-71,215,28,-68,21,-169,113,-21,-67,-77,-18,-172,360,270,180,270,360,90,360,180,90,90,360,,,,,,,,,,,414.0853,414.0906,,0,78,78,78,1,10,novel,,,,,,,,,,,,,,,,,,,,,,,,,,,,,,,,,,,,,,,,,,,,,,,,,
,,9,9,${e://Field/PROLIFIC_PID,M,19,2023-11-03_06h55.32.379,MouseEye_CC,2023.2.2,Win32,59.99520038,1.115861625,,,1536,864,42.269,4.21,"327.58, 317.23, 323.29, 324.45, 330.65, 330.99, 314.03",759.86,7.378081395,31.06172267,27.83653633,Passed,104.0567709,,,,,,,,,,,,,,,,,,,,training,5,16,0,left,a,,,,,414.0931,414.9004,31.24412551,4.899993896,-3.700012207,1,0,0,0.8069,fixationPoint,414.9005,415.0003,415.0004,415.6503,31.24412551,8926.893002,537.8453033,a,1,0.6379,,415.6504,415.85,,,,,,,,3,-120,213,220,72,122,124,66,213,-120,-120,-116,-224,-21,-118,219,-212,217,-32,79,-28,-30,26,-216,24,270,360,180,90,270,180,270,90,270,270,360,,,,,,,,,,,415.8501,421.7497,space,0,79,79,79,1,4,repeated,5.8793,,,,,,,,,,,,,,,,,,,,,,,,,,,,,,,,,,,,,,,,,,,,,,,,
,,9,9,${e://Field/PROLIFIC_PID,M,19,2023-11-03_06h55.32.379,MouseEye_CC,2023.2.2,Win32,59.99520038,1.115861625,,,1536,864,42.269,4.21,"327.58, 317.23, 323.29, 324.45, 330.65, 330.99, 314.03",759.86,7.378081395,31.06172267,27.83653633,Passed,104.0567709,,,,,,,,,,,,,,,,,,,,training,6,1,180,right,s,,,,,421.7514,422.416,31.24412551,4.899993896,-3.700012207,1,0,0,0.6636,fixationPoint,422.416,422.5173,422.5174,425.283,31.24412551,8926.893002,537.8453033,s,1,2.7516,,425.2832,425.4827,,,,,,,,53,-116,-24,168,22,168,65,220,72,-120,66,-161,112,-216,24,113,-21,162,-123,160,-168,-116,-224,-212,-20,90,360,360,90,180,360,270,90,270,180,270,,,,,,,,,,,425.4827,425.4858,,0,80,80,80,1,9,novel,,,,,,,,,,,,,,,,,,,,,,,,,,,,,,,,,,,,,,,,,,,,,,,,,
,,9,9,${e://Field/PROLIFIC_PID,M,19,2023-11-03_06h55.32.379,MouseEye_CC,2023.2.2,Win32,59.99520038,1.115861625,,,1536,864,42.269,4.21,"327.58, 317.23, 323.29, 324.45, 330.65, 330.99, 314.03",759.86,7.378081395,31.06172267,27.83653633,Passed,104.0567709,,,,,,,,,,,,,,,,,,,,training,6,2,0,left,a,,,,,425.4865,425.8489,31.24412551,4.899993896,-3.700012207,1,0,0,0.3621,fixationPoint,425.849,425.949,425.9491,429.3318,31.24412551,8926.893002,537.8453033,a,1,3.3724,,429.332,429.5317,,,,,,,,40,220,72,-25,172,-112,20,-120,213,-76,-17,-21,-118,-26,-222,121,-128,221,-162,219,-212,222,169,20,127,90,360,270,180,360,360,180,270,90,180,180,,,,,,,,,,,429.5317,429.5319,,0,81,81,81,1,2,repeated,,,,,,,,,,,,,,,,,,,,,,,,,,,,,,,,,,,,,,,,,,,,,,,,,
,,9,9,${e://Field/PROLIFIC_PID,M,19,2023-11-03_06h55.32.379,MouseEye_CC,2023.2.2,Win32,59.99520038,1.115861625,,,1536,864,42.269,4.21,"327.58, 317.23, 323.29, 324.45, 330.65, 330.99, 314.03",759.86,7.378081395,31.06172267,27.83653633,Passed,104.0567709,,,,,,,,,,,,,,,,,,,,training,6,3,180,right,s,,,,,429.5333,429.7153,31.24412551,4.899993896,-3.700012207,1,0,0,0.1815,fixationPoint,429.7154,429.8157,429.8158,432.5982,31.24412551,8926.893002,537.8453033,s,1,2.7664,,432.5983,432.7986,,,,,,,,98,112,-215,224,210,222,117,66,213,-25,172,-71,215,-172,170,-211,-115,-21,-118,-80,-208,26,-219,121,-128,180,90,180,90,180,270,180,360,360,360,360,,,,,,,,,,,432.7987,432.7995,,0,82,82,82,1,12,novel,,,,,,,,,,,,,,,,,,,,,,,,,,,,,,,,,,,,,,,,,,,,,,,,,
,,9,9,${e://Field/PROLIFIC_PID,M,19,2023-11-03_06h55.32.379,MouseEye_CC,2023.2.2,Win32,59.99520038,1.115861625,,,1536,864,42.269,4.21,"327.58, 317.23, 323.29, 324.45, 330.65, 330.99, 314.03",759.86,7.378081395,31.06172267,27.83653633,Passed,104.0567709,,,,,,,,,,,,,,,,,,,,training,6,4,180,right,s,,,,,432.8024,433.0154,31.24412551,4.899993896,-3.700012207,1,0,0,0.2127,fixationPoint,433.0155,433.1145,433.1145,435.9652,31.24412551,8926.893002,537.8453033,s,1,2.832,,435.9656,436.1642,,,,,,,,48,116,31,-66,176,-68,19,-77,71,-69,-122,-76,-17,-21,-118,160,-168,22,-26,121,-128,168,22,222,117,360,90,180,270,180,90,360,180,180,360,270,,,,,,,,,,,436.1643,436.1647,,0,83,83,83,1,1,repeated,,,,,,,,,,,,,,,,,,,,,,,,,,,,,,,,,,,,,,,,,,,,,,,,,
,,9,9,${e://Field/PROLIFIC_PID,M,19,2023-11-03_06h55.32.379,MouseEye_CC,2023.2.2,Win32,59.99520038,1.115861625,,,1536,864,42.269,4.21,"327.58, 317.23, 323.29, 324.45, 330.65, 330.99, 314.03",759.86,7.378081395,31.06172267,27.83653633,Passed,104.0567709,,,,,,,,,,,,,,,,,,,,training,6,5,0,left,a,,,,,436.1673,436.4313,31.24412551,4.899993896,-3.700012207,1,0,0,0.2635,fixationPoint,436.4314,436.5308,436.5309,438.6651,31.24412551,8926.893002,537.8453033,a,1,2.1159,,438.6652,438.8641,,,,,,,,61,-220,-72,116,31,67,77,28,72,-161,112,-30,26,-120,115,21,-169,113,-21,217,-32,-26,-222,-68,-165,180,90,90,360,180,90,90,180,180,360,90,,,,,,,,,,,438.8641,438.8647,,0,84,84,84,1,10,novel,,,,,,,,,,,,,,,,,,,,,,,,,,,,,,,,,,,,,,,,,,,,,,,,,
,,9,9,${e://Field/PROLIFIC_PID,M,19,2023-11-03_06h55.32.379,MouseEye_CC,2023.2.2,Win32,59.99520038,1.115861625,,,1536,864,42.269,4.21,"327.58, 317.23, 323.29, 324.45, 330.65, 330.99, 314.03",759.86,7.378081395,31.06172267,27.83653633,Passed,104.0567709,,,,,,,,,,,,,,,,,,,,training,6,6,180,right,s,,,,,438.8661,439.1973,31.24412551,4.899993896,-3.700012207,1,0,0,0.331,fixationPoint,439.1975,439.2974,439.2976,440.8808,31.24412551,8926.893002,537.8453033,s,1,1.5663,,440.8811,441.0815,,,,,,,,58,113,-21,161,160,71,24,69,168,-28,120,-24,224,-163,77,-176,-224,-116,-24,-172,-175,217,-32,21,-169,360,270,360,180,90,360,90,270,270,270,360,,,,,,,,,,,441.0817,441.0824,,0,85,85,85,1,11,novel,,,,,,,,,,,,,,,,,,,,,,,,,,,,,,,,,,,,,,,,,,,,,,,,,
,,9,9,${e://Field/PROLIFIC_PID,M,19,2023-11-03_06h55.32.379,MouseEye_CC,2023.2.2,Win32,59.99520038,1.115861625,,,1536,864,42.269,4.21,"327.58, 317.23, 323.29, 324.45, 330.65, 330.99, 314.03",759.86,7.378081395,31.06172267,27.83653633,Passed,104.0567709,,,,,,,,,,,,,,,,,,,,training,6,7,180,right,s,,,,,441.0852,441.4135,31.24412551,4.899993896,-3.700012207,1,0,0,0.328,fixationPoint,441.4136,441.5135,441.5136,443.5994,31.24412551,8926.893002,537.8453033,s,1,2.067,,443.5996,443.7966,,,,,,,,41,-216,24,116,31,168,22,224,210,-120,-120,-121,-162,-220,-72,112,-215,209,-115,219,-212,-208,74,-120,213,180,90,270,270,180,270,180,90,270,180,360,,,,,,,,,,,443.7966,443.797,,0,86,86,86,1,15,novel,,,,,,,,,,,,,,,,,,,,,,,,,,,,,,,,,,,,,,,,,,,,,,,,,
,,9,9,${e://Field/PROLIFIC_PID,M,19,2023-11-03_06h55.32.379,MouseEye_CC,2023.2.2,Win32,59.99520038,1.115861625,,,1536,864,42.269,4.21,"327.58, 317.23, 323.29, 324.45, 330.65, 330.99, 314.03",759.86,7.378081395,31.06172267,27.83653633,Passed,104.0567709,,,,,,,,,,,,,,,,,,,,training,6,8,0,left,a,,,,,443.7982,444.0798,31.24412551,1.700012207,-6.899993896,1,0,0,0.2807,fixationPoint,444.0799,444.1798,444.18,446.4811,31.24412551,8926.893002,537.8453033,a,1,2.2914,,446.4814,446.6794,,,,,,,,43,-112,20,28,72,224,31,26,161,-224,-220,-18,-172,-116,-24,25,-124,22,-26,113,-21,-172,170,-25,172,270,90,270,270,180,360,270,360,270,180,360,,,,,,,,,,,446.6794,446.6797,,0,87,87,87,1,3,repeated,,,,,,,,,,,,,,,,,,,,,,,,,,,,,,,,,,,,,,,,,,,,,,,,,
,,9,9,${e://Field/PROLIFIC_PID,M,19,2023-11-03_06h55.32.379,MouseEye_CC,2023.2.2,Win32,59.99520038,1.115861625,,,1536,864,42.269,4.21,"327.58, 317.23, 323.29, 324.45, 330.65, 330.99, 314.03",759.86,7.378081395,31.06172267,27.83653633,Passed,104.0567709,,,,,,,,,,,,,,,,,,,,training,6,9,0,left,a,,,,,446.6806,446.863,31.24412551,1.700012207,-6.899993896,1,0,0,0.182,fixationPoint,446.863,446.9645,446.9646,449.3468,31.24412551,8926.893002,537.8453033,a,1,2.3671,,449.347,449.5459,,,,,,,,25,-28,120,222,117,26,161,224,31,-116,-224,-121,-162,-26,-222,165,-68,68,-68,160,-220,-66,176,-25,172,270,90,180,270,360,360,270,180,180,180,270,,,,,,,,,,,449.546,449.5464,,0,88,88,88,1,16,novel,,,,,,,,,,,,,,,,,,,,,,,,,,,,,,,,,,,,,,,,,,,,,,,,,
,,9,9,${e://Field/PROLIFIC_PID,M,19,2023-11-03_06h55.32.379,MouseEye_CC,2023.2.2,Win32,59.99520038,1.115861625,,,1536,864,42.269,4.21,"327.58, 317.23, 323.29, 324.45, 330.65, 330.99, 314.03",759.86,7.378081395,31.06172267,27.83653633,Passed,104.0567709,,,,,,,,,,,,,,,,,,,,training,6,10,180,right,s,,,,,449.548,449.6792,31.24412551,1.700012207,-6.899993896,1,0,0,0.1308,fixationPoint,449.6793,449.779,449.779,452.1989,31.24412551,8926.893002,537.8453033,s,1,2.4115,,452.1994,452.396,,,,,,,,76,25,-124,26,22,17,210,222,117,-161,112,-163,77,-218,124,-120,-120,-211,-115,-212,-20,67,-221,79,-28,180,270,360,90,90,360,360,90,270,270,180,,,,,,,,,,,452.3961,452.3964,,0,89,89,89,1,8,repeated,,,,,,,,,,,,,,,,,,,,,,,,,,,,,,,,,,,,,,,,,,,,,,,,,
,,9,9,${e://Field/PROLIFIC_PID,M,19,2023-11-03_06h55.32.379,MouseEye_CC,2023.2.2,Win32,59.99520038,1.115861625,,,1536,864,42.269,4.21,"327.58, 317.23, 323.29, 324.45, 330.65, 330.99, 314.03",759.86,7.378081395,31.06172267,27.83653633,Passed,104.0567709,,,,,,,,,,,,,,,,,,,,training,6,11,180,right,s,,,,,452.3979,452.7288,31.24412551,1.700012207,-6.899993896,1,0,0,0.3303,fixationPoint,452.7288,452.8287,452.8288,454.4136,31.24412551,8926.893002,537.8453033,a,0,1.5683,,454.4136,458.4114,,,,,,,,3,-120,213,220,72,122,124,66,213,-120,-120,-116,-224,-21,-118,219,-212,217,-32,79,-28,-30,26,-216,24,360,180,360,90,180,180,360,360,180,90,360,,,,,,,,,,,458.4117,458.4121,,0,90,90,90,1,4,repeated,,,,,,,,,,,,,,,,,,,,,,,,,,,,,,,,,,,,,,,,,,,,,,,,,
,,9,9,${e://Field/PROLIFIC_PID,M,19,2023-11-03_06h55.32.379,MouseEye_CC,2023.2.2,Win32,59.99520038,1.115861625,,,1536,864,42.269,4.21,"327.58, 317.23, 323.29, 324.45, 330.65, 330.99, 314.03",759.86,7.378081395,31.06172267,27.83653633,Passed,104.0567709,,,,,,,,,,,,,,,,,,,,training,6,12,180,right,s,,,,,458.4144,459.2113,31.24412551,1.700012207,-6.899993896,1,0,0,0.7966,fixationPoint,459.2114,459.3122,459.3123,460.028,31.24412551,8926.893002,537.8453033,s,1,0.6967,,460.0282,460.2281,,,,,,,,51,-212,-20,26,22,222,169,122,124,-71,215,-216,223,-163,77,67,-221,167,-25,165,-68,-172,-175,-116,-80,180,180,90,270,180,90,270,90,180,180,90,,,,,,,,,,,460.2282,460.2285,,0,91,91,91,1,5,repeated,,,,,,,,,,,,,,,,,,,,,,,,,,,,,,,,,,,,,,,,,,,,,,,,,
,,9,9,${e://Field/PROLIFIC_PID,M,19,2023-11-03_06h55.32.379,MouseEye_CC,2023.2.2,Win32,59.99520038,1.115861625,,,1536,864,42.269,4.21,"327.58, 317.23, 323.29, 324.45, 330.65, 330.99, 314.03",759.86,7.378081395,31.06172267,27.83653633,Passed,104.0567709,,,,,,,,,,,,,,,,,,,,training,6,13,0,left,a,,,,,460.2295,461.2949,31.24412551,1.700012207,-6.899993896,0,0,1,1.065,fixationPoint,461.295,461.399,461.399,463.8112,31.24412551,8926.893002,537.8453033,a,1,2.3992,,463.8114,464.0112,,,,,,,,6,17,210,-24,224,-76,121,-28,120,-68,-165,-116,-80,-220,-166,209,-115,112,-215,25,-124,112,220,69,119,90,90,360,90,90,270,270,90,90,90,360,,,,,,,,,,,464.0113,464.012,,0,92,92,92,1,14,novel,,,,,,,,,,,,,,,,,,,,,,,,,,,,,,,,,,,,,,,,,,,,,,,,,
,,9,9,${e://Field/PROLIFIC_PID,M,19,2023-11-03_06h55.32.379,MouseEye_CC,2023.2.2,Win32,59.99520038,1.115861625,,,1536,864,42.269,4.21,"327.58, 317.23, 323.29, 324.45, 330.65, 330.99, 314.03",759.86,7.378081395,31.06172267,27.83653633,Passed,104.0567709,,,,,,,,,,,,,,,,,,,,training,6,14,0,left,a,,,,,464.0152,464.7271,31.24412551,-3.100006104,-0.5,1,0,0,0.7117,fixationPoint,464.7272,464.8272,464.8273,466.4772,31.24412551,8926.893002,537.8453033,a,1,1.6388,,466.4773,466.6771,,,,,,,,60,217,-32,122,124,220,72,127,173,-174,19,-218,124,-25,172,-160,-69,-176,-224,-211,-115,117,-172,165,-68,180,180,270,360,90,360,90,270,360,270,270,,,,,,,,,,,466.6771,466.6776,,0,93,93,93,1,7,repeated,,,,,,,,,,,,,,,,,,,,,,,,,,,,,,,,,,,,,,,,,,,,,,,,,
,,9,9,${e://Field/PROLIFIC_PID,M,19,2023-11-03_06h55.32.379,MouseEye_CC,2023.2.2,Win32,59.99520038,1.115861625,,,1536,864,42.269,4.21,"327.58, 317.23, 323.29, 324.45, 330.65, 330.99, 314.03",759.86,7.378081395,31.06172267,27.83653633,Passed,104.0567709,,,,,,,,,,,,,,,,,,,,training,6,15,0,left,a,,,,,466.6787,467.1439,31.24412551,-3.100006104,-0.5,1,0,0,0.465,fixationPoint,467.1439,467.2435,467.2436,469.3935,31.24412551,8926.893002,537.8453033,a,1,2.1333,,469.3937,469.594,,,,,,,,50,224,31,-218,124,-216,223,-30,26,-166,-20,-21,-31,-116,-80,162,-123,25,-124,217,-32,26,161,161,160,90,90,90,270,270,90,360,180,360,180,90,,,,,,,,,,,469.5941,469.5943,,0,94,94,94,1,13,novel,,,,,,,,,,,,,,,,,,,,,,,,,,,,,,,,,,,,,,,,,,,,,,,,,
,,9,9,${e://Field/PROLIFIC_PID,M,19,2023-11-03_06h55.32.379,MouseEye_CC,2023.2.2,Win32,59.99520038,1.115861625,,,1536,864,42.269,4.21,"327.58, 317.23, 323.29, 324.45, 330.65, 330.99, 314.03",759.86,7.378081395,31.06172267,27.83653633,Passed,104.0567709,,,,,,,,,,,,,,,,,,,,training,6,16,0,left,a,,,,,469.5957,470.1101,31.24412551,-3.100006104,-0.5,1,0,0,0.5142,fixationPoint,470.1103,470.2101,470.2101,471.7763,31.24412551,8926.893002,537.8453033,a,1,1.5527,,471.7764,471.9769,,,,,,,,95,-26,-222,69,168,26,161,66,213,-25,172,-174,19,-163,77,121,-128,123,-79,117,-172,-68,-165,-160,-69,90,90,360,90,360,180,360,360,360,180,270,,,,,,,,,,,471.9769,474.2762,space,0,95,95,95,1,6,repeated,2.2759,,,,,,,,,,,,,,,,,,,,,,,,,,,,,,,,,,,,,,,,,,,,,,,,
,,9,9,${e://Field/PROLIFIC_PID,M,19,2023-11-03_06h55.32.379,MouseEye_CC,2023.2.2,Win32,59.99520038,1.115861625,,,1536,864,42.269,4.21,"327.58, 317.23, 323.29, 324.45, 330.65, 330.99, 314.03",759.86,7.378081395,31.06172267,27.83653633,Passed,104.0567709,,,,,,,,,,,,,,,,,,,,training,7,1,180,right,s,,,,,474.2781,474.7431,31.24412551,-3.100006104,-0.5,1,0,0,0.4645,fixationPoint,474.7432,474.8433,474.8434,476.2428,31.24412551,8926.893002,537.8453033,a,0,1.3872,,476.2431,480.242,,,,,,,,58,113,-21,118,66,168,22,161,160,-25,172,-66,176,-28,120,-18,-172,-21,-118,-212,-20,221,-162,167,-25,360,180,270,360,90,270,90,360,270,360,360,,,,,,,,,,,480.2421,480.2453,,0,96,96,96,1,11,novel,,,,,,,,,,,,,,,,,,,,,,,,,,,,,,,,,,,,,,,,,,,,,,,,,
,,9,9,${e://Field/PROLIFIC_PID,M,19,2023-11-03_06h55.32.379,MouseEye_CC,2023.2.2,Win32,59.99520038,1.115861625,,,1536,864,42.269,4.21,"327.58, 317.23, 323.29, 324.45, 330.65, 330.99, 314.03",759.86,7.378081395,31.06172267,27.83653633,Passed,104.0567709,,,,,,,,,,,,,,,,,,,,training,7,2,180,right,s,,,,,480.2475,480.7252,31.24412551,-3.100006104,-0.5,1,0,0,0.4774,fixationPoint,480.7253,480.8251,480.8252,481.559,31.24412551,8926.893002,537.8453033,s,1,0.7212,,481.5591,481.7583,,,,,,,,98,112,-215,161,160,28,72,118,66,-216,24,-120,115,-24,224,-17,-64,-116,-224,-69,-122,25,-124,21,-169,270,270,270,270,360,90,360,180,180,270,360,,,,,,,,,,,481.7583,481.7591,,0,97,97,97,1,12,novel,,,,,,,,,,,,,,,,,,,,,,,,,,,,,,,,,,,,,,,,,,,,,,,,,
,,9,9,${e://Field/PROLIFIC_PID,M,19,2023-11-03_06h55.32.379,MouseEye_CC,2023.2.2,Win32,59.99520038,1.115861625,,,1536,864,42.269,4.21,"327.58, 317.23, 323.29, 324.45, 330.65, 330.99, 314.03",759.86,7.378081395,31.06172267,27.83653633,Passed,104.0567709,,,,,,,,,,,,,,,,,,,,training,7,3,180,right,s,,,,,481.761,482.2249,31.24412551,-3.100006104,-0.5,1,0,0,0.4637,fixationPoint,482.2249,482.3249,482.325,483.542,31.24412551,8926.893002,537.8453033,s,1,1.2002,,483.5422,483.7414,,,,,,,,51,-212,-20,26,22,222,169,122,124,-71,215,-216,223,-163,77,67,-221,167,-25,165,-68,-172,-175,-116,-80,360,90,360,270,360,180,270,360,270,180,180,,,,,,,,,,,483.7414,483.7419,,0,98,98,98,1,5,repeated,,,,,,,,,,,,,,,,,,,,,,,,,,,,,,,,,,,,,,,,,,,,,,,,,
,,9,9,${e://Field/PROLIFIC_PID,M,19,2023-11-03_06h55.32.379,MouseEye_CC,2023.2.2,Win32,59.99520038,1.115861625,,,1536,864,42.269,4.21,"327.58, 317.23, 323.29, 324.45, 330.65, 330.99, 314.03",759.86,7.378081395,31.06172267,27.83653633,Passed,104.0567709,,,,,,,,,,,,,,,,,,,,training,7,4,0,left,a,,,,,483.7431,484.2247,31.24412551,-3.100006104,-0.5,1,0,0,0.4811,fixationPoint,484.2248,484.3246,484.3247,485.808,31.24412551,8926.893002,537.8453033,a,1,1.4681,,485.8082,486.0085,,,,,,,,41,-216,24,168,22,168,65,69,168,-211,-115,-212,-20,-17,-64,21,-169,28,-68,117,-172,-120,213,-172,170,180,270,360,270,180,360,360,90,180,360,90,,,,,,,,,,,486.0086,486.0089,,0,99,99,99,1,15,novel,,,,,,,,,,,,,,,,,,,,,,,,,,,,,,,,,,,,,,,,,,,,,,,,,
,,9,9,${e://Field/PROLIFIC_PID,M,19,2023-11-03_06h55.32.379,MouseEye_CC,2023.2.2,Win32,59.99520038,1.115861625,,,1536,864,42.269,4.21,"327.58, 317.23, 323.29, 324.45, 330.65, 330.99, 314.03",759.86,7.378081395,31.06172267,27.83653633,Passed,104.0567709,,,,,,,,,,,,,,,,,,,,training,7,5,0,left,a,,,,,486.0118,486.4244,31.24412551,-3.100006104,-0.5,1,0,0,0.4122,fixationPoint,486.4245,486.5266,486.5268,487.6577,31.24412551,8926.893002,537.8453033,a,1,1.1108,,487.6578,487.8589,,,,,,,,53,-116,-24,222,117,67,77,168,22,-163,77,-112,20,-120,115,167,-25,25,-124,64,-167,-220,-166,-116,-224,360,90,180,360,180,360,360,360,180,360,180,,,,,,,,,,,487.8591,487.8598,,0,100,100,100,1,9,novel,,,,,,,,,,,,,,,,,,,,,,,,,,,,,,,,,,,,,,,,,,,,,,,,,
,,9,9,${e://Field/PROLIFIC_PID,M,19,2023-11-03_06h55.32.379,MouseEye_CC,2023.2.2,Win32,59.99520038,1.115861625,,,1536,864,42.269,4.21,"327.58, 317.23, 323.29, 324.45, 330.65, 330.99, 314.03",759.86,7.378081395,31.06172267,27.83653633,Passed,104.0567709,,,,,,,,,,,,,,,,,,,,training,7,6,0,left,a,,,,,487.8624,488.2742,31.24412551,-3.100006104,-0.5,1,0,0,0.4114,fixationPoint,488.2742,488.3746,488.3748,489.627,31.24412551,8926.893002,537.8453033,a,1,1.2399,,489.6271,489.824,,,,,,,,61,-220,-72,161,160,127,173,20,127,-174,19,-24,224,-172,170,112,-215,221,-162,123,-79,-176,-224,-18,-172,180,360,180,90,180,270,90,180,90,360,360,,,,,,,,,,,489.8241,489.8245,,0,101,101,101,1,10,novel,,,,,,,,,,,,,,,,,,,,,,,,,,,,,,,,,,,,,,,,,,,,,,,,,
,,9,9,${e://Field/PROLIFIC_PID,M,19,2023-11-03_06h55.32.379,MouseEye_CC,2023.2.2,Win32,59.99520038,1.115861625,,,1536,864,42.269,4.21,"327.58, 317.23, 323.29, 324.45, 330.65, 330.99, 314.03",759.86,7.378081395,31.06172267,27.83653633,Passed,104.0567709,,,,,,,,,,,,,,,,,,,,training,7,7,180,right,s,,,,,489.8255,490.1744,31.24412551,-3.100006104,-0.5,1,0,0,0.3482,fixationPoint,490.1746,490.2757,490.2762,491.558,31.24412551,8926.893002,537.8453033,s,1,1.2652,,491.5582,491.7577,,,,,,,,3,-120,213,220,72,122,124,66,213,-120,-120,-116,-224,-21,-118,219,-212,217,-32,79,-28,-30,26,-216,24,360,90,180,270,360,270,270,270,270,270,360,,,,,,,,,,,491.7577,491.7583,,0,102,102,102,1,4,repeated,,,,,,,,,,,,,,,,,,,,,,,,,,,,,,,,,,,,,,,,,,,,,,,,,
,,9,9,${e://Field/PROLIFIC_PID,M,19,2023-11-03_06h55.32.379,MouseEye_CC,2023.2.2,Win32,59.99520038,1.115861625,,,1536,864,42.269,4.21,"327.58, 317.23, 323.29, 324.45, 330.65, 330.99, 314.03",759.86,7.378081395,31.06172267,27.83653633,Passed,104.0567709,,,,,,,,,,,,,,,,,,,,training,7,8,180,right,s,,,,,491.7613,492.0235,31.24412551,-3.100006104,-0.5,1,0,0,0.2618,fixationPoint,492.0235,492.1237,492.1237,493.5569,31.24412551,8926.893002,537.8453033,s,1,1.415,,493.557,493.7589,,,,,,,,60,217,-32,122,124,220,72,127,173,-174,19,-218,124,-25,172,-160,-69,-176,-224,-211,-115,117,-172,165,-68,360,360,270,360,180,270,270,180,360,180,270,,,,,,,,,,,493.7598,493.7607,,0,103,103,103,1,7,repeated,,,,,,,,,,,,,,,,,,,,,,,,,,,,,,,,,,,,,,,,,,,,,,,,,
,,9,9,${e://Field/PROLIFIC_PID,M,19,2023-11-03_06h55.32.379,MouseEye_CC,2023.2.2,Win32,59.99520038,1.115861625,,,1536,864,42.269,4.21,"327.58, 317.23, 323.29, 324.45, 330.65, 330.99, 314.03",759.86,7.378081395,31.06172267,27.83653633,Passed,104.0567709,,,,,,,,,,,,,,,,,,,,training,7,9,180,right,s,,,,,493.7628,494.0402,31.24412551,-3.100006104,-0.5,1,0,0,0.277,fixationPoint,494.0403,494.1401,494.1402,495.9731,31.24412551,8926.893002,537.8453033,s,1,1.8154,,495.9732,496.1737,,,,,,,,50,224,31,-208,74,-24,224,-113,176,-170,-114,-172,-175,-68,-165,25,-124,22,-26,113,-21,26,22,127,173,270,270,270,270,270,270,360,270,270,360,270,,,,,,,,,,,496.1741,496.1748,,0,104,104,104,1,13,novel,,,,,,,,,,,,,,,,,,,,,,,,,,,,,,,,,,,,,,,,,,,,,,,,,
,,9,9,${e://Field/PROLIFIC_PID,M,19,2023-11-03_06h55.32.379,MouseEye_CC,2023.2.2,Win32,59.99520038,1.115861625,,,1536,864,42.269,4.21,"327.58, 317.23, 323.29, 324.45, 330.65, 330.99, 314.03",759.86,7.378081395,31.06172267,27.83653633,Passed,104.0567709,,,,,,,,,,,,,,,,,,,,training,7,10,0,left,a,,,,,496.1775,496.4407,31.24412551,-3.100006104,-0.5,1,0,0,0.2629,fixationPoint,496.4407,496.54,496.5401,498.1238,31.24412551,8926.893002,537.8453033,a,1,1.5667,,498.1241,498.323,,,,,,,,25,-28,120,26,161,220,72,222,169,-68,-165,-69,-122,-116,-224,221,-162,22,-26,221,-74,-68,19,-216,223,270,90,270,360,90,90,360,270,360,180,90,,,,,,,,,,,498.323,498.3234,,0,105,105,105,1,16,novel,,,,,,,,,,,,,,,,,,,,,,,,,,,,,,,,,,,,,,,,,,,,,,,,,
,,9,9,${e://Field/PROLIFIC_PID,M,19,2023-11-03_06h55.32.379,MouseEye_CC,2023.2.2,Win32,59.99520038,1.115861625,,,1536,864,42.269,4.21,"327.58, 317.23, 323.29, 324.45, 330.65, 330.99, 314.03",759.86,7.378081395,31.06172267,27.83653633,Passed,104.0567709,,,,,,,,,,,,,,,,,,,,training,7,11,0,left,a,,,,,498.325,498.6398,31.24412551,-3.100006104,-0.5,1,0,0,0.3144,fixationPoint,498.6399,498.7397,498.7399,500.1244,31.24412551,8926.893002,537.8453033,a,1,1.3671,,500.1246,500.3232,,,,,,,,40,220,72,-25,172,-112,20,-120,213,-76,-17,-21,-118,-26,-222,121,-128,221,-162,219,-212,222,169,20,127,360,270,180,180,90,180,180,90,270,270,270,,,,,,,,,,,500.3235,500.3243,,0,106,106,106,1,2,repeated,,,,,,,,,,,,,,,,,,,,,,,,,,,,,,,,,,,,,,,,,,,,,,,,,
,,9,9,${e://Field/PROLIFIC_PID,M,19,2023-11-03_06h55.32.379,MouseEye_CC,2023.2.2,Win32,59.99520038,1.115861625,,,1536,864,42.269,4.21,"327.58, 317.23, 323.29, 324.45, 330.65, 330.99, 314.03",759.86,7.378081395,31.06172267,27.83653633,Passed,104.0567709,,,,,,,,,,,,,,,,,,,,training,7,12,0,left,a,,,,,500.3273,500.6393,31.24412551,-3.100006104,-0.5,1,0,0,0.3114,fixationPoint,500.6394,500.7394,500.7395,502.0108,31.24412551,8926.893002,537.8453033,a,1,1.2531,,502.0109,502.2079,,,,,,,,95,-26,-222,69,168,26,161,66,213,-25,172,-174,19,-163,77,121,-128,123,-79,117,-172,-68,-165,-160,-69,270,180,360,270,360,180,180,270,90,270,360,,,,,,,,,,,502.208,502.2084,,0,107,107,107,1,6,repeated,,,,,,,,,,,,,,,,,,,,,,,,,,,,,,,,,,,,,,,,,,,,,,,,,
,,9,9,${e://Field/PROLIFIC_PID,M,19,2023-11-03_06h55.32.379,MouseEye_CC,2023.2.2,Win32,59.99520038,1.115861625,,,1536,864,42.269,4.21,"327.58, 317.23, 323.29, 324.45, 330.65, 330.99, 314.03",759.86,7.378081395,31.06172267,27.83653633,Passed,104.0567709,,,,,,,,,,,,,,,,,,,,training,7,13,180,right,s,,,,,502.2091,502.4736,31.24412551,-3.100006104,-0.5,1,0,0,0.2642,fixationPoint,502.4737,502.5736,502.5737,503.9418,31.24412551,8926.893002,537.8453033,s,1,1.3575,,503.942,504.1387,,,,,,,,43,-112,20,28,72,224,31,26,161,-224,-220,-18,-172,-116,-24,25,-124,22,-26,113,-21,-172,170,-25,172,360,270,360,270,270,360,270,360,90,360,180,,,,,,,,,,,504.1388,504.1392,,0,108,108,108,1,3,repeated,,,,,,,,,,,,,,,,,,,,,,,,,,,,,,,,,,,,,,,,,,,,,,,,,
,,9,9,${e://Field/PROLIFIC_PID,M,19,2023-11-03_06h55.32.379,MouseEye_CC,2023.2.2,Win32,59.99520038,1.115861625,,,1536,864,42.269,4.21,"327.58, 317.23, 323.29, 324.45, 330.65, 330.99, 314.03",759.86,7.378081395,31.06172267,27.83653633,Passed,104.0567709,,,,,,,,,,,,,,,,,,,,training,7,14,0,left,a,,,,,504.1406,504.6394,31.24412551,-3.100006104,-0.5,1,0,0,0.4984,fixationPoint,504.6394,504.7387,504.7388,506.0557,31.24412551,8926.893002,537.8453033,a,1,1.3002,,506.0559,506.2559,,,,,,,,48,116,31,-66,176,-68,19,-77,71,-69,-122,-76,-17,-21,-118,160,-168,22,-26,121,-128,168,22,222,117,180,360,90,360,270,270,180,360,180,180,270,,,,,,,,,,,506.256,506.2568,,0,109,109,109,1,1,repeated,,,,,,,,,,,,,,,,,,,,,,,,,,,,,,,,,,,,,,,,,,,,,,,,,
